acc_x[mg],acc_y[mg],acc_z[mg],gyro_x[dps],gyro_y[dps],gyro_z[dps]
-965.000,-109.000,240.000,2.170,-0.210,2.520
-1006.989,-111.368,251.253,2.191,-0.151,2.694
-920.128,-94.910,227.162,2.022,-0.180,2.455
-1013.641,-99.323,247.950,1.927,-0.199,2.804
-930.722,-91.530,231.344,0.847,-0.099,2.834
-992.304,-101.605,248.110,0.008,-0.184,3.079
-951.708,-95.846,235.938,-0.380,-0.199,2.876
-974.613,-96.470,238.921,-0.195,-0.136,2.883
-972.222,-98.162,237.815,-0.323,-0.075,2.944
-955.534,-99.728,237.420,-0.559,-0.059,2.975
-978.977,-101.434,240.919,-0.436,-0.090,3.052
-957.414,-95.319,230.634,0.137,-0.017,2.964
-984.277,-92.529,235.581,0.816,-0.021,3.058
-967.099,-86.077,233.108,0.874,-0.086,2.949
-973.947,-83.798,239.256,0.554,-0.156,2.780
-970.000,-81.000,238.000,-0.210,-0.280,2.590
-969.998,-83.218,234.563,-0.914,-0.287,2.288
-976.652,-86.059,236.953,-1.174,-0.269,1.974
-963.471,-87.142,238.365,-1.156,-0.298,1.779
-972.588,-90.438,239.822,-1.097,-0.225,1.690
-964.174,-92.185,235.913,-0.972,-0.087,1.437
-970.478,-99.824,236.973,-0.596,0.019,1.319
-971.716,-101.829,230.370,0.070,0.074,1.169
-974.575,-99.154,229.523,1.175,0.136,0.918
-972.222,-96.754,235.423,2.036,0.149,0.917
-969.045,-93.823,237.139,2.570,0.123,0.748
-972.667,-91.425,239.079,2.793,0.189,0.541
-965.319,-89.449,238.130,2.296,0.193,0.784
-972.820,-90.309,234.836,1.766,0.125,1.027
-970.707,-91.352,233.101,1.396,0.149,1.147
-967.000,-97.000,236.000,0.700,0.210,1.400
-968.242,-100.268,236.999,0.223,0.217,1.535
-967.556,-97.517,237.209,0.272,0.155,1.576
-968.473,-96.562,235.616,0.187,0.136,1.726
-967.642,-94.887,235.542,-0.098,0.121,1.944
-969.789,-93.881,237.307,-0.531,0.047,2.190
-969.894,-94.017,235.339,-0.904,0.091,2.333
-972.259,-95.190,232.841,-1.140,0.139,2.465
-973.205,-97.913,231.983,-1.331,0.075,2.653
-970.903,-95.608,231.565,-1.087,0.015,2.620
-973.085,-87.213,229.393,-0.623,-0.052,2.553
-973.392,-80.430,232.617,-0.421,-0.074,2.683
-971.047,-78.388,233.243,-0.802,-0.081,2.721
-972.503,-78.228,232.584,-1.321,-0.178,2.628
-971.610,-81.662,236.182,-1.565,-0.294,2.492
-970.000,-83.000,232.000,-1.540,-0.350,2.240
-972.453,-80.922,230.626,-1.118,-0.405,2.048
-974.987,-82.812,231.208,-0.778,-0.525,1.901
-973.607,-81.321,226.797,-0.492,-0.608,1.597
-973.047,-79.861,226.456,-0.220,-0.675,1.368
-975.914,-81.261,229.158,0.069,-0.844,1.162
-975.336,-79.505,232.696,0.508,-1.014,0.842
-971.767,-79.046,232.866,0.627,-1.127,0.695
-970.033,-79.895,231.910,0.563,-1.188,0.577
-971.184,-82.289,233.833,0.554,-1.191,0.328
-974.941,-84.241,232.812,0.630,-1.192,0.177
-975.187,-83.115,231.768,0.848,-1.166,0.067
-970.193,-83.765,234.160,1.058,-1.066,-0.041
-966.133,-87.027,235.044,0.999,-0.948,-0.084
-967.635,-89.236,236.398,0.827,-0.911,-0.146
-972.000,-91.000,239.000,0.910,-0.910,-0.070
-969.818,-92.916,238.346,1.038,-0.795,0.064
-965.918,-91.931,236.216,1.133,-0.656,0.062
-967.531,-88.164,237.096,1.370,-0.588,0.143
-969.905,-83.667,240.953,1.458,-0.527,0.278
-971.169,-81.471,239.495,0.914,-0.457,0.400
-970.680,-80.919,235.452,0.215,-0.312,0.504
-970.025,-81.014,236.107,-0.246,-0.207,0.488
-970.913,-80.140,236.089,-0.795,-0.210,0.547
-973.043,-79.471,235.126,-1.351,-0.206,0.737
-977.110,-83.216,234.374,-1.830,-0.253,0.796
-977.116,-87.431,233.156,-2.042,-0.315,0.723
-975.037,-89.166,230.319,-1.771,-0.396,0.684
-972.911,-83.532,227.695,-1.119,-0.531,0.598
-968.522,-77.586,230.621,-0.763,-0.648,0.567
-970.000,-78.000,232.000,-1.050,-0.770,0.630
-972.332,-81.018,230.132,-1.427,-0.838,0.575
-967.594,-88.990,229.968,-1.549,-0.837,0.470
-964.873,-92.197,230.232,-1.001,-0.872,0.255
-970.758,-88.796,232.137,0.209,-0.955,0.064
-975.740,-84.394,232.998,1.355,-0.971,0.098
-971.366,-84.953,233.103,1.670,-0.889,0.150
-966.982,-91.420,232.890,1.546,-0.839,0.216
-970.648,-93.919,231.061,2.042,-0.841,0.277
-972.376,-95.063,231.702,2.742,-0.791,0.331
-971.122,-92.284,232.476,3.256,-0.710,0.403
-973.295,-86.585,235.120,3.606,-0.705,0.452
-970.572,-81.345,239.891,3.368,-0.663,0.510
-966.362,-75.664,241.140,2.468,-0.512,0.478
-969.848,-76.572,242.093,1.191,-0.407,0.597
-974.000,-81.000,239.000,-0.210,-0.280,0.840
-974.174,-85.310,232.566,-1.413,-0.145,0.848
-973.040,-89.275,231.119,-1.849,-0.187,0.833
-973.420,-90.168,229.804,-1.623,-0.221,0.840
-973.406,-86.446,229.078,-1.316,-0.222,0.877
-970.869,-81.043,232.432,-1.144,-0.318,1.049
-971.472,-77.258,233.944,-1.125,-0.354,1.122
-972.967,-76.093,232.977,-1.201,-0.429,1.123
-970.261,-79.680,233.917,-1.446,-0.493,1.186
-968.696,-81.951,233.492,-1.681,-0.427,1.195
-970.393,-82.793,231.812,-1.491,-0.426,1.190
-970.590,-86.158,232.699,-1.066,-0.378,1.148
-969.123,-86.404,232.670,-0.596,-0.364,0.945
-969.373,-82.735,231.714,0.204,-0.434,0.829
-972.506,-79.677,230.900,0.913,-0.418,0.835
-973.000,-78.000,231.000,1.050,-0.490,0.700
-970.860,-75.340,231.061,0.928,-0.614,0.571
-974.936,-74.711,231.456,0.851,-0.726,0.477
-979.901,-74.287,232.281,0.762,-0.865,0.252
-977.594,-68.252,228.889,0.405,-0.942,0.034
-971.966,-64.136,230.851,-0.009,-1.016,-0.146
-972.890,-64.004,235.348,-0.488,-1.154,-0.418
-977.164,-65.291,232.770,-1.253,-1.265,-0.641
-975.347,-73.196,231.999,-1.984,-1.264,-0.755
-971.374,-81.925,230.528,-2.295,-1.201,-1.085
-971.227,-84.571,229.982,-1.644,-1.182,-1.496
-972.198,-85.491,232.108,-0.465,-1.198,-1.785
-971.534,-83.497,231.750,0.475,-1.180,-2.091
-972.000,-80.560,233.927,1.276,-1.203,-2.165
-969.447,-82.408,234.797,1.723,-1.172,-2.184
-969.000,-84.000,232.000,2.030,-0.980,-2.310
-972.015,-88.002,230.822,2.577,-0.903,-2.324
-969.710,-92.946,233.208,3.033,-0.968,-2.163
-968.943,-91.197,234.392,3.438,-0.982,-2.005
-970.786,-89.275,233.911,3.821,-0.981,-1.847
-972.450,-89.117,235.624,3.743,-0.977,-1.458
-972.730,-91.877,236.097,3.120,-0.985,-1.205
-969.657,-94.016,238.185,2.398,-0.975,-0.720
-964.350,-94.752,238.152,1.731,-0.851,-0.169
-963.250,-99.224,237.582,1.141,-0.729,0.230
-965.858,-100.480,238.563,0.909,-0.566,0.718
-965.924,-98.579,237.513,0.936,-0.398,1.030
-969.763,-92.542,240.394,0.800,-0.302,1.435
-969.104,-84.982,239.155,0.167,-0.183,1.587
-969.444,-80.513,239.224,-0.869,-0.219,2.138
-970.000,-81.000,236.000,-1.890,-0.140,2.380
-972.416,-81.234,231.614,-2.532,-0.112,2.391
-979.141,-71.591,233.123,-2.837,-0.248,2.500
-962.005,-85.164,225.164,-3.156,-0.078,2.077
-965.553,-95.763,235.688,-2.873,-0.428,3.262
-990.039,-48.806,241.051,-2.233,-0.829,1.799
-984.610,-22.816,228.329,-3.565,-0.567,-0.958
-971.218,-61.907,233.392,-6.654,-0.567,0.829
-964.241,-102.145,225.254,-7.418,-0.503,1.862
-965.052,-111.273,217.353,-3.687,-0.543,1.065
-968.933,-92.890,227.682,1.415,-0.953,0.341
-974.709,-70.610,234.119,3.966,-1.107,-0.396
-975.853,-66.040,236.529,3.704,-1.112,-0.503
-971.019,-70.154,233.970,2.653,-1.017,-0.710
-973.524,-70.909,233.061,2.211,-0.976,-0.852
-973.000,-72.000,233.000,2.030,-0.840,-0.910
-971.793,-77.285,234.645,1.769,-0.757,-0.840
-973.026,-79.819,233.796,1.811,-0.807,-1.025
-971.898,-81.272,228.998,2.131,-0.676,-1.191
-969.657,-84.906,233.185,2.464,-0.794,-1.011
-970.563,-86.216,236.398,2.328,-0.819,-0.856
-966.913,-87.408,237.603,1.977,-0.875,-0.868
-959.076,-89.079,239.996,1.873,-0.812,-0.721
-975.238,-88.277,236.393,1.143,-0.364,0.408
-986.200,-81.302,233.071,-0.146,-0.544,0.664
-971.245,-73.950,234.038,-1.285,-0.734,-0.084
-965.290,-82.016,236.127,-2.518,-0.672,0.083
-968.120,-94.460,234.629,-3.117,-0.700,0.510
-970.832,-91.503,231.286,-2.301,-0.610,0.648
-971.829,-80.209,232.381,-1.303,-0.732,0.525
-970.000,-70.000,234.000,-1.330,-0.910,0.350
-972.479,-67.409,233.999,-1.986,-1.036,0.517
-973.561,-73.782,233.540,-2.698,-1.061,0.709
-972.441,-79.706,231.176,-3.041,-1.067,0.564
-976.050,-80.808,228.771,-2.648,-1.192,0.233
-975.799,-75.277,228.001,-2.016,-1.301,-0.151
-972.634,-70.452,230.917,-1.601,-1.431,-0.484
-975.334,-69.920,232.928,-1.310,-1.549,-0.719
-977.153,-68.043,229.313,-1.067,-1.672,-1.024
-973.575,-71.270,227.625,-0.837,-1.738,-1.337
-973.553,-78.491,229.985,-0.394,-1.830,-1.617
-975.828,-79.970,232.209,0.616,-1.978,-2.023
-973.434,-75.371,233.168,1.725,-2.060,-2.556
-973.270,-69.262,233.058,2.268,-2.117,-2.990
-972.624,-67.171,235.545,2.185,-2.181,-3.336
-971.000,-73.000,237.000,1.540,-2.240,-3.500
-972.985,-81.122,233.450,1.001,-2.238,-3.660
-970.215,-85.180,233.139,1.175,-2.292,-4.002
-968.744,-86.932,235.620,1.699,-2.293,-4.072
-973.340,-83.191,235.882,2.003,-2.182,-4.087
-972.581,-79.261,236.209,1.854,-2.189,-4.129
-968.140,-81.855,237.245,1.435,-2.250,-4.031
-968.198,-85.290,238.021,0.938,-2.236,-3.828
-970.921,-90.552,237.971,0.386,-2.173,-3.519
-969.685,-94.641,239.479,0.091,-2.169,-3.378
-966.750,-96.065,240.521,0.025,-2.132,-3.271
-964.115,-98.466,239.144,0.014,-2.077,-3.152
-962.688,-98.814,241.768,0.306,-2.112,-2.981
-966.317,-97.274,243.960,0.504,-1.952,-2.736
-967.860,-91.930,240.363,0.303,-1.732,-2.655
-967.000,-87.000,239.000,-0.140,-1.750,-2.590
-971.259,-88.657,240.124,-0.863,-1.757,-2.519
-972.484,-89.221,237.749,-1.494,-1.736,-2.604
-966.750,-89.659,237.328,-1.746,-1.798,-2.772
-967.665,-92.161,240.494,-1.668,-1.826,-2.792
-973.829,-91.400,238.651,-1.318,-1.815,-2.838
-973.116,-91.173,237.087,-0.994,-1.828,-2.961
-969.958,-92.031,237.962,-0.825,-1.896,-3.016
-972.704,-92.035,236.105,-0.519,-1.956,-3.140
-973.778,-90.597,236.583,-0.277,-2.013,-3.258
-969.117,-88.692,237.753,-0.355,-2.078,-3.433
-967.621,-90.267,238.818,-0.227,-2.158,-3.554
-969.875,-91.060,240.465,0.039,-2.303,-3.605
-968.987,-93.333,239.655,0.172,-2.276,-3.755
-963.066,-101.533,240.234,0.208,-2.161,-3.766
-961.000,-113.000,241.000,0.350,-2.170,-3.570
-964.542,-123.938,240.069,1.362,-2.120,-3.316
-965.992,-126.704,240.510,3.219,-1.954,-3.264
-965.457,-122.770,242.237,5.247,-1.751,-3.347
-963.913,-112.614,243.472,6.881,-1.618,-3.337
-964.499,-101.954,244.481,7.533,-1.473,-3.074
-965.954,-103.049,246.323,7.105,-1.300,-2.536
-963.823,-107.250,245.887,6.160,-1.259,-2.147
-962.977,-111.571,244.995,5.610,-1.200,-1.843
-963.631,-114.720,245.090,5.741,-1.070,-1.675
-965.832,-107.816,244.748,5.987,-1.037,-1.683
-967.348,-98.706,245.553,5.965,-1.064,-1.390
-966.383,-92.280,246.248,5.337,-1.021,-1.062
-967.447,-89.995,247.282,3.795,-0.966,-0.837
-967.905,-92.353,246.821,2.067,-0.895,-0.598
-967.000,-93.000,247.000,0.700,-0.840,-0.420
-966.990,-93.791,248.191,-0.414,-0.908,-0.231
-966.897,-94.703,245.652,-1.284,-0.819,-0.153
-967.446,-97.191,244.495,-2.115,-0.734,-0.069
-967.792,-103.398,242.202,-2.731,-0.803,0.061
-968.389,-106.957,239.486,-2.847,-0.738,0.048
-969.840,-109.661,241.618,-2.352,-0.806,-0.002
-964.510,-109.762,243.075,-1.387,-0.910,0.079
-964.458,-104.414,244.840,-0.230,-0.845,0.142
-971.010,-101.150,245.420,0.726,-0.789,0.125
-966.248,-100.979,242.914,0.932,-0.702,0.242
-963.262,-101.383,240.721,0.943,-0.765,0.284
-968.673,-105.478,239.671,1.136,-0.867,0.319
-972.515,-109.220,240.253,1.207,-0.824,0.446
-970.477,-101.056,241.199,1.468,-0.853,0.413
-970.000,-89.000,244.000,1.960,-0.980,0.490
-972.328,-82.510,247.701,1.594,-1.110,0.674
-966.860,-83.773,247.229,-0.142,-1.091,0.858
-962.979,-98.070,242.535,-1.985,-0.948,0.949
-962.514,-113.500,240.731,-2.767,-0.918,0.868
-963.995,-120.390,242.646,-1.921,-1.021,0.974
-967.237,-114.434,243.130,0.166,-1.046,1.047
-964.778,-102.300,246.362,1.905,-1.053,1.058
-964.829,-98.945,249.048,2.020,-1.058,1.248
-966.128,-101.069,247.239,0.979,-0.881,1.283
-965.029,-105.411,247.105,0.452,-0.776,1.191
-965.028,-103.498,245.573,0.704,-0.725,1.245
-966.769,-95.577,243.232,1.224,-0.531,1.413
-968.104,-94.599,244.802,1.341,-0.392,1.598
-967.991,-98.645,247.240,0.740,-0.343,1.771
-967.000,-101.000,247.000,0.420,-0.280,1.820
-964.135,-100.087,246.731,0.382,-0.216,1.919
-965.383,-101.108,248.854,0.014,-0.172,2.266
-965.252,-103.912,247.486,-0.444,-0.020,2.602
-962.650,-106.308,244.870,-0.574,0.150,2.857
-963.279,-108.845,245.359,-0.241,0.249,2.960
-964.122,-108.424,246.065,0.465,0.381,3.042
-965.062,-102.410,245.982,1.157,0.500,3.234
-965.032,-97.064,245.973,1.215,0.684,3.413
-965.526,-99.345,246.169,0.745,0.829,3.660
-967.827,-99.138,244.302,0.371,0.874,3.812
-970.169,-92.845,240.603,0.451,0.970,3.948
-970.723,-88.561,238.327,0.553,0.952,4.141
-969.640,-88.091,239.560,0.089,0.906,4.209
-970.232,-87.839,239.832,-0.493,0.906,4.193
-971.000,-87.000,239.000,-0.840,0.840,4.130
-968.420,-88.772,240.018,-1.042,0.781,4.129
-967.950,-88.064,238.521,-0.932,0.674,4.085
-971.353,-85.070,238.172,-0.656,0.540,4.041
-970.921,-85.687,239.213,-0.713,0.445,4.066
-969.840,-85.460,236.732,-0.857,0.420,3.902
-971.175,-83.884,234.799,-0.630,0.412,3.662
-970.998,-85.043,235.035,-0.404,0.345,3.487
-972.741,-80.716,235.016,0.015,0.287,3.303
-975.804,-71.324,236.131,0.782,0.120,3.168
-973.501,-68.698,240.647,0.995,-0.048,3.102
-966.478,-70.119,242.394,0.399,-0.094,3.063
-965.446,-77.404,241.867,-0.418,-0.185,3.107
-968.724,-87.394,241.596,-0.565,-0.198,3.018
-968.891,-88.770,238.589,0.135,-0.130,2.679
-968.000,-87.000,239.000,0.980,-0.070,2.520
-967.762,-85.194,240.164,1.558,-0.008,2.524
-970.282,-85.924,238.938,1.733,0.081,2.472
-971.130,-88.693,239.710,1.883,0.314,2.379
-970.883,-85.168,239.813,2.470,0.502,2.231
-972.480,-78.630,240.406,3.180,0.601,2.147
-972.781,-74.069,240.799,3.323,0.726,2.088
-970.835,-70.836,238.886,2.819,0.770,2.106
-969.947,-70.870,238.944,2.091,0.769,2.170
-970.933,-71.559,238.476,1.292,0.776,2.117
-970.604,-67.480,236.765,0.609,0.725,2.054
-972.187,-65.686,238.146,-0.159,0.687,1.991
-974.895,-67.654,238.724,-1.158,0.712,1.926
-976.211,-64.449,236.100,-1.827,0.685,1.746
-975.803,-59.211,235.055,-2.048,0.615,1.411
-975.000,-52.000,236.000,-2.170,0.420,0.980
-976.060,-42.890,236.765,-2.661,0.166,0.714
-973.334,-40.595,238.686,-3.867,0.040,0.593
-970.295,-42.658,238.143,-5.406,-0.124,0.147
-972.209,-49.609,235.916,-6.553,-0.288,-0.256
-974.672,-59.074,233.646,-6.875,-0.380,-0.710
-976.124,-62.537,227.669,-6.308,-0.427,-1.411
-976.015,-66.278,227.258,-5.068,-0.500,-1.929
-977.793,-64.584,229.979,-3.483,-0.685,-2.601
-978.674,-56.827,230.296,-2.099,-0.868,-3.253
-973.745,-56.346,234.316,-1.586,-1.053,-3.710
-970.954,-57.551,233.108,-1.721,-1.222,-4.278
-975.452,-61.909,227.532,-1.686,-1.442,-4.744
-979.845,-70.323,224.092,-1.340,-1.677,-5.192
-981.146,-72.868,223.172,-0.722,-1.940,-5.759
-981.000,-68.000,227.000,0.140,-2.310,-6.300
-976.068,-59.133,233.712,0.581,-2.561,-6.680
-969.513,-55.807,241.688,-0.062,-2.751,-6.882
-965.178,-63.112,242.538,-1.718,-2.857,-7.046
-962.713,-76.180,239.849,-3.432,-2.909,-7.279
-964.018,-85.814,239.900,-3.918,-3.086,-7.648
-970.687,-87.852,237.143,-3.115,-3.254,-8.071
-975.075,-84.704,234.959,-2.191,-3.365,-8.342
-973.218,-82.916,235.841,-2.013,-3.362,-8.401
-971.232,-85.896,238.998,-2.365,-3.402,-8.357
-969.736,-92.215,243.055,-2.691,-3.476,-8.165
-967.096,-102.747,243.804,-2.926,-3.277,-7.875
-965.162,-111.639,239.624,-2.611,-3.097,-7.712
-964.845,-119.456,236.737,-1.507,-3.058,-7.584
-963.843,-124.213,239.699,-0.314,-2.822,-7.383
-964.000,-123.000,245.000,0.840,-2.590,-7.070
-963.376,-120.831,249.017,1.795,-2.532,-6.755
-962.029,-112.584,245.059,2.131,-2.413,-6.540
-966.872,-108.184,240.534,1.739,-2.387,-6.112
-968.449,-112.709,241.834,0.563,-2.534,-5.704
-964.535,-113.473,242.170,-0.432,-2.607,-5.695
-965.618,-108.309,246.127,-0.871,-2.687,-5.627
-968.131,-98.141,246.744,-1.616,-2.806,-5.373
-968.993,-89.375,243.928,-2.827,-2.803,-5.254
-968.334,-88.315,247.344,-4.569,-2.789,-5.191
-966.470,-91.899,247.334,-6.546,-2.851,-5.229
-965.317,-94.125,243.710,-7.768,-2.877,-5.518
-966.785,-99.342,240.500,-8.182,-2.866,-5.749
-967.854,-110.523,238.696,-8.219,-2.873,-5.842
-965.641,-119.020,237.753,-7.434,-2.868,-6.068
-965.000,-125.000,237.000,-5.600,-2.870,-6.440
-965.171,-128.049,241.256,-3.249,-2.930,-6.811
-963.391,-126.921,243.991,-0.855,-2.954,-7.046
-963.075,-129.020,243.917,0.996,-2.893,-7.043
-964.282,-132.504,243.575,2.508,-2.862,-6.979
-963.357,-133.332,243.121,4.233,-2.876,-7.000
-962.751,-137.140,245.545,5.445,-2.861,-6.785
-959.731,-138.796,245.982,5.991,-2.795,-6.496
-960.531,-132.560,247.708,6.669,-2.795,-6.380
-966.685,-126.349,251.387,6.916,-2.864,-6.160
-963.865,-119.940,253.899,5.861,-2.841,-5.800
-960.194,-118.086,256.034,3.926,-2.703,-5.197
-959.148,-126.876,255.803,1.681,-2.480,-4.568
-957.758,-136.660,257.829,-0.345,-2.235,-4.146
-957.938,-142.458,257.539,-1.514,-1.995,-3.719
-957.000,-139.000,254.000,-1.820,-1.820,-3.430
-960.239,-129.931,253.885,-1.965,-1.701,-3.087
-963.235,-127.472,254.624,-2.709,-1.569,-2.539
-961.142,-130.414,255.584,-4.024,-1.497,-2.068
-958.267,-136.683,253.008,-5.142,-1.433,-1.711
-956.481,-143.436,250.500,-5.346,-1.385,-1.441
-958.872,-149.163,249.344,-4.696,-1.302,-1.221
-963.299,-149.666,244.731,-3.452,-1.185,-1.195
-965.058,-140.820,245.685,-1.677,-1.187,-1.197
-962.727,-132.159,248.793,-0.293,-1.199,-1.071
-960.061,-129.089,249.457,-0.020,-1.141,-1.007
-960.481,-129.449,250.432,-0.116,-1.128,-0.929
-962.949,-130.230,249.268,0.018,-1.262,-0.925
-964.123,-129.553,249.113,0.326,-1.334,-1.011
-965.263,-126.411,248.886,0.758,-1.336,-1.142
-966.000,-124.000,249.000,0.770,-1.400,-1.190
-963.504,-126.280,250.771,0.230,-1.402,-1.064
-960.025,-132.506,251.843,-0.260,-1.403,-1.039
-957.794,-140.012,251.649,-0.377,-1.365,-1.061
-960.923,-143.173,250.387,0.169,-1.296,-1.009
-960.843,-146.794,251.681,1.009,-1.225,-0.823
-957.548,-150.413,251.712,1.698,-1.083,-0.566
-958.040,-151.118,252.253,2.434,-0.894,-0.173
-957.097,-153.014,256.757,2.980,-0.710,0.316
-956.914,-149.926,257.868,3.351,-0.598,0.778
-955.900,-148.707,259.427,3.564,-0.347,1.394
-953.320,-151.727,258.927,3.227,-0.005,1.899
-952.913,-151.846,256.110,2.758,0.253,2.464
-954.678,-151.789,257.364,2.662,0.488,3.128
-957.393,-146.803,255.596,2.643,0.649,3.650
-960.000,-138.000,256.000,2.310,0.770,4.200
-962.837,-130.760,258.044,1.395,0.945,4.685
-961.321,-129.023,257.690,-0.203,1.192,5.224
-957.273,-132.597,257.960,-1.973,1.364,5.684
-957.870,-131.515,251.878,-3.023,1.434,5.919
-963.023,-127.882,246.957,-3.105,1.483,6.080
-966.111,-126.735,246.968,-3.019,1.459,6.288
-964.967,-123.668,245.919,-3.239,1.393,6.522
-966.801,-120.103,245.100,-3.362,1.271,6.579
-967.408,-121.736,242.787,-3.303,1.142,6.629
-965.782,-129.050,238.761,-3.236,1.039,6.732
-965.839,-140.053,234.825,-2.799,0.867,6.924
-963.193,-149.607,236.615,-1.344,0.694,7.201
-960.253,-150.164,241.327,1.223,0.485,7.541
-958.811,-145.217,245.718,4.038,0.255,8.075
-958.000,-140.000,248.000,6.020,0.280,8.750
-958.004,-132.443,245.863,7.142,0.469,9.217
-957.862,-120.492,250.740,7.975,0.551,9.163
-959.098,-98.950,255.954,8.485,0.590,8.999
-963.276,-74.428,259.031,7.832,0.709,8.907
-966.983,-59.479,262.197,5.210,0.928,8.759
-969.695,-53.308,254.795,1.408,1.064,8.549
-974.411,-56.561,249.897,-2.297,1.047,8.151
-977.951,-63.674,246.561,-5.336,0.987,7.482
-976.550,-65.555,239.552,-7.405,0.869,6.670
-974.820,-70.004,240.193,-8.761,0.779,6.081
-974.965,-76.747,240.708,-9.328,0.770,5.501
-974.456,-78.152,239.816,-8.793,0.768,4.758
-973.711,-79.770,239.718,-7.427,0.779,3.935
-972.873,-82.412,237.725,-5.674,0.855,3.108
-972.000,-88.000,237.000,-3.920,0.910,2.590
-969.551,-99.379,236.155,-2.072,0.799,2.174
-966.354,-106.849,235.754,0.282,0.609,1.679
-966.258,-110.058,237.024,3.081,0.494,1.295
-966.825,-110.754,238.812,5.657,0.520,1.115
-964.976,-107.967,238.694,7.611,0.571,1.004
-963.915,-108.299,239.546,9.032,0.556,0.892
-965.180,-106.628,243.266,9.918,0.561,0.918
-967.853,-100.425,244.979,10.224,0.560,1.101
-967.657,-95.979,244.968,9.807,0.608,1.347
-964.398,-91.356,245.450,8.514,0.665,1.577
-964.365,-89.393,246.784,6.326,0.514,1.868
-967.159,-90.195,246.431,3.644,0.392,2.161
-969.599,-88.032,244.319,1.044,0.428,2.494
-971.164,-84.386,242.896,-1.329,0.325,2.844
-971.000,-80.000,244.000,-3.430,0.210,3.010
-969.202,-78.023,246.780,-5.272,0.158,3.076
-969.263,-77.459,246.129,-6.772,0.022,3.078
-971.855,-77.038,241.424,-7.808,0.029,3.096
-973.117,-82.806,236.860,-8.298,0.076,2.988
-972.665,-88.533,235.694,-7.940,-0.073,2.672
-973.106,-88.648,233.191,-6.728,-0.243,2.387
-972.919,-86.964,232.153,-5.051,-0.358,2.075
-971.131,-89.626,234.945,-3.596,-0.480,1.772
-971.252,-92.441,232.824,-2.224,-0.610,1.430
-974.652,-88.947,230.677,-0.243,-0.643,0.962
-972.134,-87.749,232.199,1.688,-0.633,0.445
-968.094,-84.602,235.642,3.193,-0.804,-0.118
-976.100,-76.567,236.806,4.610,-1.042,-0.511
-978.108,-71.495,236.190,5.356,-1.121,-0.737
-968.000,-70.000,240.000,4.900,-1.120,-1.050
-967.172,-70.027,241.899,3.924,-1.232,-1.360
-971.787,-70.350,243.857,2.949,-1.422,-1.643
-970.253,-73.072,246.494,1.690,-1.533,-2.012
-967.945,-74.241,244.159,0.554,-1.517,-2.319
-970.243,-76.544,240.941,-0.525,-1.440,-2.523
-973.130,-83.842,239.933,-1.809,-1.394,-2.700
-969.612,-90.359,239.991,-2.391,-1.403,-2.885
-966.963,-92.067,239.944,-2.259,-1.465,-3.068
-968.027,-91.550,241.600,-2.006,-1.482,-3.197
-966.561,-94.772,241.852,-1.890,-1.416,-3.304
-965.339,-97.251,239.226,-1.845,-1.396,-3.470
-966.927,-101.605,236.878,-1.430,-1.400,-3.648
-971.477,-107.375,234.241,-0.623,-1.401,-3.864
-974.014,-109.029,234.287,0.658,-1.398,-4.267
-972.000,-105.000,237.000,2.520,-1.400,-4.620
-970.982,-91.913,238.770,4.503,-1.461,-4.863
-971.005,-84.845,240.449,5.659,-1.483,-5.036
-970.936,-86.581,242.082,5.560,-1.425,-4.994
-969.685,-90.631,244.477,5.054,-1.389,-4.969
-964.693,-97.289,248.587,4.740,-1.416,-4.964
-961.761,-97.195,251.395,4.825,-1.494,-4.976
-963.170,-92.741,251.988,5.113,-1.618,-4.882
-964.916,-91.883,250.264,4.506,-1.617,-4.572
-965.787,-95.475,247.140,2.982,-1.541,-4.333
-966.213,-103.917,248.335,1.271,-1.556,-3.990
-963.996,-113.599,248.200,-0.256,-1.465,-3.708
-960.524,-115.731,247.520,-0.985,-1.382,-3.562
-961.796,-111.519,253.965,-1.049,-1.401,-3.257
-964.254,-106.018,251.827,-1.255,-1.309,-2.967
-966.000,-101.000,246.000,-2.030,-1.190,-2.590
-968.038,-107.171,249.607,-3.240,-1.127,-2.098
-965.330,-117.484,247.795,-4.263,-1.076,-1.746
-962.303,-120.383,243.306,-4.327,-0.965,-1.585
-964.010,-120.833,242.742,-3.419,-0.881,-1.496
-964.976,-112.065,241.745,-2.159,-0.951,-1.473
-966.568,-96.874,245.312,-1.082,-1.080,-1.450
-969.098,-89.792,250.159,-1.259,-1.198,-1.241
-968.169,-90.643,247.487,-2.554,-1.258,-1.058
-966.847,-99.685,241.093,-3.771,-1.262,-0.985
-968.141,-114.515,237.286,-4.404,-1.255,-1.040
-969.305,-122.748,233.748,-3.829,-1.289,-1.277
-967.707,-121.727,233.995,-2.315,-1.363,-1.488
-965.584,-115.483,239.976,-0.488,-1.415,-1.660
-967.526,-104.132,244.445,0.822,-1.482,-1.759
-970.000,-96.000,245.000,0.910,-1.540,-1.820
-969.962,-98.798,241.556,0.281,-1.542,-1.884
-970.263,-108.562,239.779,-0.726,-1.534,-1.962
-968.068,-118.069,240.258,-1.109,-1.576,-2.290
-966.441,-115.561,239.827,-0.017,-1.645,-2.801
-969.152,-100.687,242.122,1.650,-1.711,-3.202
-970.984,-87.760,244.390,2.201,-1.859,-3.286
-968.778,-85.280,247.319,1.065,-1.963,-3.297
-967.024,-95.805,250.059,-0.646,-1.960,-3.482
-967.073,-111.178,246.234,-1.905,-1.964,-3.721
-965.786,-120.266,242.330,-1.845,-1.916,-3.949
-962.992,-123.720,242.093,-0.738,-1.856,-3.980
-961.706,-126.180,244.548,0.303,-1.771,-3.839
-963.336,-128.487,249.335,1.172,-1.648,-3.518
-961.540,-127.701,251.095,2.019,-1.606,-3.087
-961.000,-127.000,253.000,2.730,-1.540,-2.660
-961.558,-130.395,255.906,2.839,-1.419,-2.110
-956.114,-132.956,254.709,2.558,-1.295,-1.663
-955.621,-132.125,252.995,2.549,-1.206,-1.216
-960.270,-129.025,253.468,2.570,-1.172,-0.734
-961.915,-123.860,256.230,2.135,-1.071,-0.324
-958.979,-119.093,257.973,1.020,-0.961,0.187
-957.136,-116.933,255.828,-0.465,-0.906,0.586
-961.657,-116.964,255.025,-1.923,-0.845,0.950
-963.886,-117.094,252.977,-3.193,-0.785,1.277
-964.507,-116.740,249.308,-4.066,-0.720,1.534
-964.554,-118.229,248.950,-4.788,-0.672,1.938
-963.446,-121.521,246.129,-5.447,-0.574,2.161
-964.394,-123.148,243.976,-5.551,-0.472,2.168
-966.322,-121.588,246.314,-4.996,-0.497,2.170
-967.000,-118.000,246.000,-4.200,-0.490,2.170
-964.311,-115.110,245.829,-3.522,-0.430,2.174
-963.845,-116.208,246.313,-2.895,-0.329,2.126
-963.278,-117.784,245.161,-1.984,-0.176,2.003
-963.462,-114.892,244.699,-0.604,-0.133,1.723
-967.234,-110.331,243.551,0.890,-0.140,1.455
-967.686,-107.569,244.312,1.833,-0.141,1.293
-967.069,-107.028,243.824,2.184,-0.139,1.105
-968.913,-108.747,241.983,2.245,-0.139,0.923
-967.217,-112.456,243.602,2.121,-0.145,0.748
-962.058,-112.320,244.611,2.153,-0.128,0.515
-964.491,-109.487,245.802,2.351,-0.181,0.312
-969.216,-111.374,244.922,2.140,-0.215,0.282
-966.761,-115.551,240.794,1.580,-0.211,0.278
-965.002,-124.777,240.274,1.335,-0.206,0.378
-965.000,-134.000,243.000,1.820,-0.140,0.560
-962.454,-133.641,243.131,3.003,-0.021,0.616
-960.237,-128.593,244.336,4.362,0.073,0.809
-959.715,-125.063,250.009,5.107,0.045,1.162
-960.089,-128.826,249.591,4.911,0.178,1.511
-961.500,-133.045,245.904,4.516,0.441,1.770
-963.246,-134.330,244.597,4.728,0.593,2.026
-962.884,-136.128,241.807,5.371,0.786,2.333
-961.075,-137.882,240.967,5.915,0.969,2.637
-962.158,-135.516,242.228,6.540,1.100,2.857
-965.449,-120.201,247.045,7.893,1.133,2.858
-964.705,-107.845,249.639,8.691,1.130,2.945
-961.513,-101.774,246.613,7.565,1.259,3.044
-963.219,-92.540,249.884,6.278,1.347,3.250
-968.605,-91.113,255.445,5.445,1.414,3.601
-968.000,-85.000,254.000,4.200,1.470,3.430
-968.220,-65.960,251.909,3.490,1.360,3.053
-973.432,-50.210,253.103,2.753,1.134,2.803
-973.454,-42.071,250.892,0.576,0.841,2.612
-975.447,-42.772,247.281,-2.423,0.553,2.574
-976.658,-54.338,244.732,-5.297,0.350,2.276
-976.116,-67.612,239.915,-6.946,0.162,1.570
-976.937,-75.477,237.967,-7.126,-0.091,0.778
-974.204,-81.518,236.271,-6.823,-0.336,-0.073
-973.062,-88.223,233.165,-6.212,-0.469,-0.845
-971.777,-96.632,234.027,-5.282,-0.575,-1.353
-968.936,-104.181,236.295,-3.868,-0.715,-1.877
-965.067,-106.143,236.718,-1.591,-0.800,-2.379
-966.139,-104.368,234.226,0.838,-0.860,-2.650
-970.279,-104.295,235.595,2.598,-0.915,-2.733
-969.000,-109.000,238.000,3.640,-0.910,-2.730
-969.745,-115.140,234.429,4.372,-0.909,-2.738
-969.198,-121.384,235.228,4.991,-0.910,-2.600
-964.673,-130.387,241.818,5.287,-0.936,-2.314
-960.999,-131.646,247.930,5.853,-1.036,-2.005
-959.830,-117.619,250.578,6.886,-1.019,-1.692
-961.210,-106.688,252.687,6.914,-0.883,-1.184
-960.957,-107.238,255.013,5.216,-0.839,-0.430
-960.982,-111.555,252.295,2.773,-0.779,0.297
-960.923,-117.324,249.473,0.707,-0.649,0.932
-962.339,-116.073,246.850,-0.499,-0.619,1.344
-966.393,-106.723,246.430,-1.134,-0.639,1.729
-967.682,-96.239,251.398,-2.059,-0.613,2.303
-963.129,-90.249,252.680,-3.864,-0.518,2.793
-960.084,-96.693,249.337,-6.049,-0.319,3.115
-965.000,-107.000,244.000,-7.280,-0.210,3.150
-970.507,-107.820,240.138,-6.781,-0.213,2.971
-971.544,-98.988,240.637,-5.278,-0.196,2.742
-969.539,-85.755,241.539,-4.066,-0.310,2.502
-971.380,-78.193,242.372,-3.676,-0.561,2.429
-972.625,-81.183,240.926,-4.089,-0.755,2.302
-970.722,-90.399,237.241,-4.719,-0.755,1.924
-972.152,-100.699,235.978,-4.411,-0.699,1.350
-972.136,-105.940,234.306,-3.065,-0.702,0.679
-970.890,-104.442,229.651,-1.330,-0.645,0.113
-971.706,-104.180,229.972,0.418,-0.616,-0.346
-970.792,-105.933,235.427,1.702,-0.666,-0.665
-967.043,-105.778,239.985,2.703,-0.730,-0.849
-966.107,-103.888,243.805,3.744,-0.787,-1.044
-967.086,-95.427,242.599,4.581,-0.851,-1.203
-968.000,-90.000,243.000,4.690,-0.910,-1.120
-969.994,-95.775,246.046,3.431,-0.911,-0.871
-967.466,-103.527,244.252,1.678,-0.910,-0.732
-963.034,-111.473,244.419,0.577,-0.908,-0.615
-960.848,-115.180,241.863,0.107,-0.915,-0.510
-961.738,-117.172,240.447,0.225,-0.893,-0.312
-965.740,-120.131,244.760,0.254,-0.824,0.092
-965.876,-114.313,243.804,0.305,-0.765,0.367
-964.960,-108.091,242.959,0.754,-0.704,0.669
-965.884,-110.714,242.452,0.459,-0.649,1.054
-965.411,-116.198,241.322,-0.208,-0.540,1.276
-963.665,-120.375,243.418,-0.173,-0.417,1.383
-962.483,-122.782,243.780,0.375,-0.275,1.427
-963.322,-120.502,244.678,1.430,-0.085,1.604
-964.019,-109.805,248.595,2.802,0.005,1.671
-964.000,-93.000,250.000,3.990,-0.000,1.610
-965.606,-79.952,248.177,4.233,-0.005,1.783
-967.701,-79.285,248.471,2.981,0.051,1.990
-968.244,-84.914,249.273,1.441,0.083,2.042
-969.786,-84.967,244.651,0.850,0.059,1.777
-971.368,-80.225,237.722,0.699,0.081,1.423
-973.563,-79.212,237.590,0.177,0.057,1.214
-974.981,-81.167,240.074,-0.858,-0.004,0.958
-973.180,-83.784,239.991,-1.838,-0.063,0.655
-971.282,-84.717,240.213,-2.187,-0.181,0.297
-970.477,-79.449,238.399,-1.895,-0.300,-0.049
-971.739,-74.373,238.710,-1.400,-0.455,-0.211
-970.834,-75.338,240.219,-1.628,-0.636,-0.205
-968.542,-84.835,238.431,-2.379,-0.715,-0.351
-969.092,-99.084,239.351,-2.567,-0.784,-0.589
-968.000,-109.000,240.000,-1.960,-0.840,-0.770
-966.981,-109.790,237.229,-0.430,-0.778,-1.078
-966.521,-103.711,238.089,1.279,-0.804,-1.212
-965.061,-105.949,239.782,1.940,-0.881,-1.104
-967.853,-113.918,237.715,1.962,-0.737,-1.004
-969.840,-116.408,239.191,2.309,-0.603,-0.973
-965.751,-115.257,242.475,3.262,-0.643,-0.863
-963.025,-108.422,243.027,4.091,-0.623,-0.531
-965.751,-105.765,243.916,3.841,-0.499,-0.168
-967.211,-109.760,244.835,2.961,-0.424,0.201
-965.847,-107.020,245.152,2.538,-0.421,0.482
-966.739,-98.674,244.639,2.435,-0.416,0.713
-968.126,-93.461,245.584,1.543,-0.427,1.112
-965.869,-97.064,245.748,-0.239,-0.399,1.503
-962.723,-108.061,244.980,-1.983,-0.251,1.696
-964.000,-124.000,244.000,-2.940,-0.000,1.680
-967.687,-137.807,238.119,-2.462,0.363,1.402
-967.549,-139.929,231.550,-0.426,0.655,0.829
-966.989,-129.220,228.002,2.484,0.751,0.241
-971.717,-106.425,233.033,5.288,0.785,-0.009
-973.864,-77.833,243.956,7.141,0.736,0.192
-971.121,-51.734,249.846,7.475,0.597,0.571
-966.619,-39.824,252.096,5.905,0.483,0.861
-963.047,-46.931,251.235,2.969,0.363,1.109
-965.684,-63.113,247.141,0.276,0.177,1.054
-971.138,-77.292,241.551,-0.804,0.078,0.632
-974.779,-81.172,234.744,-0.416,0.030,0.043
-976.174,-80.979,230.927,0.320,-0.190,-0.489
-975.480,-80.811,233.081,0.686,-0.398,-0.652
-972.427,-81.326,236.414,0.603,-0.507,-0.807
-970.000,-84.000,239.000,0.490,-0.630,-1.050
-972.402,-82.428,240.266,0.439,-0.750,-1.225
-975.043,-81.816,236.923,0.240,-0.880,-1.477
-973.343,-87.511,235.903,-0.194,-0.953,-1.650
-970.067,-93.937,238.060,-0.788,-1.033,-1.931
-968.612,-91.908,239.866,-0.672,-1.174,-2.293
-968.975,-82.843,243.869,-0.019,-1.280,-2.481
-967.902,-76.838,243.753,-0.116,-1.332,-2.513
-967.900,-82.818,240.159,-1.155,-1.330,-2.264
-969.014,-103.703,239.293,-2.463,-1.332,-2.043
-967.736,-122.879,236.468,-2.658,-1.293,-2.035
-965.433,-129.659,233.942,-1.129,-1.213,-1.996
-964.942,-123.600,236.550,1.110,-1.183,-1.927
-966.273,-109.624,240.124,2.887,-1.203,-1.728
-965.860,-98.686,244.677,3.326,-1.269,-1.246
-966.000,-94.000,246.000,2.450,-1.260,-0.770
-966.987,-97.893,244.834,1.115,-1.195,-0.404
-966.359,-104.165,246.747,-0.121,-1.187,-0.111
-964.984,-103.980,246.345,-0.840,-1.193,-0.059
-965.639,-95.706,246.065,-0.873,-1.172,-0.059
-969.031,-88.359,245.241,-1.097,-1.074,0.068
-968.303,-94.612,242.361,-2.321,-0.953,0.350
-965.956,-109.173,239.775,-3.875,-0.830,0.486
-966.883,-122.343,237.110,-4.188,-0.707,0.298
-969.125,-122.153,236.879,-2.632,-0.641,0.061
-972.546,-102.302,237.790,-0.301,-0.613,-0.181
-971.206,-81.165,241.896,1.020,-0.697,-0.130
-967.051,-75.690,243.958,0.205,-0.815,0.086
-966.141,-87.031,239.244,-1.804,-0.841,0.146
-969.724,-106.814,235.767,-2.919,-0.839,0.028
-972.000,-114.000,236.000,-1.960,-0.840,-0.490
-970.032,-99.978,236.826,0.527,-0.895,-1.006
-971.537,-83.527,239.425,2.323,-1.010,-1.133
-971.049,-80.738,244.247,2.044,-1.141,-1.069
-968.732,-89.728,244.157,0.796,-1.214,-1.065
-966.955,-101.138,242.678,0.137,-1.160,-1.163
-964.590,-107.855,241.410,0.310,-1.118,-1.293
-965.143,-106.711,238.958,1.047,-1.118,-1.403
-967.761,-103.166,240.833,1.726,-1.055,-1.340
-970.010,-102.050,241.204,1.649,-1.041,-1.214
-968.476,-102.760,241.284,1.108,-1.064,-1.103
-967.433,-106.762,242.744,0.675,-1.011,-0.966
-965.491,-110.093,243.218,0.510,-0.955,-0.879
-964.185,-109.133,244.196,0.510,-0.893,-0.810
-967.378,-102.818,243.973,0.745,-0.923,-0.580
-966.000,-98.000,245.000,0.770,-0.980,-0.210
-963.982,-100.505,246.008,0.067,-0.865,0.044
-964.558,-102.098,245.394,-0.695,-0.728,0.185
-966.955,-101.577,244.055,-1.012,-0.650,0.220
-969.662,-99.479,244.542,-1.086,-0.622,0.222
-966.034,-95.603,244.331,-1.287,-0.635,0.320
-965.488,-95.584,241.679,-1.515,-0.622,0.348
-968.057,-101.548,244.290,-1.776,-0.554,0.352
-966.223,-105.964,244.315,-1.972,-0.493,0.354
-964.723,-104.975,240.318,-1.447,-0.440,0.288
-966.866,-106.867,240.041,-0.705,-0.360,0.283
-968.258,-108.531,239.839,-0.170,-0.355,0.244
-967.593,-107.352,242.824,0.434,-0.326,0.213
-967.772,-104.978,245.115,1.124,-0.258,0.313
-964.439,-101.741,243.824,1.668,-0.105,0.349
-966.000,-103.000,243.000,1.820,0.140,0.350
-971.879,-103.306,241.150,1.877,0.210,0.353
-968.575,-100.873,241.574,1.913,0.213,0.344
-965.371,-97.262,242.200,1.785,0.174,0.357
-966.704,-92.679,241.839,1.508,0.113,0.355
-968.615,-90.045,241.841,0.897,0.006,0.482
-970.157,-87.689,240.712,-0.223,-0.276,0.562
-971.147,-91.614,239.938,-1.490,-0.424,0.564
-972.995,-100.443,238.196,-2.463,-0.483,0.630
-970.798,-105.387,236.110,-2.891,-0.554,0.528
-968.124,-106.726,236.962,-2.481,-0.590,0.417
-967.615,-103.142,239.154,-1.650,-0.713,0.452
-968.482,-97.839,237.854,-1.015,-0.799,0.535
-970.322,-97.730,235.480,-0.832,-0.863,0.677
-969.831,-104.290,234.949,-0.922,-0.915,0.776
-969.000,-111.000,235.000,-0.770,-0.980,0.700
-968.908,-108.312,237.472,0.086,-1.111,0.513
-969.326,-97.638,240.867,1.337,-1.079,0.426
-966.677,-86.943,244.962,1.849,-1.030,0.414
-963.245,-82.963,248.522,1.443,-1.066,0.448
-963.186,-87.463,248.548,0.525,-1.029,0.503
-965.631,-94.383,244.705,-0.272,-0.959,0.484
-968.152,-98.225,238.657,-0.494,-0.830,0.491
-969.865,-101.706,237.882,-0.434,-0.770,0.431
-971.073,-103.550,238.298,-0.147,-0.772,0.253
-969.581,-99.034,237.898,0.109,-0.799,0.096
-967.812,-95.156,241.085,0.094,-0.901,0.086
-965.887,-95.409,242.048,-0.304,-0.897,0.182
-966.835,-98.250,243.847,-0.837,-0.928,0.219
-970.239,-103.842,244.791,-0.972,-0.888,0.295
-967.000,-107.000,243.000,-0.700,-0.700,0.350
-961.428,-107.122,245.611,-0.047,-0.637,0.402
-961.607,-105.152,245.191,0.662,-0.538,0.532
-966.836,-101.568,241.998,1.151,-0.395,0.600
-969.216,-101.458,242.363,1.265,-0.310,0.670
-967.040,-101.298,241.157,1.180,-0.272,0.713
-968.804,-95.343,240.047,1.386,-0.288,0.798
-972.134,-90.913,242.216,1.211,-0.356,0.918
-971.216,-92.741,243.991,0.105,-0.359,1.037
-968.984,-96.184,242.628,-1.131,-0.180,1.181
-970.175,-99.409,239.812,-1.672,-0.074,1.147
-970.745,-99.445,238.101,-1.559,-0.068,1.112
-968.968,-96.685,238.347,-1.270,-0.087,1.117
-967.292,-94.106,241.051,-1.075,-0.165,1.136
-964.730,-90.500,244.359,-1.065,-0.213,1.194
-966.000,-90.000,244.000,-1.330,-0.210,1.190
-968.085,-93.366,241.274,-1.707,-0.206,1.250
-966.365,-97.730,240.261,-1.845,-0.258,1.270
-966.472,-100.489,238.837,-1.636,-0.326,1.229
-969.510,-98.278,237.251,-1.024,-0.360,1.120
-971.112,-94.536,236.897,-0.322,-0.349,1.038
-970.908,-89.764,237.116,-0.046,-0.457,1.041
-972.196,-85.866,238.070,-0.079,-0.561,0.898
-974.044,-86.775,238.091,-0.379,-0.556,0.839
-970.966,-90.804,235.782,-1.044,-0.672,0.800
-968.780,-95.717,232.920,-1.439,-0.748,0.666
-972.155,-98.181,235.019,-1.178,-0.839,0.572
-971.580,-99.397,240.162,-0.653,-0.938,0.402
-966.329,-96.246,242.372,0.002,-0.885,0.234
-963.987,-89.073,243.024,0.545,-0.837,0.133
-966.000,-87.000,242.000,0.560,-0.840,0.210
-967.939,-90.120,241.748,0.142,-0.845,0.342
-967.344,-97.082,243.241,-0.198,-0.788,0.356
-966.739,-100.335,240.458,-0.058,-0.736,0.294
-970.381,-96.892,235.342,0.400,-0.633,0.109
-975.089,-96.130,234.258,0.692,-0.540,0.086
-972.923,-93.761,237.967,0.594,-0.571,0.034
-969.980,-85.369,240.007,0.563,-0.637,-0.147
-970.991,-81.857,239.918,0.333,-0.762,-0.080
-969.485,-86.542,241.722,-0.662,-0.783,-0.002
-967.999,-92.325,241.559,-1.435,-0.751,0.003
-967.289,-95.662,240.265,-1.273,-0.817,-0.028
-966.854,-95.485,239.587,-0.741,-0.828,-0.102
-968.566,-93.197,238.946,-0.411,-0.740,-0.158
-970.185,-90.674,240.276,-0.179,-0.700,-0.218
-970.000,-90.000,241.000,-0.210,-0.700,-0.280
-967.280,-90.164,240.063,-0.588,-0.635,-0.403
-967.842,-88.476,240.590,-0.667,-0.670,-0.476
-971.207,-87.360,241.066,-0.564,-0.748,-0.555
-971.703,-86.393,237.610,-0.598,-0.817,-0.731
-972.427,-86.099,234.111,-0.782,-0.969,-0.899
-974.058,-87.305,235.693,-0.931,-1.070,-0.994
-971.763,-87.980,238.076,-1.068,-1.202,-1.058
-970.885,-86.195,237.991,-1.318,-1.325,-1.242
-971.577,-85.956,239.441,-1.376,-1.382,-1.485
-967.293,-92.447,240.611,-1.620,-1.459,-1.728
-965.218,-97.514,238.498,-1.782,-1.464,-1.947
-966.290,-100.269,238.053,-1.161,-1.496,-2.087
-967.402,-100.161,237.735,-0.057,-1.548,-2.210
-969.197,-94.069,238.346,1.056,-1.541,-2.322
-969.000,-92.000,241.000,1.540,-1.610,-2.310
-968.092,-93.782,241.014,1.371,-1.734,-2.244
-967.748,-94.840,241.760,1.163,-1.811,-2.241
-969.396,-94.673,241.456,0.988,-1.822,-2.235
-971.715,-93.358,241.556,0.603,-1.821,-2.250
-969.420,-95.367,245.361,0.062,-1.808,-2.218
-966.696,-101.655,243.960,-0.574,-1.725,-2.160
-968.199,-108.443,238.710,-1.150,-1.600,-2.092
-969.961,-111.936,237.896,-1.093,-1.478,-1.967
-969.471,-110.174,240.139,-0.270,-1.407,-1.903
-965.778,-103.756,244.934,0.299,-1.396,-1.840
-962.005,-97.454,248.554,0.085,-1.406,-1.797
-964.529,-96.090,247.000,-0.376,-1.382,-1.673
-965.621,-99.064,247.423,-1.206,-1.298,-1.496
-963.944,-101.118,246.500,-1.960,-1.171,-1.376
-966.000,-101.000,243.000,-2.030,-1.120,-1.120
-968.780,-101.714,242.958,-1.957,-1.183,-0.921
-968.066,-103.752,242.366,-2.018,-1.188,-0.903
-965.102,-102.765,241.327,-1.933,-1.253,-0.920
-968.052,-99.186,240.785,-1.514,-1.411,-0.867
-969.779,-96.869,243.576,-1.435,-1.504,-0.689
-968.891,-90.303,247.600,-1.553,-1.647,-0.424
-967.776,-89.414,247.952,-1.879,-1.755,-0.202
-964.163,-96.624,246.240,-3.117,-1.815,-0.267
-963.918,-99.795,243.763,-4.045,-1.834,-0.360
-963.166,-107.865,246.985,-4.284,-1.765,-0.314
-963.132,-111.839,245.982,-4.330,-1.728,-0.511
-964.298,-106.380,239.526,-3.824,-1.629,-0.842
-967.297,-104.963,240.979,-3.080,-1.631,-1.020
-971.292,-103.714,241.890,-2.707,-1.677,-1.141
-970.000,-104.000,242.000,-2.730,-1.610,-1.330
-969.008,-107.537,242.218,-2.635,-1.613,-1.576
-968.366,-110.067,241.453,-2.247,-1.518,-1.733
-967.224,-114.170,243.646,-1.741,-1.383,-1.756
-965.747,-120.412,243.400,-1.097,-1.243,-1.733
-962.585,-125.939,243.074,-0.149,-1.056,-1.622
-960.776,-129.568,242.706,1.174,-0.959,-1.421
-962.226,-129.964,242.063,2.706,-0.829,-1.165
-964.069,-130.808,243.874,3.985,-0.709,-0.739
-961.506,-132.453,245.396,4.794,-0.538,-0.244
-960.638,-127.396,248.784,5.630,-0.378,0.190
-960.665,-118.148,250.711,6.271,-0.277,0.589
-961.819,-108.641,251.602,5.921,0.003,0.921
-964.378,-101.001,253.236,4.524,0.155,1.333
-963.995,-96.499,251.594,2.545,0.142,1.823
-966.000,-96.000,249.000,0.350,0.210,2.240
-967.786,-99.466,247.104,-1.744,0.276,2.552
-969.625,-102.745,247.176,-3.380,0.247,2.758
-968.603,-107.026,244.609,-4.482,0.113,2.833
-965.895,-106.979,239.459,-4.870,0.046,2.743
-969.814,-102.050,239.652,-4.612,-0.060,2.766
-971.782,-98.197,241.091,-4.184,-0.244,2.892
-968.735,-95.969,241.020,-4.066,-0.278,2.943
-966.100,-97.792,241.081,-4.142,-0.277,2.948
-966.502,-99.697,239.271,-3.596,-0.339,2.732
-967.933,-101.400,239.480,-2.438,-0.356,2.429
-967.459,-101.544,239.434,-1.208,-0.363,2.087
-968.354,-99.128,237.481,-0.010,-0.489,1.779
-966.993,-102.927,241.677,1.086,-0.567,1.759
-963.749,-108.491,242.519,2.043,-0.563,1.644
-966.000,-108.000,239.000,3.290,-0.630,1.400
-971.436,-104.715,240.660,4.724,-0.641,1.332
-971.512,-98.359,242.238,5.480,-0.533,1.323
-966.372,-92.625,246.000,5.342,-0.401,1.395
-966.932,-95.365,248.698,4.311,-0.288,1.557
-967.034,-98.597,247.564,2.934,-0.170,1.606
-963.412,-97.666,248.195,2.100,-0.138,1.520
-965.305,-95.792,247.929,1.564,-0.059,1.551
-967.967,-92.261,247.065,0.774,0.067,1.737
-967.239,-90.105,246.132,-0.256,0.062,1.865
-966.578,-90.419,245.997,-1.179,0.159,1.991
-967.458,-91.869,245.139,-1.876,0.258,2.027
-967.802,-91.508,243.235,-2.367,0.307,1.903
-968.272,-91.179,242.832,-2.675,0.358,1.905
-970.351,-91.957,240.495,-2.893,0.350,1.870
-972.000,-90.000,238.000,-2.870,0.350,1.680
-972.156,-89.776,237.937,-2.582,0.235,1.555
-970.006,-90.894,238.065,-2.116,0.096,1.442
-966.969,-91.717,237.891,-1.628,0.025,1.290
-968.122,-94.575,237.829,-1.067,-0.027,1.036
-972.276,-94.085,236.091,-0.200,-0.111,0.731
-972.601,-90.197,235.034,0.671,-0.238,0.515
-970.951,-89.008,236.034,1.299,-0.361,0.338
-971.014,-89.009,235.097,1.663,-0.545,0.220
-970.237,-90.202,235.415,1.803,-0.729,0.003
-969.105,-93.287,238.139,1.865,-0.913,-0.287
-968.924,-90.007,239.962,1.942,-1.065,-0.395
-970.562,-85.907,241.910,1.887,-1.159,-0.449
-968.893,-87.703,243.103,1.314,-1.183,-0.500
-967.204,-89.405,241.614,0.609,-1.110,-0.483
-971.000,-96.000,239.000,0.140,-1.120,-0.420
-970.486,-101.175,238.777,-0.144,-1.182,-0.469
-968.105,-96.888,240.505,0.172,-1.238,-0.569
-967.882,-90.826,242.053,0.636,-1.305,-0.482
-967.731,-85.464,244.063,0.393,-1.360,-0.343
-967.888,-88.582,245.179,-0.564,-1.417,-0.103
-967.923,-97.950,244.769,-1.590,-1.380,0.092
-966.855,-103.301,242.818,-1.800,-1.249,0.065
-965.048,-105.994,241.887,-1.184,-1.127,0.005
-965.727,-101.979,244.555,-0.327,-1.062,-0.064
-965.891,-93.299,244.198,0.357,-1.002,-0.034
-966.840,-89.434,241.617,0.502,-0.968,0.043
-970.177,-91.390,242.894,0.167,-0.989,0.096
-968.962,-94.887,244.232,-0.139,-0.973,0.153
-965.710,-94.592,245.167,-0.207,-0.985,0.131
-967.000,-90.000,245.000,-0.140,-0.980,0.070
-970.757,-87.020,243.128,-0.290,-0.919,0.126
-969.268,-88.311,243.053,-0.767,-0.861,0.128
-966.627,-90.307,242.269,-1.151,-0.817,-0.088
-969.690,-91.565,242.285,-1.352,-0.889,-0.134
-968.675,-92.234,242.935,-1.397,-0.890,-0.194
-967.101,-93.208,241.821,-1.295,-0.841,-0.382
-969.083,-92.917,243.174,-1.022,-0.915,-0.422
-968.123,-92.860,244.066,-0.712,-0.914,-0.485
-967.766,-95.443,243.037,-0.690,-0.858,-0.501
-968.168,-98.087,243.161,-0.673,-0.747,-0.445
-966.767,-104.123,241.702,-0.543,-0.674,-0.393
-965.351,-107.695,238.554,-0.222,-0.719,-0.495
-966.588,-106.876,238.593,0.566,-0.686,-0.662
-968.035,-106.673,242.593,1.543,-0.708,-0.613
-967.000,-100.000,244.000,2.240,-0.700,-0.490
-966.896,-95.059,244.668,2.345,-0.630,-0.255
-967.130,-95.219,246.248,1.974,-0.644,0.005
-966.630,-95.172,244.556,1.453,-0.547,0.229
-967.073,-100.448,243.909,0.860,-0.452,0.476
-966.243,-105.165,243.839,0.311,-0.383,0.585
-964.738,-104.308,244.209,0.250,-0.254,0.651
-965.076,-98.474,245.035,0.500,-0.208,0.782
-965.933,-94.089,245.889,0.315,-0.147,0.965
-967.468,-93.454,246.402,-0.223,-0.073,1.153
-968.918,-91.149,244.199,-0.739,-0.077,1.291
-968.474,-91.806,244.374,-1.148,-0.032,1.378
-969.461,-91.091,242.407,-1.477,-0.004,1.405
-969.767,-90.423,239.599,-1.754,-0.104,1.398
-968.871,-94.674,240.000,-1.905,-0.137,1.401
-967.000,-97.000,239.000,-1.890,-0.140,1.400
-966.382,-96.445,239.824,-1.449,-0.203,1.403
-972.463,-91.315,239.578,-0.551,-0.250,1.322
-974.103,-83.847,237.987,0.157,-0.373,1.086
-971.746,-78.803,238.524,0.264,-0.432,0.895
-972.067,-80.749,241.053,-0.124,-0.419,0.809
-971.730,-87.338,241.651,-0.665,-0.411,0.647
-969.809,-90.094,238.849,-0.755,-0.347,0.323
-968.002,-90.993,238.936,-0.386,-0.410,0.018
-969.513,-89.026,238.995,0.147,-0.535,-0.178
-970.618,-85.071,240.157,0.582,-0.653,-0.241
-971.488,-87.617,240.756,0.265,-0.732,-0.149
-971.113,-95.947,237.540,-0.226,-0.653,-0.168
-968.176,-100.679,239.004,0.132,-0.651,-0.221
-968.119,-98.151,241.000,1.065,-0.794,-0.298
-968.000,-89.000,240.000,1.890,-0.910,-0.350
-969.383,-79.021,240.858,1.799,-0.914,-0.168
-973.404,-75.107,240.959,0.703,-0.937,-0.070
-973.234,-76.889,242.409,-0.692,-1.114,-0.069
-969.768,-84.044,244.464,-2.000,-1.235,-0.090
-967.340,-84.969,239.491,-2.647,-1.287,-0.180
-969.922,-80.180,237.333,-2.444,-1.443,-0.318
-973.092,-78.895,241.268,-2.400,-1.622,-0.504
-972.142,-77.000,242.945,-2.893,-1.745,-0.686
-971.024,-81.151,243.231,-3.508,-1.758,-0.868
-970.474,-88.275,241.445,-3.928,-1.740,-1.077
-968.192,-92.210,241.301,-3.653,-1.764,-1.389
-966.230,-94.878,241.896,-2.768,-1.721,-1.637
-967.634,-95.058,240.733,-1.697,-1.666,-1.789
-969.023,-97.567,241.034,-0.698,-1.596,-1.814
-968.000,-101.000,240.000,0.140,-1.540,-1.820
-967.924,-104.450,239.798,0.930,-1.547,-1.951
-967.077,-106.871,241.410,1.718,-1.439,-1.951
-962.888,-106.762,243.688,2.456,-1.375,-2.068
-962.351,-103.168,245.853,3.007,-1.422,-2.245
-966.591,-92.718,245.987,3.403,-1.371,-2.196
-969.214,-87.880,247.355,3.023,-1.323,-1.962
-968.969,-90.217,246.831,1.628,-1.251,-1.660
-969.005,-95.296,245.022,0.167,-1.127,-1.480
-967.679,-106.115,245.205,-0.843,-1.063,-1.401
-964.877,-108.957,243.030,-1.097,-1.000,-1.414
-966.224,-103.046,241.281,-0.671,-0.972,-1.333
-968.425,-97.458,243.088,-0.312,-0.984,-1.199
-967.520,-93.147,245.725,-0.564,-0.979,-0.946
-966.991,-95.926,247.070,-1.228,-0.978,-0.585
-966.000,-103.000,246.000,-1.820,-0.910,-0.420
-963.254,-109.099,242.585,-1.880,-0.787,-0.298
-963.824,-114.242,239.918,-1.215,-0.708,-0.220
-967.414,-113.923,241.904,-0.107,-0.702,-0.200
-966.380,-106.033,246.031,1.150,-0.676,-0.230
-963.017,-96.696,246.634,1.848,-0.613,-0.153
-966.158,-91.082,244.547,1.847,-0.640,0.033
-970.149,-90.117,244.021,1.343,-0.626,0.070
-970.094,-93.683,244.040,0.600,-0.625,0.071
-968.429,-96.059,243.257,0.361,-0.695,0.022
-967.219,-95.224,241.658,0.236,-0.693,-0.088
-969.693,-94.491,240.759,0.008,-0.737,-0.226
-970.533,-90.632,243.310,-0.140,-0.790,-0.306
-968.451,-86.191,243.641,-0.359,-0.876,-0.384
-969.263,-88.797,243.135,-0.792,-0.993,-0.504
-970.000,-94.000,244.000,-1.470,-1.050,-0.560
-969.920,-96.775,241.412,-1.648,-1.114,-0.624
-970.171,-97.221,240.057,-1.262,-1.121,-0.632
-969.192,-97.020,239.704,-0.813,-1.124,-0.634
-968.137,-99.510,241.242,-0.455,-1.105,-0.617
-966.121,-99.164,243.207,-0.146,-1.162,-0.669
-967.785,-96.858,241.735,0.320,-1.273,-0.788
-969.920,-100.433,243.150,0.561,-1.261,-0.765
-965.404,-105.664,242.256,0.429,-1.385,-0.705
-963.402,-110.488,240.527,0.525,-1.485,-0.601
-965.987,-117.757,243.355,1.183,-1.370,-0.377
-963.366,-120.165,244.122,2.179,-1.309,-0.175
-960.040,-110.305,246.740,3.348,-1.362,-0.094
-963.044,-101.475,251.034,4.107,-1.400,0.307
-962.511,-102.307,251.944,3.549,-1.310,0.733
-961.000,-102.000,251.000,2.520,-1.190,0.770
-965.435,-102.502,251.697,2.087,-1.073,1.002
-966.368,-104.756,252.172,1.503,-0.899,1.190
-966.300,-99.466,246.811,0.863,-0.710,1.200
-969.514,-93.279,245.318,0.687,-0.552,1.364
-969.043,-91.330,249.420,-0.031,-0.463,1.520
-966.549,-88.197,249.665,-1.138,-0.407,1.639
-967.170,-87.096,247.885,-1.869,-0.344,1.757
-968.994,-89.763,247.013,-2.480,-0.222,1.757
-967.448,-93.053,247.101,-2.833,-0.088,1.635
-966.882,-97.177,245.381,-2.916,-0.027,1.531
-969.435,-96.953,241.740,-2.624,0.051,1.326
-969.174,-90.904,241.570,-1.867,0.051,1.096
-967.766,-85.600,244.963,-1.249,-0.011,0.925
-969.374,-81.379,244.562,-0.953,-0.002,0.747
-971.000,-80.000,241.000,-0.980,-0.140,0.630
-971.030,-86.575,239.224,-1.234,-0.332,0.396
-970.372,-94.111,237.481,-1.187,-0.442,0.130
-969.401,-94.765,236.567,-0.531,-0.623,-0.052
-970.399,-93.311,238.037,0.481,-0.764,-0.247
-968.688,-92.987,241.233,1.175,-0.906,-0.393
-966.953,-94.646,243.246,1.343,-1.082,-0.418
-968.019,-98.260,244.083,1.408,-1.119,-0.422
-966.206,-100.824,244.979,1.530,-1.118,-0.426
-964.826,-103.423,244.991,1.652,-1.127,-0.261
-966.085,-105.006,244.572,1.774,-1.073,-0.064
-967.737,-104.620,243.180,1.896,-1.037,0.114
-967.166,-102.850,245.717,1.995,-1.062,0.260
-965.721,-98.599,248.177,1.900,-1.032,0.292
-967.464,-95.767,246.789,1.542,-0.973,0.455
-970.000,-95.000,246.000,0.980,-0.910,0.630
-967.811,-95.670,245.698,0.196,-0.784,0.689
-962.618,-97.798,249.174,-0.502,-0.759,0.764
-963.353,-97.431,249.026,-0.762,-0.756,0.735
-968.439,-96.921,244.963,-0.745,-0.618,0.685
-969.802,-96.727,243.338,-0.663,-0.552,0.708
-968.721,-95.985,240.240,-0.519,-0.560,0.700
-969.142,-97.064,239.007,-0.253,-0.562,0.779
-971.809,-95.327,239.005,0.232,-0.625,0.785
-973.093,-90.801,240.256,0.904,-0.643,0.445
-971.322,-88.019,243.339,1.395,-0.573,0.124
-966.842,-84.824,244.399,1.504,-0.582,0.011
-964.353,-82.169,245.583,1.623,-0.668,-0.163
-966.980,-83.943,245.810,1.914,-0.710,-0.307
-969.195,-85.998,244.913,2.223,-0.787,-0.365
-970.000,-82.000,245.000,2.660,-0.910,-0.560
-970.877,-76.349,245.817,2.894,-0.976,-0.700
-970.718,-77.490,246.864,2.425,-0.982,-0.681
-967.236,-82.626,246.958,1.559,-0.981,-0.817
-965.409,-88.202,247.000,0.841,-0.961,-0.975
-965.509,-96.168,246.875,0.445,-0.874,-0.969
-962.199,-101.825,247.092,0.361,-0.840,-0.995
-963.341,-102.991,246.932,0.668,-0.839,-1.051
-966.957,-101.267,246.019,1.224,-0.837,-0.990
-965.995,-97.551,246.110,1.437,-0.856,-0.821
-967.674,-96.673,245.046,1.107,-0.738,-0.582
-969.223,-97.431,246.446,0.594,-0.715,-0.368
-965.827,-98.845,250.845,0.181,-0.786,-0.202
-962.033,-99.880,251.948,-0.061,-0.636,-0.011
-962.425,-96.303,250.660,-0.237,-0.474,0.170
-966.000,-94.000,247.000,-0.420,-0.420,0.420
-966.162,-95.677,245.696,-0.711,-0.420,0.615
-965.836,-97.536,247.895,-1.099,-0.381,0.720
-965.467,-98.468,246.916,-1.286,-0.291,0.881
-964.817,-96.472,244.966,-1.155,-0.285,0.903
-968.647,-92.294,243.555,-0.882,-0.270,0.938
-971.018,-88.093,244.298,-0.886,-0.295,0.974
-969.946,-86.001,243.831,-1.380,-0.352,0.907
-970.002,-88.667,242.008,-2.055,-0.349,0.911
-969.227,-91.936,242.277,-2.398,-0.402,0.814
-969.036,-89.902,240.210,-2.062,-0.468,0.591
-971.318,-84.668,241.318,-1.481,-0.527,0.326
-971.242,-79.970,243.447,-1.317,-0.595,0.143
-969.763,-77.873,242.879,-1.446,-0.772,0.036
-971.273,-82.067,242.855,-1.657,-1.006,-0.091
-971.000,-90.000,240.000,-2.100,-1.050,-0.280
-970.700,-94.765,238.874,-2.123,-1.101,-0.583
-972.275,-93.619,239.709,-1.147,-1.228,-0.880
-970.269,-86.764,241.482,-0.071,-1.337,-1.213
-970.142,-79.650,243.859,0.337,-1.473,-1.391
-968.489,-80.894,241.901,-0.018,-1.579,-1.412
-964.355,-93.633,241.044,-0.906,-1.714,-1.487
-966.366,-107.785,239.747,-1.238,-1.826,-1.547
-970.829,-111.197,236.957,-0.192,-1.886,-1.731
-969.368,-105.852,241.948,1.384,-1.899,-1.936
-962.970,-96.004,250.038,2.385,-1.872,-1.952
-962.727,-83.265,253.573,2.672,-1.942,-1.700
-965.967,-81.698,253.571,1.813,-1.928,-1.273
-965.582,-96.006,251.116,0.121,-1.764,-0.988
-965.012,-107.001,248.632,-0.733,-1.584,-0.907
-966.000,-110.000,246.000,-0.280,-1.470,-0.910
-967.145,-107.950,246.434,0.529,-1.472,-0.858
-964.176,-100.301,250.351,0.999,-1.386,-0.698
-961.957,-93.906,251.407,0.958,-1.197,-0.462
-963.889,-91.077,253.175,0.205,-1.047,-0.223
-963.262,-95.598,253.456,-0.906,-0.941,0.032
-963.240,-102.093,250.243,-1.671,-0.800,0.244
-965.131,-104.027,247.845,-1.883,-0.619,0.278
-965.999,-101.480,246.915,-1.450,-0.560,0.276
-965.302,-94.175,249.458,-0.937,-0.564,0.382
-963.960,-92.289,249.811,-1.116,-0.524,0.533
-964.126,-93.952,247.988,-1.678,-0.416,0.561
-965.592,-96.697,247.912,-1.963,-0.311,0.584
-967.432,-101.043,246.434,-1.803,-0.266,0.630
-967.977,-102.085,246.099,-1.399,-0.202,0.547
-967.000,-103.000,246.000,-0.840,-0.210,0.560
-965.907,-100.633,243.380,-0.164,-0.217,0.569
-968.061,-97.914,242.000,0.292,-0.191,0.541
-969.493,-98.757,242.009,0.395,-0.293,0.595
-968.121,-98.794,241.925,0.495,-0.408,0.462
-969.798,-96.904,241.809,0.716,-0.559,0.303
-970.937,-91.481,240.789,0.866,-0.733,0.170
-971.093,-84.455,242.265,0.905,-0.850,-0.010
-972.059,-78.291,245.838,0.545,-1.034,-0.067
-969.681,-78.682,246.201,-0.431,-1.224,-0.128
-967.268,-85.488,245.348,-1.522,-1.363,-0.140
-966.464,-91.349,243.937,-2.060,-1.436,-0.209
-967.627,-95.708,242.380,-1.875,-1.530,-0.486
-969.198,-95.070,241.858,-1.377,-1.751,-0.668
-968.918,-90.312,242.207,-0.827,-1.908,-0.795
-968.000,-88.000,245.000,-0.490,-2.030,-0.980
-966.916,-89.492,248.446,-0.709,-2.105,-1.108
-968.093,-93.553,251.690,-0.991,-2.040,-1.171
-965.268,-98.201,250.247,-0.755,-2.062,-1.238
-961.378,-101.094,245.958,-0.128,-2.120,-1.250
-964.739,-100.757,246.866,0.503,-2.075,-1.139
-968.343,-102.782,249.583,0.913,-2.019,-1.029
-966.748,-103.799,252.163,1.135,-1.952,-0.980
-964.045,-98.404,252.140,1.319,-1.769,-1.044
-965.510,-95.912,251.468,1.320,-1.521,-1.021
-965.285,-96.549,254.396,0.911,-1.298,-0.823
-961.788,-98.380,254.559,0.400,-0.990,-0.712
-962.988,-100.981,253.572,0.102,-0.763,-0.518
-965.442,-102.737,250.596,-0.042,-0.661,-0.300
-966.055,-106.475,246.786,-0.247,-0.461,-0.190
-966.000,-105.000,249.000,-0.350,-0.420,-0.000
-965.170,-99.602,250.922,-0.105,-0.492,0.129
-963.551,-96.174,251.648,-0.102,-0.436,0.228
-962.681,-92.863,252.247,-0.539,-0.414,0.413
-965.437,-94.753,251.460,-1.034,-0.422,0.560
-965.094,-97.636,250.594,-1.490,-0.420,0.678
-964.125,-98.259,249.954,-1.697,-0.419,0.788
-966.101,-100.080,249.931,-1.594,-0.421,0.763
-965.187,-99.126,247.246,-1.346,-0.421,0.699
-963.126,-99.378,246.389,-1.253,-0.414,0.759
-964.113,-101.441,249.046,-1.224,-0.463,0.742
-969.096,-98.635,246.722,-0.856,-0.528,0.625
-970.640,-93.826,242.357,-0.502,-0.588,0.501
-968.365,-89.971,244.459,-0.410,-0.649,0.401
-967.900,-89.198,250.839,-0.531,-0.707,0.429
-965.000,-92.000,252.000,-0.980,-0.700,0.420
-963.504,-93.810,249.240,-1.272,-0.636,0.241
-968.696,-95.463,248.386,-0.938,-0.625,0.090
-969.271,-96.021,246.517,-0.460,-0.659,0.035
-964.397,-93.717,246.472,-0.299,-0.752,-0.046
-966.488,-95.268,248.545,-0.276,-0.749,-0.065
-968.892,-98.208,247.530,-0.272,-0.700,-0.088
-966.926,-94.535,245.930,-0.040,-0.777,-0.218
-967.897,-89.244,245.914,0.336,-0.838,-0.217
-968.116,-87.947,248.245,0.237,-0.848,-0.144
-967.451,-88.435,250.748,-0.267,-0.789,-0.143
-964.675,-90.769,250.618,-0.846,-0.771,-0.130
-962.714,-94.529,249.003,-1.280,-0.731,-0.178
-967.900,-94.603,246.200,-1.281,-0.602,-0.329
-971.024,-94.132,246.243,-1.014,-0.642,-0.429
-969.000,-95.000,247.000,-0.980,-0.630,-0.490
-967.981,-92.379,245.136,-1.059,-0.617,-0.615
-967.107,-93.125,246.077,-0.969,-0.699,-0.646
-962.365,-100.209,249.023,-1.117,-0.684,-0.610
-961.127,-104.672,250.146,-1.098,-0.743,-0.674
-965.728,-104.658,247.725,-0.350,-0.765,-0.689
-968.136,-102.175,245.914,0.525,-0.784,-0.612
-968.005,-97.670,247.111,1.000,-0.841,-0.556
-968.894,-95.083,247.969,1.058,-0.837,-0.494
-969.387,-94.178,248.079,0.855,-0.900,-0.484
-966.165,-94.608,247.749,0.370,-0.908,-0.496
-964.304,-98.751,248.649,-0.154,-0.947,-0.503
-967.653,-99.410,248.656,-0.312,-0.974,-0.629
-968.428,-96.034,247.963,-0.389,-0.879,-0.710
-964.462,-95.017,249.252,-0.595,-0.839,-0.696
-965.000,-96.000,250.000,-0.840,-0.840,-0.630
-969.544,-97.815,248.394,-1.092,-0.841,-0.553
-969.920,-98.137,246.224,-1.160,-0.834,-0.705
-966.106,-97.630,245.990,-0.938,-0.878,-0.847
-964.841,-95.320,245.923,-0.571,-0.942,-0.808
-968.144,-92.236,248.368,-0.405,-1.008,-0.745
-967.013,-95.193,251.177,-0.632,-1.054,-0.697
-962.874,-100.302,248.745,-0.845,-1.050,-0.779
-964.737,-102.866,247.014,-0.722,-1.052,-0.842
-966.900,-104.009,247.024,-0.370,-0.993,-0.782
-966.821,-102.977,246.939,0.005,-0.973,-0.763
-966.823,-99.943,246.878,0.365,-0.980,-0.778
-966.826,-96.478,247.460,0.680,-1.000,-0.747
-966.900,-94.624,249.680,0.645,-1.063,-0.687
-965.677,-93.937,251.205,0.275,-1.045,-0.706
-963.000,-95.000,253.000,-0.420,-1.050,-0.700
-963.463,-99.305,253.316,-1.131,-1.000,-0.687
-966.769,-102.564,250.104,-1.241,-0.867,-0.814
-965.700,-103.660,247.282,-1.040,-0.824,-0.820
-964.519,-103.862,247.198,-0.713,-0.874,-0.726
-964.965,-102.474,248.560,-0.405,-0.918,-0.674
-964.857,-103.567,250.406,-0.460,-0.908,-0.518
-963.944,-106.149,250.932,-0.638,-0.909,-0.419
-964.827,-107.842,249.113,-0.579,-0.845,-0.423
-965.603,-109.799,249.438,-0.235,-0.834,-0.319
-962.140,-109.916,251.700,0.181,-0.785,-0.140
-963.335,-110.672,251.278,0.627,-0.552,0.044
-964.887,-110.126,248.739,0.978,-0.490,0.210
-963.808,-105.429,248.362,1.165,-0.471,0.299
-965.313,-101.442,251.461,1.170,-0.419,0.363
-967.000,-97.000,252.000,0.840,-0.420,0.490
-967.248,-94.017,251.010,0.305,-0.353,0.616
-965.153,-95.298,250.576,-0.357,-0.398,0.686
-965.944,-97.712,248.418,-0.942,-0.428,0.713
-966.964,-100.086,248.177,-1.257,-0.437,0.666
-967.180,-99.227,249.584,-1.339,-0.512,0.622
-967.652,-98.024,251.236,-1.335,-0.472,0.628
-963.719,-99.015,249.763,-1.404,-0.418,0.551
-963.759,-97.194,247.121,-1.343,-0.418,0.489
-966.674,-97.062,245.484,-1.200,-0.470,0.548
-967.021,-102.343,244.307,-1.177,-0.574,0.565
-966.273,-104.399,246.185,-0.867,-0.724,0.580
-965.660,-101.643,245.040,-0.124,-0.758,0.666
-966.120,-101.061,245.617,0.512,-0.693,0.574
-967.283,-99.526,245.624,0.886,-0.786,0.410
-969.000,-98.000,244.000,1.050,-0.770,0.490
-967.404,-103.941,246.932,1.040,-0.753,0.450
-965.862,-107.502,244.625,1.262,-0.850,0.287
-966.137,-105.078,245.661,1.752,-0.751,0.299
-964.898,-102.476,249.494,2.121,-0.685,0.227
-963.474,-98.474,250.632,2.142,-0.706,0.246
-964.288,-96.781,253.339,1.993,-0.692,0.370
-964.976,-93.587,251.877,1.804,-0.624,0.427
-964.057,-88.281,253.689,1.622,-0.623,0.552
-963.909,-86.139,255.507,1.339,-0.703,0.615
-964.308,-87.465,252.616,0.405,-0.642,0.723
-966.010,-95.956,251.532,-0.722,-0.664,0.792
-966.963,-103.720,250.099,-1.122,-0.695,0.759
-967.056,-104.829,248.831,-0.721,-0.595,0.767
-966.728,-102.523,250.431,-0.059,-0.468,0.687
-963.000,-100.000,253.000,0.070,-0.350,0.700
-961.717,-99.915,252.293,-0.122,-0.352,0.764
-964.209,-100.665,250.554,-0.194,-0.263,0.854
-966.599,-101.085,248.145,-0.208,-0.110,1.022
-968.588,-97.808,246.623,-0.014,-0.035,1.062
-966.651,-95.675,249.068,0.043,0.013,1.183
-964.952,-94.224,249.857,-0.198,-0.013,1.255
-967.239,-88.582,248.969,-0.361,-0.073,1.187
-969.026,-85.995,249.003,-0.662,-0.073,1.192
-967.355,-87.345,248.372,-1.215,-0.060,1.087
-967.533,-90.709,246.068,-1.575,-0.121,0.950
-970.367,-93.552,243.538,-1.572,-0.165,0.838
-968.274,-96.604,242.812,-1.348,-0.269,0.728
-967.149,-99.637,243.269,-1.005,-0.372,0.695
-967.843,-99.935,245.374,-0.549,-0.432,0.707
-965.000,-98.000,246.000,0.070,-0.490,0.770
-966.312,-93.424,244.071,0.584,-0.484,0.714
-969.880,-93.454,245.334,0.751,-0.588,0.683
-968.650,-93.111,246.320,0.819,-0.684,0.695
-967.512,-88.945,245.974,0.813,-0.726,0.536
-968.003,-89.759,247.477,0.603,-0.795,0.498
-967.833,-89.545,246.627,0.375,-0.855,0.466
-966.916,-88.015,247.207,0.194,-0.912,0.345
-966.015,-89.830,249.918,-0.110,-0.910,0.349
-966.729,-91.606,249.362,-0.493,-0.916,0.305
-966.624,-93.476,247.701,-0.657,-0.859,0.186
-964.674,-93.825,245.919,-0.520,-0.860,0.083
-965.660,-92.467,246.793,-0.379,-0.935,0.091
-967.252,-93.609,247.970,-0.458,-0.886,0.151
-968.170,-95.105,246.972,-0.475,-0.837,0.137
-968.000,-95.000,249.000,-0.280,-0.840,0.140
-965.281,-93.452,250.133,-0.098,-0.844,0.086
-964.774,-90.411,249.110,0.097,-0.788,0.001
-965.309,-91.059,248.955,0.111,-0.762,0.042
-966.706,-95.386,248.979,-0.134,-0.757,0.065
-968.483,-96.884,248.626,-0.030,-0.661,-0.055
-970.243,-92.655,246.447,0.464,-0.632,-0.155
-967.537,-87.776,246.111,0.700,-0.627,-0.216
-962.082,-86.992,247.919,0.453,-0.564,-0.278
-966.221,-86.910,248.097,-0.027,-0.551,-0.276
-971.613,-88.236,247.427,-0.454,-0.606,-0.351
-970.931,-89.059,246.145,-0.673,-0.662,-0.542
-968.666,-87.214,246.312,-0.901,-0.750,-0.675
-966.453,-88.941,246.986,-1.325,-0.870,-0.707
-967.367,-91.125,245.782,-1.542,-0.918,-0.788
-970.000,-91.000,245.000,-1.330,-1.050,-0.910
-970.248,-90.279,244.216,-1.021,-1.183,-1.025
-968.270,-88.227,242.969,-0.805,-1.225,-1.210
-968.298,-89.199,244.341,-0.776,-1.363,-1.340
-968.698,-92.965,247.530,-0.919,-1.382,-1.512
-967.484,-93.834,247.569,-0.817,-1.313,-1.775
-968.065,-92.938,247.099,-0.389,-1.342,-1.907
-965.675,-94.094,248.022,-0.130,-1.407,-1.966
-962.937,-93.213,247.098,0.046,-1.529,-2.088
-966.751,-91.584,246.795,0.423,-1.655,-2.226
-970.113,-95.207,247.308,0.536,-1.742,-2.238
-968.219,-99.211,246.030,0.463,-1.721,-2.295
-965.945,-102.580,247.045,0.715,-1.663,-2.435
-964.489,-103.709,251.093,1.101,-1.691,-2.443
-964.116,-99.102,251.990,1.537,-1.670,-2.455
-965.000,-95.000,254.000,1.680,-1.610,-2.450
-963.243,-96.457,256.334,1.045,-1.611,-2.441
-963.855,-99.051,251.526,0.281,-1.567,-2.512
-967.168,-98.081,248.754,-0.045,-1.489,-2.489
-967.851,-98.651,248.745,-0.285,-1.444,-2.408
-967.880,-98.312,247.858,-0.610,-1.380,-2.381
-967.955,-95.456,249.298,-0.799,-1.417,-2.488
-967.984,-93.831,248.951,-0.923,-1.473,-2.673
-966.251,-91.096,250.693,-1.165,-1.534,-2.794
-963.267,-93.545,253.894,-1.569,-1.557,-2.856
-963.235,-99.479,252.815,-2.008,-1.507,-2.972
-964.874,-103.015,250.509,-2.087,-1.615,-3.329
-966.456,-106.160,247.496,-1.581,-1.542,-3.755
-966.980,-103.115,245.727,-0.568,-1.488,-4.084
-966.979,-94.801,246.161,0.396,-1.625,-4.282
-966.000,-91.000,248.000,0.770,-1.680,-4.200
-965.748,-94.900,249.142,0.559,-1.863,-4.125
-967.191,-103.187,247.356,0.124,-1.952,-4.180
-965.072,-111.935,247.656,0.238,-2.028,-4.268
-962.965,-116.906,250.335,1.059,-2.155,-4.425
-963.173,-116.357,250.882,2.059,-2.181,-4.489
-965.457,-114.644,251.377,2.890,-2.256,-4.470
-963.603,-112.834,255.371,3.223,-2.234,-4.321
-959.060,-111.062,258.032,2.974,-2.173,-4.015
-961.347,-111.527,256.875,2.497,-2.121,-3.662
-961.666,-114.066,259.074,1.911,-2.010,-3.268
-960.256,-115.498,259.185,1.090,-1.880,-3.025
-961.418,-114.469,255.574,0.449,-1.785,-2.848
-961.972,-115.824,256.608,-0.167,-1.734,-2.567
-960.615,-119.633,256.896,-1.213,-1.671,-2.263
-958.000,-124.000,258.000,-1.820,-1.610,-1.960
-957.919,-124.701,260.141,-1.603,-1.543,-1.712
-958.413,-117.866,257.672,-1.244,-1.583,-1.488
-961.334,-114.914,256.469,-1.239,-1.633,-1.156
-962.921,-117.260,254.257,-1.650,-1.569,-0.798
-961.861,-118.481,251.283,-1.978,-1.535,-0.534
-966.068,-120.216,252.294,-2.021,-1.543,-0.308
-966.824,-117.658,251.912,-1.789,-1.538,-0.287
-964.156,-114.974,251.905,-1.352,-1.476,-0.351
-961.752,-116.649,252.931,-1.349,-1.414,-0.334
-959.255,-116.897,253.366,-1.389,-1.346,-0.476
-962.419,-112.964,255.145,-0.650,-1.350,-0.702
-965.933,-105.605,256.425,0.184,-1.426,-0.955
-965.425,-103.062,257.042,0.291,-1.375,-1.055
-962.543,-106.857,255.702,-0.332,-1.325,-1.059
-962.000,-115.000,255.000,-0.980,-1.260,-1.190
-965.607,-123.358,255.225,-0.864,-1.196,-1.368
-965.225,-124.385,253.219,-0.028,-1.108,-1.535
-960.987,-123.741,253.923,0.892,-0.932,-1.462
-959.126,-124.280,255.646,1.455,-0.926,-1.364
-958.898,-125.952,256.257,1.952,-0.864,-1.279
-960.331,-129.987,257.011,2.390,-0.756,-1.073
-959.806,-133.133,255.918,2.772,-0.691,-0.896
-957.074,-132.265,256.777,3.573,-0.565,-0.652
-958.400,-127.978,260.261,4.132,-0.563,-0.310
-959.353,-123.775,262.582,3.825,-0.480,0.166
-958.306,-119.691,263.376,3.090,-0.342,0.612
-959.176,-122.385,264.452,2.098,-0.205,1.059
-956.848,-128.209,262.981,1.026,-0.020,1.539
-956.507,-127.720,258.431,0.448,0.085,1.954
-962.000,-127.000,258.000,0.420,0.210,2.380
-961.675,-126.238,259.071,0.216,0.328,2.744
-957.493,-125.087,258.165,-0.346,0.506,3.117
-957.205,-124.635,257.927,-0.667,0.624,3.400
-958.028,-122.817,257.966,-0.722,0.647,3.629
-958.084,-119.399,257.699,-0.798,0.735,3.861
-962.260,-113.457,255.274,-0.736,0.777,4.029
-966.079,-107.689,254.101,-0.635,0.847,4.213
-964.243,-106.852,256.849,-1.004,0.908,4.336
-962.001,-108.373,255.955,-1.507,0.958,4.308
-963.819,-103.843,251.419,-1.314,1.044,4.087
-968.963,-97.369,248.346,-0.578,1.022,3.846
-968.649,-95.892,248.635,-0.199,0.946,3.584
-965.288,-97.763,251.930,-0.449,0.904,3.384
-966.298,-98.811,251.638,-0.341,0.910,3.168
-967.000,-94.000,250.000,0.560,0.840,2.730
-965.377,-91.529,252.587,1.178,0.710,2.527
-963.085,-97.024,252.975,0.960,0.696,2.443
-964.648,-102.426,249.212,0.752,0.675,2.210
-968.707,-104.905,247.530,1.287,0.565,1.973
-967.969,-102.134,248.304,2.126,0.444,1.730
-965.516,-95.603,249.332,2.564,0.321,1.594
-965.051,-93.025,252.273,2.342,0.202,1.616
-965.990,-96.497,254.072,1.671,0.140,1.739
-964.580,-104.895,251.615,0.865,0.190,1.867
-962.717,-112.034,249.941,0.390,0.266,1.944
-963.150,-113.075,250.556,0.661,0.286,1.986
-962.030,-113.030,253.757,1.062,0.273,2.098
-960.658,-110.713,256.149,1.228,0.295,2.311
-961.314,-105.322,253.468,1.245,0.357,2.562
-965.000,-104.000,251.000,0.980,0.350,2.870
-966.308,-103.349,249.110,0.563,0.348,3.176
-964.009,-100.775,250.762,0.074,0.315,3.438
-965.454,-97.814,253.105,-0.386,0.210,3.595
-967.662,-94.262,250.170,-0.977,0.251,3.703
-967.832,-94.528,250.679,-1.640,0.265,3.810
-967.948,-94.649,250.481,-2.131,0.207,3.752
-968.052,-91.799,247.870,-2.467,0.288,3.634
-968.977,-90.917,246.203,-2.584,0.348,3.577
-968.249,-93.331,243.958,-2.669,0.401,3.373
-968.033,-93.997,245.413,-2.358,0.447,2.962
-970.287,-86.653,245.925,-1.373,0.341,2.571
-970.336,-79.042,246.459,-0.511,0.251,2.207
-968.587,-74.870,246.790,-0.269,0.174,1.878
-970.566,-74.483,245.943,-0.564,-0.037,1.731
-973.000,-82.000,244.000,-1.120,-0.210,1.470
-970.492,-90.001,239.161,-1.192,-0.267,1.039
-968.285,-95.806,242.339,-0.404,-0.422,0.715
-967.165,-97.614,244.624,0.679,-0.605,0.445
-966.746,-96.884,241.335,1.539,-0.626,0.291
-966.545,-101.049,243.301,2.076,-0.649,0.283
-964.308,-104.175,246.635,2.689,-0.714,0.277
-961.876,-101.688,249.186,3.486,-0.775,0.283
-961.866,-97.310,250.925,3.975,-0.837,0.403
-964.401,-94.334,251.205,3.886,-0.846,0.651
-966.206,-93.356,249.582,3.283,-0.799,0.775
-968.327,-91.808,248.953,2.583,-0.727,0.754
-970.334,-87.819,250.965,1.750,-0.677,0.802
-967.683,-82.278,252.261,0.745,-0.613,0.845
-964.908,-77.300,253.148,-0.226,-0.643,0.840
-967.000,-74.000,254.000,-1.400,-0.700,0.840
-968.164,-75.387,254.144,-2.731,-0.640,0.731
-966.893,-79.245,252.061,-4.026,-0.582,0.493
-968.397,-81.424,248.441,-4.737,-0.504,0.286
-970.681,-85.328,245.622,-4.640,-0.514,0.105
-968.441,-86.684,245.068,-4.215,-0.573,-0.208
-965.758,-83.249,246.223,-3.432,-0.555,-0.564
-968.283,-83.144,245.897,-2.608,-0.561,-0.866
-969.203,-84.924,244.126,-2.010,-0.561,-1.294
-966.136,-85.749,243.092,-1.202,-0.553,-1.683
-967.617,-86.750,242.421,-0.228,-0.636,-2.002
-969.520,-87.596,241.498,0.699,-0.796,-2.458
-967.846,-90.590,242.705,1.403,-0.856,-2.791
-966.884,-91.737,242.586,1.920,-0.959,-3.137
-968.354,-88.451,242.268,2.634,-1.147,-3.551
-970.000,-86.000,246.000,3.080,-1.330,-3.710
-969.900,-83.381,247.079,2.816,-1.580,-3.716
-970.987,-83.424,247.443,2.105,-1.678,-3.654
-969.246,-90.067,248.858,1.128,-1.708,-3.660
-967.156,-94.683,249.137,0.306,-1.796,-3.784
-968.144,-95.068,250.429,-0.140,-1.823,-3.864
-966.270,-96.336,249.515,-0.524,-1.819,-3.728
-965.084,-97.040,247.973,-1.096,-1.821,-3.486
-966.953,-99.591,248.873,-1.583,-1.821,-3.368
-965.012,-105.836,250.654,-1.891,-1.816,-3.203
-960.692,-108.741,251.267,-2.139,-1.833,-2.968
-959.730,-110.321,250.569,-2.150,-1.757,-2.688
-962.230,-115.466,251.603,-2.021,-1.617,-2.403
-963.977,-116.480,251.767,-1.562,-1.514,-2.293
-961.682,-112.311,250.956,-0.882,-1.465,-2.222
-964.000,-108.000,251.000,-0.350,-1.400,-2.030
-968.843,-102.016,250.174,-0.016,-1.329,-1.836
-967.562,-96.202,249.138,-0.105,-1.381,-1.804
-966.288,-93.651,249.625,-0.568,-1.432,-1.865
-964.890,-95.364,252.575,-1.367,-1.541,-1.917
-965.726,-97.338,252.250,-2.022,-1.624,-2.000
-966.336,-97.094,251.102,-2.386,-1.604,-2.130
-959.513,-100.337,253.125,-2.508,-1.528,-2.251
-959.542,-102.942,253.068,-2.071,-1.339,-2.436
-966.021,-104.815,252.323,-1.676,-1.369,-2.483
-967.664,-111.356,249.528,-1.294,-1.434,-2.329
-963.980,-117.445,246.509,-0.555,-1.340,-2.326
-958.835,-121.737,248.130,0.602,-1.342,-2.254
-959.959,-123.047,250.652,2.166,-1.303,-2.153
-963.379,-123.025,252.145,3.456,-1.168,-2.079
-965.000,-122.000,252.000,4.410,-1.050,-1.890
-966.022,-119.266,251.097,5.223,-0.935,-1.819
-965.157,-117.359,250.792,5.679,-0.750,-1.861
-965.330,-111.441,252.410,5.760,-0.644,-1.934
-965.494,-108.532,255.475,5.418,-0.589,-1.744
-962.698,-113.231,255.649,4.470,-0.417,-1.444
-962.018,-119.492,254.946,3.339,-0.239,-1.298
-960.775,-125.313,254.977,2.785,-0.060,-1.103
-958.051,-125.299,254.092,2.913,-0.063,-0.864
-959.466,-120.122,253.091,3.258,-0.093,-0.420
-960.237,-116.977,253.362,3.118,0.005,0.234
-959.660,-117.373,254.884,2.331,-0.050,0.858
-962.498,-116.037,254.285,1.405,-0.059,1.314
-965.540,-114.932,252.688,0.598,-0.097,1.750
-964.589,-113.401,253.106,-0.189,-0.132,2.151
-961.000,-107.000,253.000,-0.910,-0.070,2.450
-959.055,-103.922,254.370,-1.730,-0.194,2.818
-958.944,-105.395,258.644,-2.880,-0.178,3.090
-959.845,-107.280,256.298,-3.749,-0.109,3.257
-965.020,-108.540,249.863,-3.718,-0.170,3.288
-968.115,-109.153,249.230,-3.106,-0.093,3.318
-965.243,-106.943,248.586,-2.534,0.021,3.344
-966.348,-99.369,248.125,-1.823,0.071,3.132
-970.867,-93.290,250.841,-1.020,0.069,2.953
-969.059,-90.440,251.253,-0.907,0.123,2.720
-965.136,-89.855,250.135,-1.279,0.156,2.541
-965.597,-94.572,250.025,-1.535,0.124,2.453
-967.634,-103.005,249.071,-1.622,0.169,2.145
-967.692,-109.395,244.523,-1.148,0.229,1.780
-967.031,-109.611,244.588,0.344,0.286,1.416
-968.000,-104.000,249.000,1.960,0.280,1.120
-966.447,-96.032,248.231,2.903,0.335,0.871
-964.696,-91.440,248.398,3.413,0.375,0.798
-965.850,-91.152,249.842,3.169,0.287,0.954
-964.861,-93.588,249.976,2.559,0.295,0.965
-963.772,-97.573,249.756,2.175,0.250,1.036
-965.368,-102.232,248.713,1.810,0.211,1.228
-965.976,-109.676,246.790,1.517,0.207,1.337
-965.077,-117.587,244.114,1.264,0.203,1.400
-964.785,-120.022,243.942,1.623,0.331,1.344
-965.675,-120.275,243.017,2.520,0.351,1.350
-965.714,-122.608,240.145,3.160,0.403,1.508
-966.108,-124.484,238.555,3.885,0.561,1.697
-965.236,-119.019,241.533,5.138,0.646,1.871
-961.439,-104.926,247.886,6.638,0.618,2.067
-959.000,-98.000,252.000,7.140,0.560,2.380
-957.849,-96.200,256.397,6.671,0.624,2.746
-961.260,-98.700,257.320,5.989,0.623,2.971
-965.723,-101.765,251.874,5.408,0.712,2.693
-968.353,-81.835,249.582,6.195,0.768,2.494
-971.749,-67.638,251.694,6.600,0.684,2.919
-968.824,-70.696,248.500,4.583,0.801,3.060
-968.379,-72.298,241.691,2.400,0.757,2.853
-975.606,-79.548,242.712,1.449,0.632,2.494
-975.949,-79.292,244.385,0.713,0.633,1.822
-972.107,-75.294,242.724,-0.297,0.624,1.330
-972.803,-73.376,244.113,-1.000,0.619,0.958
-973.554,-66.763,245.624,-1.292,0.493,0.647
-969.613,-61.309,249.649,-1.298,0.390,0.411
-969.370,-53.822,254.492,-1.194,0.163,0.189
-970.000,-51.000,255.000,-1.540,-0.070,0.140
-966.123,-57.447,251.824,-2.205,-0.125,-0.141
-968.715,-70.536,245.745,-2.788,-0.255,-0.545
-970.489,-88.891,240.784,-2.721,-0.302,-0.816
-969.655,-100.942,237.189,-1.501,-0.473,-1.196
-971.590,-100.654,238.199,0.704,-0.693,-1.494
-971.780,-92.679,242.764,2.766,-0.802,-1.746
-969.760,-81.182,242.946,3.586,-0.994,-1.966
-966.187,-77.557,243.861,3.160,-1.112,-1.840
-966.356,-89.474,243.711,1.755,-1.238,-1.633
-968.548,-102.626,240.903,0.557,-1.270,-1.563
-968.885,-109.574,242.178,0.559,-1.283,-1.519
-968.369,-107.264,242.920,1.280,-1.349,-1.570
-966.209,-95.184,243.569,1.846,-1.327,-1.476
-964.926,-90.029,247.734,1.401,-1.419,-1.134
-965.000,-93.000,251.000,0.280,-1.470,-0.840
-966.616,-93.298,250.291,-0.442,-1.465,-0.652
-968.221,-90.817,249.008,-0.561,-1.482,-0.530
-966.404,-88.190,248.748,-0.657,-1.426,-0.370
-966.479,-85.843,246.668,-1.162,-1.373,-0.194
-970.318,-87.246,246.174,-1.906,-1.299,-0.128
-970.313,-91.708,247.021,-2.576,-1.257,-0.151
-965.698,-89.646,245.879,-2.801,-1.260,-0.213
-964.855,-88.596,244.165,-2.852,-1.260,-0.213
-967.402,-98.231,241.600,-3.219,-1.262,-0.201
-969.423,-108.951,239.408,-3.189,-1.255,-0.284
-969.383,-114.893,238.919,-1.982,-1.271,-0.510
-966.148,-109.731,241.649,0.117,-1.229,-0.870
-965.163,-93.892,246.618,2.170,-1.195,-1.082
-967.274,-81.581,253.108,3.125,-1.267,-1.036
-967.000,-75.000,258.000,2.590,-1.190,-0.980
-965.165,-75.062,254.041,1.430,-1.116,-0.979
-964.783,-84.826,248.285,0.378,-1.138,-1.018
-965.822,-98.900,243.850,-0.496,-1.061,-1.139
-967.934,-109.805,241.296,-0.415,-1.078,-1.241
-969.202,-106.870,244.259,0.862,-1.140,-1.417
-970.077,-92.409,244.916,2.317,-1.209,-1.651
-968.812,-80.391,247.373,2.780,-1.262,-1.675
-967.006,-79.481,250.964,1.677,-1.321,-1.554
-967.885,-90.882,250.638,-0.243,-1.405,-1.314
-966.813,-101.082,253.412,-1.379,-1.341,-1.207
-964.505,-100.773,252.410,-1.095,-1.346,-1.351
-963.316,-98.124,248.672,-0.624,-1.258,-1.227
-963.114,-100.295,249.489,-0.802,-1.080,-0.996
-965.450,-107.125,249.893,-1.065,-1.046,-0.896
-967.000,-111.000,248.000,-0.770,-0.980,-0.840
-966.080,-105.407,245.262,0.126,-0.917,-0.851
-966.526,-96.814,245.250,0.978,-0.896,-0.692
-967.613,-92.646,248.023,1.132,-0.965,-0.557
-968.054,-91.569,248.972,0.526,-0.951,-0.580
-969.368,-90.124,247.507,-0.005,-0.914,-0.697
-968.173,-84.075,250.026,-0.182,-0.999,-0.970
-963.807,-75.515,254.190,-0.612,-1.056,-1.045
-966.492,-75.504,254.165,-1.643,-1.180,-0.980
-971.219,-85.272,250.325,-3.136,-1.253,-1.034
-966.916,-96.494,244.947,-3.925,-1.304,-1.119
-963.717,-103.794,243.787,-3.368,-1.340,-1.370
-966.016,-104.574,243.840,-2.138,-1.341,-1.636
-967.120,-102.442,244.322,-1.030,-1.420,-1.691
-968.162,-101.965,244.992,-0.239,-1.391,-1.860
-967.000,-100.000,246.000,0.420,-1.400,-2.100
-964.788,-94.096,250.447,0.968,-1.408,-2.167
-968.183,-87.831,252.090,1.364,-1.380,-2.178
-967.401,-89.064,251.283,0.781,-1.460,-2.127
-962.805,-102.483,247.371,-0.591,-1.443,-2.104
-965.601,-118.180,244.787,-1.049,-1.377,-2.236
-967.919,-121.232,247.708,-0.091,-1.317,-2.414
-965.842,-110.992,249.049,1.672,-1.336,-2.445
-964.143,-98.737,249.941,2.655,-1.401,-2.322
-962.816,-94.136,250.590,2.083,-1.341,-2.104
-964.498,-102.150,253.643,0.805,-1.333,-1.768
-963.202,-108.038,255.480,-0.376,-1.273,-1.646
-960.053,-100.883,255.142,-0.416,-1.136,-1.698
-965.069,-94.092,257.574,-0.019,-1.125,-1.667
-969.180,-84.204,255.393,-0.458,-1.116,-1.584
-968.000,-80.000,253.000,-1.400,-1.120,-1.260
-966.174,-92.916,250.741,-3.080,-1.185,-1.100
-966.336,-101.910,246.302,-4.330,-1.186,-1.327
-967.972,-103.878,247.190,-3.847,-1.274,-1.549
-967.245,-95.758,247.520,-2.813,-1.577,-1.866
-969.017,-81.341,245.180,-2.144,-1.829,-2.065
-970.925,-81.316,245.168,-2.719,-2.001,-2.020
-968.875,-89.667,246.056,-4.154,-2.183,-2.115
-968.951,-98.369,246.080,-4.697,-2.364,-2.359
-968.433,-104.404,244.344,-4.252,-2.557,-2.655
-965.992,-105.743,244.478,-3.217,-2.675,-2.976
-962.779,-106.666,249.341,-2.010,-2.849,-3.205
-962.369,-109.967,252.912,-1.271,-2.970,-3.367
-965.821,-115.504,251.194,-0.832,-2.917,-3.554
-964.465,-115.437,251.455,0.035,-2.862,-3.649
-962.000,-109.000,256.000,1.190,-2.800,-3.710
-962.876,-102.562,257.905,1.469,-2.798,-3.668
-962.071,-102.905,259.239,0.647,-2.765,-3.468
-957.567,-111.823,261.162,-0.564,-2.642,-3.393
-955.500,-123.203,259.406,-1.454,-2.518,-3.294
-959.998,-136.276,253.095,-1.710,-2.256,-3.188
-963.027,-149.967,247.273,-1.414,-1.873,-3.022
-959.636,-158.211,250.523,-0.298,-1.595,-2.708
-956.108,-151.248,256.696,1.715,-1.477,-2.470
-956.532,-132.129,259.449,3.798,-1.365,-2.084
-958.278,-117.987,261.578,4.486,-1.195,-1.501
-959.763,-112.084,262.026,3.266,-0.999,-0.892
-961.568,-110.530,261.760,1.407,-0.861,-0.468
-961.845,-107.620,260.640,0.078,-0.842,-0.192
-962.167,-102.329,261.231,-0.937,-0.836,0.111
-963.000,-101.000,261.000,-2.240,-0.770,0.280
-962.076,-104.203,257.449,-3.605,-0.646,0.353
-962.561,-109.227,254.936,-4.414,-0.607,0.186
-963.526,-109.393,251.988,-4.315,-0.712,-0.207
-964.058,-106.302,253.413,-3.766,-0.834,-0.461
-963.178,-101.714,254.934,-3.338,-0.959,-0.626
-962.072,-94.633,253.973,-2.833,-1.076,-0.812
-966.476,-94.255,253.813,-2.829,-1.200,-0.997
-970.057,-98.641,248.394,-3.212,-1.322,-1.301
-966.838,-104.895,247.933,-3.021,-1.437,-1.673
-964.676,-113.987,251.388,-2.677,-1.575,-2.012
-965.035,-115.673,249.266,-1.767,-1.644,-2.448
-964.480,-110.706,250.076,-0.188,-1.730,-2.792
-963.394,-110.915,254.345,0.751,-1.852,-2.999
-959.172,-117.156,258.621,1.089,-1.889,-3.071
-955.000,-126.000,261.000,1.330,-1.820,-2.870
-954.845,-135.801,259.455,1.833,-1.641,-2.740
-955.738,-141.065,256.534,2.824,-1.453,-2.605
-956.418,-145.332,256.346,3.768,-1.277,-2.284
-957.278,-153.506,260.516,4.294,-1.076,-1.825
-957.870,-158.009,263.750,4.603,-0.780,-1.093
-954.748,-159.170,263.919,5.121,-0.408,-0.323
-949.840,-156.488,264.047,5.864,-0.121,0.411
-952.582,-146.744,264.928,6.237,0.121,1.322
-956.012,-140.536,265.794,5.654,0.364,2.357
-955.441,-137.868,266.670,4.342,0.637,3.312
-956.534,-132.498,267.129,2.828,1.003,4.139
-954.440,-128.074,266.510,1.014,1.320,4.867
-957.017,-121.448,263.840,-0.801,1.530,5.390
-965.933,-112.886,259.421,-2.338,1.700,5.800
-964.000,-108.000,258.000,-4.060,1.750,6.090
-962.214,-102.248,256.578,-5.739,1.749,6.111
-968.715,-93.042,252.184,-6.837,1.718,5.863
-970.572,-83.769,248.659,-7.525,1.559,5.436
-971.516,-80.025,244.980,-8.248,1.356,5.060
-971.514,-84.077,244.107,-8.845,1.069,4.654
-972.679,-88.954,243.345,-8.608,0.781,4.038
-974.905,-93.389,238.699,-7.521,0.541,3.223
-969.457,-97.790,237.895,-5.642,0.297,2.371
-968.071,-99.548,238.920,-3.051,0.067,1.631
-971.198,-102.134,239.496,-0.606,-0.246,0.949
-968.902,-102.985,240.487,1.813,-0.466,0.300
-967.928,-101.220,242.003,4.536,-0.667,-0.383
-969.156,-101.050,246.312,6.621,-0.896,-0.900
-967.531,-101.033,248.102,7.854,-0.997,-1.239
-964.000,-103.000,251.000,8.540,-1.190,-1.470
-962.924,-107.277,256.592,8.474,-1.273,-1.472
-963.113,-112.359,256.020,7.840,-1.149,-1.514
-963.051,-116.649,253.594,7.274,-1.081,-1.561
-964.494,-115.979,255.269,7.013,-0.991,-1.478
-962.741,-112.623,257.747,6.391,-0.859,-1.180
-960.644,-109.470,259.490,5.021,-0.748,-0.629
-958.793,-112.656,263.358,3.128,-0.698,0.057
-956.141,-124.218,266.048,0.928,-0.641,0.790
-955.012,-128.577,263.005,-0.603,-0.418,1.349
-956.580,-125.170,259.501,-0.989,-0.144,1.929
-962.968,-121.313,258.783,-1.274,0.012,2.503
-964.267,-112.214,258.917,-1.944,0.125,2.916
-961.205,-104.061,257.289,-2.690,0.240,3.355
-961.148,-99.280,255.984,-3.672,0.284,3.674
-963.000,-96.000,256.000,-4.760,0.350,3.780
-964.949,-96.928,252.672,-5.409,0.424,3.675
-965.131,-94.741,248.939,-5.530,0.322,3.395
-969.949,-88.687,245.509,-5.127,0.230,3.017
-974.130,-82.934,243.165,-4.529,0.148,2.517
-971.479,-78.798,244.739,-4.290,-0.108,1.945
-969.881,-77.917,244.594,-4.030,-0.320,1.319
-971.197,-78.130,241.779,-3.376,-0.506,0.650
-973.900,-83.394,239.999,-2.776,-0.689,0.045
-972.763,-89.603,242.059,-1.918,-0.857,-0.595
-969.579,-88.888,245.910,-0.393,-1.105,-1.390
-967.735,-87.335,247.974,1.016,-1.304,-2.080
-966.394,-89.701,246.825,1.891,-1.476,-2.622
-967.404,-98.362,243.165,2.468,-1.551,-3.052
-967.941,-110.845,245.806,2.948,-1.631,-3.334
-967.000,-119.000,249.000,3.710,-1.750,-3.710
-966.204,-117.827,248.690,5.141,-1.691,-4.040
-963.421,-111.827,252.568,6.473,-1.672,-3.999
-959.142,-105.707,256.829,6.597,-1.680,-3.685
-959.972,-101.515,261.313,5.768,-1.706,-3.259
-962.450,-107.349,260.837,4.221,-1.754,-2.724
-961.383,-115.354,257.698,2.307,-1.648,-2.205
-957.751,-119.268,259.121,0.899,-1.532,-1.869
-958.549,-120.283,259.059,0.179,-1.411,-1.567
-965.867,-112.987,258.956,-0.422,-1.282,-1.201
-966.502,-106.374,258.408,-1.560,-1.204,-0.877
-962.527,-103.037,257.731,-2.967,-1.189,-0.611
-961.876,-102.106,257.911,-4.350,-1.169,-0.411
-963.850,-102.831,256.299,-5.582,-1.114,-0.344
-967.425,-99.436,253.577,-6.216,-1.211,-0.350
-967.000,-99.000,252.000,-6.440,-1.260,-0.350
-964.206,-101.672,252.126,-6.691,-1.249,-0.513
-964.362,-103.504,250.462,-6.589,-1.365,-0.868
-966.343,-104.754,249.528,-5.587,-1.448,-1.223
-966.486,-105.262,247.237,-4.289,-1.498,-1.631
-965.969,-106.595,244.285,-3.112,-1.576,-2.024
-968.569,-108.446,245.331,-1.775,-1.715,-2.308
-967.725,-110.064,246.075,-0.305,-1.826,-2.693
-964.121,-109.176,248.728,1.157,-1.946,-3.060
-964.650,-107.140,250.931,2.272,-2.140,-3.259
-964.639,-107.860,251.322,2.817,-2.220,-3.353
-962.749,-111.440,253.153,2.818,-2.286,-3.376
-963.249,-116.077,254.733,2.705,-2.295,-3.509
-962.091,-117.932,258.294,2.877,-2.225,-3.696
-958.648,-112.788,261.207,3.102,-2.246,-3.876
-960.000,-105.000,261.000,2.940,-2.240,-3.920
-964.524,-105.014,259.413,1.862,-2.124,-3.684
-964.978,-114.471,256.493,0.054,-1.981,-3.431
-961.075,-124.770,256.599,-1.449,-1.957,-3.168
-959.206,-130.740,259.316,-1.991,-1.938,-2.813
-958.301,-133.613,260.249,-1.881,-1.863,-2.454
-956.682,-130.868,262.729,-1.617,-1.802,-2.074
-957.124,-126.888,263.899,-1.474,-1.667,-1.568
-958.914,-128.713,261.170,-1.785,-1.485,-1.080
-958.515,-132.342,260.748,-2.099,-1.295,-0.722
-956.073,-133.799,261.278,-1.940,-1.169,-0.290
-956.648,-130.236,260.223,-1.661,-1.011,0.029
-958.308,-127.294,260.186,-1.677,-0.857,0.250
-957.609,-128.232,261.181,-2.108,-0.835,0.469
-958.419,-126.575,259.502,-2.300,-0.754,0.487
-963.000,-124.000,256.000,-2.100,-0.700,0.560
-965.212,-121.342,254.263,-2.089,-0.647,0.692
-962.584,-121.080,251.794,-2.118,-0.558,0.704
-962.060,-124.320,250.646,-2.015,-0.605,0.676
-963.031,-124.344,254.391,-1.632,-0.636,0.540
-960.715,-119.616,257.875,-0.873,-0.628,0.358
-960.368,-110.814,257.732,-0.140,-0.633,0.264
-964.322,-104.875,257.009,0.056,-0.710,0.207
-966.074,-108.426,257.099,-0.501,-0.834,0.207
-964.326,-117.537,253.946,-1.132,-0.848,0.221
-962.802,-128.345,251.469,-1.043,-0.801,0.129
-959.527,-135.698,253.541,-0.067,-0.718,-0.040
-957.286,-133.883,256.262,1.580,-0.709,-0.204
-958.329,-125.195,260.267,3.138,-0.665,-0.174
-959.126,-121.062,261.928,3.719,-0.457,0.037
-960.000,-126.000,260.000,3.290,-0.280,0.280
-959.146,-129.970,258.196,2.922,-0.092,0.415
-959.901,-128.118,257.719,3.338,-0.050,0.451
-963.214,-124.177,258.718,3.588,-0.066,0.647
-963.472,-119.046,259.164,2.884,0.093,0.903
-962.595,-114.846,260.612,1.831,0.137,1.147
-961.537,-115.446,260.778,0.715,0.152,1.376
-960.003,-117.077,259.990,-0.351,0.214,1.555
-961.870,-117.948,259.187,-1.079,0.273,1.739
-960.710,-116.937,256.344,-1.441,0.349,1.816
-959.334,-111.791,255.545,-1.499,0.308,1.823
-964.995,-108.417,253.443,-1.720,0.243,1.816
-968.798,-107.774,253.810,-2.166,0.180,1.820
-967.322,-106.232,254.627,-2.423,0.118,1.678
-964.519,-101.020,251.766,-2.354,-0.031,1.350
-962.000,-98.000,253.000,-2.240,-0.210,1.120
-965.457,-106.199,250.848,-2.416,-0.327,0.947
-963.842,-117.025,245.761,-2.414,-0.473,0.623
-961.882,-127.199,244.605,-1.421,-0.456,0.184
-969.586,-135.562,245.750,0.658,-0.407,-0.209
-963.334,-132.182,247.885,3.132,-0.424,-0.692
-963.137,-119.695,250.700,5.579,-0.420,-1.120
-962.528,-106.211,254.346,7.207,-0.419,-1.185
-960.521,-103.646,258.794,7.132,-0.419,-1.061
-964.886,-109.795,257.860,6.161,-0.382,-0.973
-960.179,-113.551,256.389,5.498,-0.228,-1.071
-962.634,-112.594,260.881,5.638,-0.271,-1.149
-956.738,-105.356,262.594,5.985,-0.379,-1.063
-961.522,-101.584,265.974,5.452,-0.330,-0.810
-958.800,-103.768,263.097,3.924,-0.268,-0.435
-963.000,-114.000,260.000,2.170,-0.140,-0.140
-966.099,-123.503,257.053,1.128,-0.015,0.112
-958.353,-124.274,252.951,0.864,0.059,0.236
-967.000,-121.202,256.498,0.754,0.077,0.494
-954.477,-111.827,255.499,0.386,0.046,0.908
-970.468,-108.462,261.599,-0.467,-0.021,1.122
-957.070,-104.995,258.237,-1.793,0.020,1.398
-962.130,-106.498,257.328,-3.019,0.070,1.541
-966.806,-111.027,254.800,-3.808,0.069,1.537
-961.597,-109.859,250.200,-4.043,0.031,1.555
-978.161,-109.088,255.350,-3.623,-0.110,1.452
-947.041,-105.019,246.733,-3.250,-0.168,1.300
-983.831,-111.743,254.354,-3.219,-0.251,1.100
-948.102,-110.413,245.745,-2.917,-0.292,0.904
-977.283,-110.477,251.609,-1.909,-0.454,0.493
-968.000,-104.000,250.000,-0.700,-0.560,0.280
-949.974,-96.861,247.808,0.070,-0.657,0.126
-1003.928,-100.740,261.259,0.264,-0.896,-0.189
-895.367,-92.647,231.884,0.063,-0.984,-0.276
-1096.263,-121.497,279.262,0.191,-1.457,-0.832
-667.677,-75.630,168.878,0.228,-0.926,-0.672
