acc_x[mg],acc_y[mg],acc_z[mg],gyro_x[dps],gyro_y[dps],gyro_z[dps]
-4.000,529.000,-842.000,-0.070,0.140,-1.050
-4.262,553.567,-877.289,1.770,0.271,-0.977
-2.954,503.859,-797.933,4.319,0.249,-0.757
-3.649,554.074,-879.131,6.649,0.116,-0.674
-3.868,508.031,-808.459,8.754,0.019,-0.308
-2.379,540.356,-865.886,9.929,-0.136,-0.319
-2.166,515.093,-835.564,10.309,-0.204,-0.347
-3.026,522.213,-859.350,9.798,-0.054,-0.434
-2.981,520.183,-862.344,8.579,0.190,-0.618
-3.778,512.617,-848.741,7.105,0.396,-0.749
-4.231,526.040,-863.070,6.120,0.465,-0.787
-3.166,513.444,-838.937,6.413,0.523,-0.737
-0.915,525.343,-859.378,7.220,0.398,-0.636
-0.041,514.662,-843.453,7.761,0.131,-0.435
-1.189,519.811,-855.924,7.891,-0.107,-0.437
-2.000,516.000,-859.000,7.350,-0.280,-0.560
-2.056,510.900,-859.433,6.278,-0.224,-0.621
-2.303,513.023,-865.580,5.043,-0.197,-0.687
-5.525,505.759,-855.419,4.013,-0.201,-0.686
-7.593,510.590,-864.116,3.232,-0.022,-0.517
-6.390,507.887,-854.708,2.612,0.241,-0.245
-4.460,513.666,-858.927,2.803,0.464,-0.029
-1.834,512.580,-856.330,3.878,0.559,0.073
-0.995,512.629,-856.409,5.215,0.376,0.071
-1.005,513.486,-858.616,6.455,0.005,0.066
-1.467,507.530,-855.044,6.840,-0.270,0.104
-2.804,506.400,-862.690,6.031,-0.418,0.221
-2.720,504.260,-861.875,4.738,-0.192,0.298
-1.789,506.970,-863.745,4.153,0.140,0.271
-2.114,506.716,-859.792,4.776,0.123,0.286
-2.000,507.000,-856.000,6.020,0.000,0.350
-0.198,505.760,-861.112,7.013,-0.179,0.472
0.145,501.410,-866.128,6.669,-0.368,0.515
-0.097,501.168,-867.697,4.875,-0.525,0.403
0.047,499.979,-868.786,2.641,-0.544,0.294
0.013,498.865,-869.750,0.392,-0.473,0.141
-0.107,500.459,-865.962,-1.695,-0.492,-0.031
-1.069,502.071,-863.939,-3.007,-0.411,-0.068
-1.066,502.936,-863.119,-3.546,-0.350,-0.006
-0.129,503.853,-862.102,-3.680,-0.355,0.059
0.071,504.583,-861.909,-3.331,-0.339,0.083
-0.057,505.234,-861.957,-2.970,-0.386,0.012
0.054,504.558,-861.524,-2.943,-0.437,-0.142
-0.048,505.412,-860.683,-2.802,-0.390,-0.218
0.032,505.957,-859.861,-2.550,-0.266,-0.210
0.000,506.000,-859.000,-2.170,-0.280,-0.210
-0.061,507.018,-860.507,-1.547,-0.344,-0.092
0.191,505.651,-862.949,-1.425,-0.432,-0.037
-0.767,503.992,-862.483,-2.406,-0.613,-0.169
-0.661,504.147,-863.553,-4.121,-0.562,-0.233
0.184,505.709,-861.198,-5.710,-0.324,-0.331
-0.062,508.702,-857.567,-6.232,-0.091,-0.430
0.009,511.132,-856.823,-5.591,-0.003,-0.419
-0.004,511.992,-852.292,-4.196,-0.188,-0.421
0.082,511.401,-852.805,-2.254,-0.491,-0.367
-0.719,508.869,-857.221,-0.775,-0.736,-0.307
-0.722,507.630,-858.214,-0.594,-0.749,-0.208
0.351,510.276,-859.326,-1.082,-0.669,-0.114
-0.228,510.647,-858.277,-1.358,-0.601,-0.156
0.130,510.137,-855.624,-0.925,-0.475,-0.129
-0.000,512.000,-854.000,0.350,-0.490,-0.070
-1.017,512.143,-855.492,2.000,-0.611,-0.015
-0.243,510.685,-858.457,3.255,-0.734,0.069
0.092,508.386,-859.870,3.317,-0.828,0.029
-0.024,507.905,-861.839,2.101,-0.839,-0.021
-0.017,507.731,-861.208,0.538,-0.844,-0.134
0.041,508.353,-859.716,-0.629,-0.832,-0.301
-0.041,510.064,-857.761,-0.887,-0.764,-0.195
-0.938,510.003,-855.046,-0.026,-0.701,-0.071
-1.138,510.142,-856.486,1.265,-0.743,-0.078
-0.315,508.558,-857.195,2.303,-0.871,-0.017
0.213,507.697,-856.852,2.934,-0.932,0.002
-0.402,507.712,-858.874,3.289,-0.876,0.003
-1.146,506.788,-860.225,3.463,-0.836,-0.007
-0.893,507.016,-861.135,3.401,-0.837,0.009
0.000,506.000,-861.000,3.010,-0.770,0.070
0.069,505.030,-859.996,2.506,-0.757,0.014
-0.121,504.968,-860.707,2.244,-0.878,-0.056
0.173,505.011,-860.959,1.911,-0.930,-0.108
-0.224,504.419,-860.987,1.411,-0.875,-0.174
0.275,503.992,-862.494,0.921,-0.819,-0.234
-0.340,505.213,-862.730,0.256,-0.758,-0.289
-0.922,504.946,-860.893,-0.309,-0.775,-0.276
0.921,504.955,-860.932,-0.427,-0.839,-0.214
0.344,505.108,-861.170,-0.252,-0.832,-0.198
-0.291,504.751,-860.495,-0.162,-0.928,-0.264
0.285,505.095,-862.006,-0.386,-1.010,-0.279
-0.455,504.676,-862.865,-0.895,-0.945,-0.302
-1.124,505.312,-861.371,-1.490,-0.889,-0.356
-0.894,506.027,-859.811,-1.569,-0.745,-0.256
-0.000,506.000,-859.000,-0.980,-0.700,-0.140
0.050,506.060,-859.698,-0.398,-0.770,-0.139
-0.068,505.261,-861.703,-0.363,-0.755,-0.134
0.097,504.701,-861.431,-0.956,-0.857,-0.207
-0.330,505.335,-860.554,-1.722,-0.928,-0.345
-1.488,506.248,-860.903,-2.137,-0.894,-0.326
-1.926,507.209,-859.479,-2.131,-0.812,-0.271
-0.934,508.041,-857.935,-1.618,-0.696,-0.203
-0.954,508.025,-857.083,-0.461,-0.761,-0.141
-1.153,507.948,-856.704,1.058,-0.835,-0.100
-0.257,507.566,-858.306,2.380,-0.875,0.045
0.080,505.587,-859.532,3.034,-0.962,0.042
-0.004,504.841,-862.637,2.774,-0.979,-0.021
-0.132,504.820,-865.114,1.711,-0.984,-0.119
-1.147,503.903,-862.511,0.367,-0.975,-0.298
-1.000,504.000,-861.000,-0.490,-0.910,-0.280
-0.819,503.998,-860.228,-0.639,-0.845,-0.219
-2.029,504.572,-859.016,-0.510,-0.838,-0.116
-1.243,505.709,-859.019,-0.083,-0.836,-0.004
-1.432,505.882,-858.235,0.545,-0.866,-0.007
-1.882,505.987,-858.155,1.164,-0.924,0.009
-0.856,505.849,-860.544,1.906,-0.908,-0.011
-0.992,504.937,-862.091,2.078,-0.990,-0.075
-0.061,504.104,-863.843,1.402,-1.053,-0.137
-0.622,502.278,-864.456,0.339,-0.989,-0.145
-1.383,502.716,-861.600,-0.721,-0.951,-0.135
-0.593,505.262,-860.632,-1.188,-0.798,-0.144
-1.435,504.003,-860.836,-1.306,-0.649,-0.137
-0.472,504.628,-861.178,-1.305,-0.636,-0.140
-0.193,505.913,-862.083,-1.182,-0.720,-0.144
-2.000,504.000,-862.000,-1.400,-0.840,-0.210
-2.084,503.902,-862.001,-2.052,-0.790,-0.218
-1.373,504.532,-861.431,-2.743,-0.665,-0.196
-0.124,506.746,-859.606,-2.931,-0.544,-0.232
-0.484,508.319,-858.198,-2.466,-0.459,-0.163
-0.848,507.746,-857.721,-1.286,-0.534,-0.147
0.068,507.916,-858.289,0.157,-0.656,-0.124
-1.105,505.776,-861.264,0.770,-0.781,-0.071
-1.079,504.011,-863.012,0.036,-0.905,-0.136
-0.764,504.697,-862.839,-1.621,-0.873,-0.143
-1.847,506.157,-862.820,-3.246,-0.700,-0.173
-2.011,508.083,-859.403,-4.146,-0.536,-0.265
-1.807,509.412,-857.312,-3.807,-0.490,-0.263
-0.673,510.102,-856.689,-2.483,-0.604,-0.193
-1.218,509.912,-857.326,-1.067,-0.711,-0.219
-2.000,509.000,-859.000,-0.280,-0.770,-0.210
-1.914,508.077,-857.945,-0.265,-0.782,-0.137
-2.258,507.902,-859.640,-0.255,-0.664,-0.203
-1.155,508.374,-858.834,-0.102,-0.583,-0.144
-1.197,509.550,-857.812,0.215,-0.536,-0.011
-0.522,509.788,-859.161,0.761,-0.619,-0.015
-0.142,508.627,-859.070,0.995,-0.796,-0.090
-1.022,506.885,-861.163,0.809,-0.764,-0.140
-0.976,506.868,-861.125,0.075,-0.765,-0.137
-1.198,508.819,-860.032,-0.835,-0.786,-0.200
0.013,508.320,-859.380,-1.235,-0.711,-0.208
-1.112,508.068,-858.125,-1.186,-0.702,-0.246
-1.870,509.549,-857.513,-0.682,-0.695,-0.275
-0.967,510.018,-856.913,0.231,-0.704,-0.180
-2.110,509.940,-858.239,1.090,-0.700,-0.135
-1.000,509.000,-858.000,1.610,-0.770,-0.070
-0.796,508.145,-856.888,2.037,-0.844,-0.004
-1.917,506.587,-858.463,2.311,-0.781,0.004
-2.025,505.406,-859.563,2.241,-0.775,-0.008
-1.690,506.690,-859.989,2.325,-0.738,0.029
-0.703,506.622,-859.657,2.493,-0.691,0.084
-1.244,505.839,-860.301,2.531,-0.705,0.059
-2.031,504.901,-862.116,2.501,-0.780,-0.006
-2.038,504.006,-862.953,1.771,-0.906,-0.068
-1.166,504.109,-863.811,0.453,-0.864,-0.071
-1.357,503.098,-863.572,-0.941,-0.785,-0.074
-2.897,503.583,-861.481,-2.519,-0.739,-0.039
-2.655,505.977,-860.797,-3.590,-0.667,0.018
-1.738,507.228,-860.732,-3.782,-0.620,-0.018
-0.885,508.169,-858.609,-3.576,-0.639,-0.079
-1.000,509.000,-857.000,-2.660,-0.700,-0.140
-1.968,509.013,-857.767,-1.192,-0.697,-0.145
-1.365,509.010,-858.901,-0.069,-0.755,-0.128
-0.668,508.497,-858.797,0.383,-0.743,-0.189
-1.651,507.178,-858.936,0.446,-0.677,-0.197
-1.796,507.140,-858.674,0.666,-0.714,-0.103
-0.868,508.137,-859.310,0.744,-0.697,-0.070
-1.004,507.953,-861.091,0.384,-0.780,-0.069
-0.104,507.090,-861.046,-0.161,-0.843,-0.068
0.266,506.022,-860.926,-0.877,-0.776,-0.124
-0.902,506.982,-860.461,-1.537,-0.776,-0.191
-0.885,508.933,-858.939,-1.703,-0.733,-0.220
-1.190,508.428,-859.202,-1.363,-0.689,-0.212
-0.776,507.956,-860.144,-1.308,-0.712,-0.329
-1.217,507.975,-859.845,-1.671,-0.784,-0.421
-2.000,508.000,-858.000,-2.030,-0.840,-0.350
-0.950,508.857,-857.720,-2.135,-0.783,-0.289
-2.572,509.686,-859.249,-1.739,-0.712,-0.223
-2.236,510.671,-856.920,-1.392,-0.692,-0.207
-0.299,510.594,-855.824,-0.759,-0.710,-0.205
-1.656,509.695,-857.232,0.349,-0.686,-0.232
-1.911,510.024,-856.864,1.131,-0.723,-0.281
-2.042,508.864,-858.192,1.715,-0.846,-0.202
-2.048,507.983,-859.983,1.717,-0.844,-0.141
-1.835,508.121,-859.219,1.059,-0.831,-0.139
-2.342,507.620,-858.679,0.541,-0.885,-0.145
-1.102,508.705,-859.027,0.314,-0.953,-0.108
-1.734,508.481,-858.420,0.490,-0.985,-0.054
-3.099,508.107,-857.882,1.025,-0.987,-0.081
-1.801,509.056,-858.018,1.733,-1.064,-0.061
-2.000,508.000,-858.000,2.660,-1.120,-0.000
-2.133,507.036,-858.786,3.490,-1.180,0.003
-1.729,506.470,-859.868,3.701,-1.204,-0.007
-2.484,504.552,-860.151,3.386,-1.169,0.036
-0.782,503.717,-862.196,2.767,-1.233,0.110
-0.351,503.840,-864.509,1.546,-1.258,0.139
-2.327,502.697,-864.980,-0.225,-1.267,0.033
-1.919,503.139,-864.979,-2.183,-1.254,-0.153
-1.910,504.925,-863.250,-4.072,-1.128,-0.274
-2.991,505.676,-860.234,-5.395,-1.107,-0.336
-2.327,507.361,-860.501,-6.159,-1.140,-0.399
-2.180,508.362,-859.948,-6.908,-1.050,-0.432
-3.701,509.716,-856.037,-7.259,-0.936,-0.408
-3.908,511.286,-854.958,-6.525,-0.903,-0.433
-4.102,512.237,-854.953,-5.076,-0.820,-0.405
-4.000,514.000,-855.000,-3.430,-0.700,-0.280
-2.143,513.252,-855.087,-1.944,-0.750,-0.274
-2.575,512.131,-854.728,-0.803,-0.879,-0.286
-3.283,511.371,-855.991,0.112,-0.962,-0.275
-2.784,510.668,-857.773,0.376,-0.985,-0.281
-3.161,511.059,-859.282,-0.266,-0.979,-0.292
-2.886,510.908,-858.577,-1.387,-0.975,-0.365
-3.061,511.040,-856.897,-2.284,-0.901,-0.344
-3.953,511.899,-855.171,-2.346,-0.779,-0.282
-4.108,513.611,-853.841,-1.483,-0.703,-0.237
-3.341,514.305,-854.742,-0.168,-0.734,-0.101
-2.802,512.859,-854.873,0.810,-0.842,-0.087
-3.168,511.085,-857.334,1.072,-0.958,-0.179
-2.841,509.644,-858.958,0.528,-0.966,-0.223
-3.154,510.256,-857.877,-0.428,-0.905,-0.289
-4.000,512.000,-857.000,-1.260,-0.910,-0.280
-3.164,512.813,-855.142,-1.573,-0.853,-0.216
-2.784,514.534,-854.493,-0.931,-0.824,-0.169
-3.660,514.767,-852.213,0.490,-0.863,-0.052
-4.168,512.996,-852.623,2.401,-0.793,0.037
-3.702,513.151,-854.170,4.371,-0.785,0.097
-2.872,512.640,-855.524,6.006,-0.854,0.139
-3.033,510.889,-858.110,7.053,-0.917,0.064
-3.036,509.193,-858.852,7.298,-1.040,0.064
-2.848,506.454,-862.269,6.601,-1.119,0.139
-3.799,505.172,-863.248,5.073,-1.085,0.099
-3.659,504.264,-862.982,3.324,-0.978,0.032
-2.655,504.108,-864.110,1.403,-0.854,-0.031
-3.376,505.188,-862.047,-0.328,-0.730,-0.078
-3.961,504.999,-859.805,-1.377,-0.619,-0.067
-3.000,507.000,-860.000,-1.820,-0.630,-0.070
-2.913,509.905,-860.234,-2.011,-0.695,-0.128
-3.156,508.679,-858.194,-1.913,-0.702,-0.199
-2.737,507.434,-858.864,-1.309,-0.701,-0.213
-3.633,508.315,-860.211,-1.042,-0.681,-0.212
-3.790,507.521,-859.572,-0.908,-0.593,-0.196
-2.881,508.389,-858.597,-0.863,-0.567,-0.125
-2.997,508.925,-856.954,-0.896,-0.634,-0.147
-2.096,507.972,-857.887,-0.577,-0.632,-0.272
-1.759,508.953,-858.844,-0.549,-0.624,-0.296
-2.867,508.156,-859.178,-0.514,-0.638,-0.219
-2.896,508.375,-857.524,-0.490,-0.619,-0.239
-3.388,508.721,-857.515,-0.235,-0.644,-0.296
-4.104,507.935,-860.667,0.109,-0.608,-0.270
-3.987,509.183,-859.649,-0.200,-0.558,-0.285
-4.000,509.000,-858.000,-0.280,-0.560,-0.280
-3.158,508.909,-856.295,0.169,-0.497,-0.219
-2.798,509.104,-855.515,1.085,-0.523,-0.161
-3.294,508.866,-857.582,1.916,-0.648,-0.095
-2.346,508.377,-860.256,1.927,-0.763,-0.038
-2.215,506.054,-862.709,1.187,-0.871,0.005
-3.124,506.292,-864.133,0.221,-0.805,-0.108
-2.994,506.979,-862.746,-0.385,-0.618,-0.212
-3.875,506.917,-858.299,-0.638,-0.558,-0.210
-5.025,508.661,-856.740,-0.089,-0.615,-0.171
-4.325,509.135,-857.723,0.892,-0.676,-0.021
-3.873,508.455,-858.093,1.549,-0.741,-0.037
-4.051,507.157,-859.569,1.815,-0.779,-0.052
-4.007,505.654,-859.730,1.705,-0.765,-0.001
-3.929,506.199,-858.981,1.687,-0.772,-0.076
-3.000,507.000,-860.000,1.680,-0.770,-0.000
-3.723,506.135,-861.798,1.672,-0.768,0.012
-4.517,505.851,-862.162,1.631,-0.775,-0.019
-2.369,506.081,-862.009,1.221,-0.762,0.026
-2.718,505.469,-863.852,0.683,-0.781,-0.047
-4.397,504.548,-863.139,-0.010,-0.748,-0.077
-3.740,503.933,-861.917,-0.693,-0.688,-0.169
-2.972,505.173,-861.935,-1.068,-0.623,-0.205
-2.983,506.971,-860.118,-1.130,-0.560,-0.139
-3.054,506.231,-859.858,-0.903,-0.615,-0.202
-2.898,505.804,-859.478,-0.627,-0.641,-0.171
-3.161,505.603,-858.226,-0.198,-0.622,-0.124
-2.762,504.502,-860.057,0.221,-0.636,-0.149
-3.381,505.414,-862.380,0.123,-0.626,-0.135
-3.918,505.937,-861.794,-0.267,-0.632,-0.142
-3.000,505.000,-861.000,-0.560,-0.630,-0.140
-3.878,504.893,-861.070,-0.860,-0.627,-0.138
-3.471,505.780,-860.191,-1.105,-0.640,-0.144
-2.586,505.971,-859.837,-1.058,-0.584,-0.131
-3.662,506.149,-859.425,-0.856,-0.570,-0.172
-3.990,507.275,-858.855,-0.443,-0.672,-0.210
-4.049,506.683,-860.289,0.019,-0.691,-0.113
-3.956,506.009,-859.884,0.299,-0.626,-0.071
-3.059,506.041,-858.971,0.486,-0.627,-0.073
-2.898,505.775,-859.851,0.391,-0.685,-0.055
-3.137,506.922,-859.847,0.308,-0.718,-0.136
-2.823,505.839,-860.248,0.426,-0.651,-0.097
-3.212,504.910,-861.116,0.342,-0.648,-0.087
-2.755,506.298,-860.687,0.040,-0.713,-0.149
-3.270,505.890,-859.932,-0.248,-0.696,-0.143
-5.000,506.000,-860.000,-0.420,-0.700,-0.210
-4.165,506.029,-860.082,-0.380,-0.703,-0.160
-3.911,506.545,-859.164,-0.140,-0.696,-0.068
-3.604,507.358,-859.241,0.052,-0.705,-0.110
-2.609,506.138,-860.124,0.297,-0.695,-0.156
-3.484,506.075,-859.813,0.751,-0.704,-0.114
-3.927,505.726,-861.356,1.215,-0.697,-0.067
-2.927,505.029,-860.863,1.481,-0.701,-0.068
-2.937,505.973,-860.805,1.482,-0.701,-0.003
-3.246,505.263,-863.124,1.165,-0.696,-0.042
-1.968,504.715,-860.683,0.677,-0.706,-0.136
-3.085,505.041,-860.072,0.511,-0.691,-0.133
-3.940,504.839,-860.810,0.627,-0.710,-0.150
-2.861,504.895,-859.715,0.861,-0.688,-0.124
-4.237,503.841,-860.060,1.257,-0.712,-0.060
-4.000,504.000,-860.000,1.750,-0.770,0.000
-3.807,504.125,-861.627,2.313,-0.705,0.005
-4.459,503.721,-863.054,2.541,-0.744,-0.009
-2.452,504.392,-862.625,2.387,-0.786,0.015
-2.365,502.699,-863.329,1.964,-0.762,-0.039
-3.089,502.107,-864.014,1.092,-0.762,-0.072
-3.106,503.008,-863.807,0.167,-0.683,-0.077
-4.040,501.914,-862.967,-0.299,-0.705,-0.146
-3.146,501.927,-863.009,-0.415,-0.707,-0.207
-1.895,502.876,-862.224,-0.439,-0.629,-0.219
-3.288,502.942,-861.713,-0.280,-0.679,-0.160
-4.430,503.227,-861.578,-0.178,-0.706,-0.133
-3.411,504.320,-860.388,-0.207,-0.699,-0.141
-3.110,503.538,-861.434,0.022,-0.699,-0.150
-4.194,503.061,-861.957,0.227,-0.702,-0.220
-5.000,503.000,-862.000,0.280,-0.700,-0.210
-4.184,501.954,-862.926,0.182,-0.696,-0.144
-3.754,502.899,-862.997,-0.135,-0.712,-0.138
-4.348,502.254,-862.872,-0.297,-0.650,-0.140
-3.314,502.216,-862.777,-0.476,-0.632,-0.141
-3.086,503.039,-862.794,-0.840,-0.609,-0.139
-2.860,503.086,-861.556,-0.966,-0.560,-0.140
-3.094,504.052,-861.097,-0.588,-0.636,-0.140
-4.029,504.015,-862.938,-0.093,-0.634,-0.142
-3.060,504.046,-862.250,0.011,-0.617,-0.087
-3.696,503.249,-862.203,-0.038,-0.683,-0.051
-3.671,502.798,-863.329,-0.175,-0.709,-0.115
-2.743,502.859,-862.191,-0.311,-0.677,-0.147
-3.123,503.238,-862.044,-0.131,-0.617,-0.129
-2.946,503.994,-861.930,0.100,-0.636,-0.060
-3.000,503.000,-862.000,0.280,-0.630,-0.070
-3.883,502.973,-862.926,0.303,-0.621,-0.080
-3.610,502.337,-862.968,0.050,-0.689,-0.043
-1.814,502.060,-863.316,-0.418,-0.704,-0.174
-3.101,503.807,-864.198,-1.027,-0.683,-0.188
-3.864,503.562,-863.203,-1.474,-0.589,-0.130
-2.898,502.916,-861.790,-1.716,-0.571,-0.139
-2.985,503.031,-862.024,-1.666,-0.632,-0.144
-2.916,503.906,-861.144,-1.482,-0.630,-0.209
-4.777,504.900,-859.904,-1.236,-0.637,-0.157
-3.952,504.935,-860.643,-0.602,-0.576,-0.132
-2.441,504.931,-860.761,-0.052,-0.584,-0.119
-3.425,504.671,-861.224,0.310,-0.650,-0.044
-2.578,503.604,-862.062,0.633,-0.617,-0.096
-2.039,502.977,-862.046,0.600,-0.640,-0.142
-3.000,503.000,-863.000,0.210,-0.700,-0.140
-3.999,502.971,-863.112,-0.564,-0.705,-0.141
-3.250,503.059,-862.232,-1.329,-0.653,-0.138
-3.328,503.066,-861.273,-1.597,-0.581,-0.144
-4.427,505.529,-860.303,-1.316,-0.553,-0.116
-3.513,506.844,-859.699,-0.453,-0.563,-0.048
-2.989,504.333,-860.149,0.560,-0.562,-0.092
-2.992,502.976,-861.070,1.145,-0.639,-0.137
-2.990,502.990,-861.932,1.205,-0.702,-0.070
-3.028,503.071,-862.813,0.832,-0.640,-0.176
-2.961,502.220,-863.090,0.197,-0.628,-0.239
-3.040,502.118,-861.865,-0.497,-0.623,-0.163
-2.965,503.498,-860.356,-1.065,-0.656,-0.116
-3.023,504.181,-861.457,-1.152,-0.707,-0.065
-2.990,505.061,-861.899,-0.769,-0.699,-0.157
-3.000,504.000,-861.000,-0.350,-0.700,-0.140
-3.002,504.579,-861.003,-0.047,-0.639,-0.063
-3.008,506.370,-860.875,0.332,-0.621,-0.137
-2.962,504.340,-861.473,0.860,-0.639,-0.097
-3.105,504.083,-861.895,1.170,-0.619,-0.066
-2.684,503.384,-862.009,1.159,-0.651,-0.065
-1.988,503.209,-863.282,0.886,-0.709,-0.082
-3.094,503.965,-864.006,0.299,-0.698,-0.142
-3.074,503.006,-863.123,-0.309,-0.697,-0.140
-2.782,503.830,-861.971,-0.764,-0.711,-0.147
-3.415,503.853,-862.137,-0.978,-0.645,-0.087
-2.005,504.519,-860.637,-0.908,-0.631,-0.094
-2.867,504.641,-859.943,-0.595,-0.620,-0.159
-3.860,503.893,-861.195,-0.153,-0.652,-0.130
-1.715,503.930,-860.996,0.093,-0.697,-0.144
-2.000,503.000,-862.000,0.210,-0.630,-0.140
-3.008,503.012,-862.098,0.174,-0.686,-0.136
-2.865,502.763,-861.890,-0.124,-0.716,-0.151
-3.632,504.282,-861.493,-0.302,-0.684,-0.094
-4.135,504.337,-860.387,-0.192,-0.717,-0.065
-3.914,502.609,-861.235,-0.016,-0.673,-0.059
-4.066,504.482,-860.624,-0.000,-0.624,0.016
-3.956,504.977,-860.053,0.251,-0.633,-0.007
-3.074,505.012,-860.980,0.991,-0.695,-0.070
-2.176,503.550,-860.903,1.551,-0.712,-0.062
-1.780,502.349,-861.571,1.682,-0.649,-0.122
-2.625,503.556,-861.889,1.655,-0.619,-0.142
-3.038,501.956,-861.869,1.559,-0.654,-0.145
-3.060,502.617,-861.898,1.430,-0.712,-0.124
-2.882,503.947,-862.120,1.314,-0.695,-0.065
-2.000,502.000,-863.000,1.190,-0.700,-0.070
-2.835,500.978,-862.975,0.904,-0.708,-0.070
-3.122,501.613,-863.186,0.456,-0.641,-0.071
-3.326,502.712,-861.578,0.321,-0.629,-0.066
-4.485,502.618,-861.097,0.789,-0.623,-0.077
-3.417,501.459,-864.006,1.095,-0.651,-0.061
-3.105,500.951,-864.860,0.933,-0.707,-0.083
-2.907,500.982,-863.957,0.752,-0.699,-0.144
-1.955,500.077,-863.972,0.324,-0.701,-0.204
-3.679,500.433,-864.108,-0.154,-0.648,-0.233
-3.578,502.755,-863.100,-0.248,-0.610,-0.095
-3.003,501.941,-863.153,-0.120,-0.676,-0.106
-4.635,500.553,-863.977,-0.093,-0.704,-0.123
-3.397,501.269,-862.303,-0.245,-0.700,-0.072
-3.173,502.104,-862.246,-0.098,-0.700,-0.146
-4.000,502.000,-864.000,0.070,-0.700,-0.070
-3.876,501.012,-863.239,0.059,-0.700,-0.060
-4.914,501.703,-861.596,0.204,-0.700,-0.085
-4.813,502.042,-859.095,0.575,-0.697,-0.033
-5.655,501.820,-856.599,1.390,-0.720,0.094
-5.606,502.071,-855.902,2.122,-0.810,0.399
-3.528,503.323,-859.107,2.387,-0.948,0.596
-1.886,502.769,-865.509,1.812,-1.132,0.783
-0.992,498.281,-870.752,0.818,-1.132,0.725
-1.756,497.502,-871.552,0.497,-0.941,0.344
-2.723,499.087,-868.010,-0.160,-0.862,0.174
-2.905,498.110,-866.311,-1.091,-0.772,0.064
-1.071,498.431,-867.198,-1.661,-0.656,-0.031
-1.587,500.570,-866.626,-2.400,-0.625,-0.102
-2.999,500.892,-865.958,-2.838,-0.636,-0.222
-2.000,500.000,-866.000,-3.150,-0.700,-0.210
-2.012,499.960,-866.875,-3.958,-0.704,-0.202
-1.814,500.532,-866.096,-5.239,-0.694,-0.262
-2.863,502.251,-861.968,-6.524,-0.706,-0.319
-2.392,503.244,-860.637,-7.250,-0.695,-0.387
-2.510,504.833,-860.657,-7.586,-0.704,-0.429
-4.087,507.302,-859.876,-7.481,-0.698,-0.415
-2.946,506.983,-859.975,-6.876,-0.700,-0.422
-3.908,508.773,-858.195,-6.151,-0.699,-0.424
-3.425,510.226,-856.814,-5.215,-0.751,-0.360
-2.589,508.964,-858.175,-4.264,-0.790,-0.345
-3.392,509.096,-859.606,-4.007,-0.742,-0.370
-2.632,508.587,-859.456,-4.476,-0.819,-0.485
-3.401,509.522,-857.146,-5.023,-0.811,-0.563
-3.998,511.158,-856.000,-4.903,-0.690,-0.472
-4.000,512.000,-856.000,-4.340,-0.700,-0.350
-4.047,512.966,-855.041,-3.807,-0.644,-0.220
-3.868,512.870,-855.142,-3.062,-0.613,-0.248
-4.596,513.619,-853.644,-2.194,-0.651,-0.306
-5.225,513.602,-852.780,-1.168,-0.588,-0.242
-4.642,512.693,-854.531,-0.115,-0.558,-0.179
-3.938,513.095,-854.892,0.654,-0.559,-0.037
-3.980,512.956,-855.069,1.386,-0.560,-0.003
-3.075,512.085,-855.976,1.996,-0.560,-0.006
-2.866,511.099,-855.913,2.247,-0.559,0.069
-3.162,510.902,-856.987,2.021,-0.558,0.027
-2.824,510.833,-858.805,1.463,-0.588,-0.035
-3.174,511.067,-858.432,1.005,-0.651,-0.105
-2.838,510.653,-857.797,0.667,-0.615,-0.145
-3.145,510.096,-856.784,0.393,-0.639,-0.137
-4.000,512.000,-856.000,0.490,-0.630,-0.070
-4.030,512.146,-856.919,1.019,-0.557,-0.000
-3.427,511.806,-856.379,1.691,-0.617,-0.010
-2.098,511.768,-855.845,2.277,-0.629,0.050
-2.437,509.649,-858.475,2.519,-0.638,0.054
-3.113,508.878,-860.095,2.171,-0.615,-0.042
-2.979,508.935,-859.955,1.322,-0.651,-0.169
-2.997,509.055,-859.954,0.429,-0.697,-0.206
-2.988,509.961,-858.156,-0.179,-0.630,-0.140
-3.067,510.008,-857.671,-0.405,-0.691,-0.195
-2.812,509.999,-858.347,-0.442,-0.657,-0.217
-3.660,509.364,-856.845,-0.229,-0.647,-0.211
-3.774,508.983,-857.221,0.536,-0.723,-0.191
-2.786,510.366,-856.389,1.222,-0.688,-0.118
-3.121,509.718,-856.320,1.775,-0.705,-0.063
-4.000,508.000,-859.000,2.310,-0.700,-0.070
-4.138,507.945,-858.936,2.395,-0.697,-0.140
-3.058,508.062,-860.531,2.186,-0.704,-0.084
-3.637,507.777,-860.143,1.518,-0.696,-0.102
-3.703,508.350,-857.785,1.012,-0.702,-0.138
-2.992,508.929,-858.206,1.290,-0.700,-0.024
-4.198,507.591,-859.185,1.796,-0.698,-0.011
-2.818,507.030,-860.039,2.187,-0.703,-0.073
-1.925,507.070,-860.002,2.121,-0.767,-0.073
-2.982,506.043,-860.679,1.825,-0.726,-0.059
-2.798,506.096,-861.664,1.358,-0.637,-0.128
-3.716,505.134,-861.938,0.473,-0.633,-0.111
-3.697,505.519,-861.535,-0.320,-0.625,-0.056
-2.879,507.270,-860.609,-0.693,-0.636,-0.076
-3.005,506.987,-858.598,-0.484,-0.623,-0.068
-3.000,508.000,-857.000,0.280,-0.560,-0.070
-3.922,507.314,-859.524,1.094,-0.552,-0.070
-3.377,505.965,-861.069,1.505,-0.616,-0.073
-3.138,505.688,-861.095,1.525,-0.637,-0.061
-4.713,503.937,-862.622,1.343,-0.626,-0.104
-2.994,504.393,-862.804,0.772,-0.633,-0.145
-2.222,504.902,-862.904,-0.150,-0.628,-0.148
-4.097,505.114,-860.763,-0.960,-0.631,-0.213
-4.047,506.947,-858.983,-1.387,-0.632,-0.149
-3.910,506.233,-859.863,-1.334,-0.578,-0.070
-4.139,506.294,-859.850,-0.934,-0.535,-0.077
-3.510,507.362,-859.913,-0.543,-0.640,-0.060
-2.739,506.299,-859.690,-0.149,-0.714,-0.084
-3.318,506.009,-860.235,0.359,-0.704,-0.047
-4.030,505.966,-861.116,0.554,-0.782,-0.002
-4.000,506.000,-862.000,0.280,-0.770,-0.070
-4.083,506.055,-861.371,-0.049,-0.703,-0.075
-3.161,505.823,-859.083,0.063,-0.701,-0.066
-3.439,506.613,-859.616,0.611,-0.696,-0.043
-4.271,506.682,-859.076,1.038,-0.705,0.030
-3.833,505.420,-857.621,1.444,-0.694,-0.028
-4.091,504.959,-859.607,2.012,-0.704,0.029
-3.973,505.006,-862.162,2.236,-0.698,0.063
-3.986,505.017,-863.045,1.926,-0.698,-0.066
-3.403,504.295,-862.043,1.477,-0.709,-0.018
-1.899,503.032,-862.537,1.185,-0.680,0.009
-3.067,503.273,-862.524,0.738,-0.756,0.001
-4.094,504.404,-861.559,0.190,-0.740,-0.023
-2.406,505.113,-862.115,-0.030,-0.709,-0.078
-2.149,504.891,-861.959,0.020,-0.773,-0.073
-3.000,504.000,-862.000,0.210,-0.700,-0.140
-2.037,503.951,-861.177,0.285,-0.692,-0.145
-3.334,504.040,-860.727,0.297,-0.713,-0.136
-4.036,503.905,-861.548,0.534,-0.683,-0.113
-2.191,503.596,-862.129,0.624,-0.737,-0.040
-3.884,502.618,-863.423,0.198,-0.778,-0.107
-3.595,503.182,-863.765,-0.515,-0.760,-0.136
-3.097,502.920,-861.885,-1.084,-0.696,-0.144
-4.061,502.871,-861.938,-1.387,-0.697,-0.209
-2.889,504.844,-861.496,-1.390,-0.712,-0.158
-4.541,504.241,-859.645,-0.983,-0.642,-0.126
-4.288,504.261,-860.684,-0.467,-0.656,-0.152
-2.257,504.895,-860.507,-0.181,-0.721,-0.130
-2.086,503.626,-861.662,-0.176,-0.677,-0.148
-3.258,504.202,-862.892,-0.578,-0.627,-0.136
-4.000,505.000,-861.000,-1.190,-0.630,-0.140
-2.988,505.029,-861.773,-1.418,-0.627,-0.145
-3.858,504.323,-862.181,-1.185,-0.679,-0.129
-3.443,503.675,-861.745,-1.113,-0.714,-0.158
-2.938,504.025,-861.558,-1.282,-0.687,-0.115
-2.879,504.158,-860.571,-1.339,-0.713,-0.180
-3.261,506.511,-861.147,-1.310,-0.685,-0.195
-3.961,505.805,-860.926,-1.102,-0.628,-0.142
-3.000,504.872,-860.020,-0.981,-0.630,-0.207
-3.895,506.282,-860.658,-0.929,-0.628,-0.205
-3.331,504.039,-861.355,-0.980,-0.639,-0.264
-3.338,505.488,-859.168,-1.343,-0.590,-0.252
-4.198,506.919,-857.384,-1.117,-0.566,-0.199
-3.973,505.912,-858.427,-0.416,-0.661,-0.204
-3.953,507.119,-860.292,0.136,-0.700,-0.127
-4.000,506.000,-861.000,0.280,-0.700,-0.070
-5.051,505.813,-859.196,0.142,-0.702,-0.063
-3.502,506.341,-859.402,0.176,-0.695,-0.129
-2.852,504.959,-860.853,-0.119,-0.711,-0.135
-2.864,505.653,-860.076,-0.548,-0.665,-0.176
-3.650,507.374,-858.339,-0.406,-0.625,-0.200
-4.962,506.638,-859.475,0.539,-0.625,-0.130
-2.851,506.033,-861.034,1.366,-0.555,-0.140
-2.911,506.102,-860.980,1.656,-0.556,-0.076
-3.206,504.204,-861.171,1.948,-0.575,-0.059
-2.279,504.503,-859.884,1.849,-0.498,-0.083
-1.705,504.666,-860.837,1.887,-0.523,-0.054
-2.827,503.569,-862.045,1.746,-0.571,-0.100
-4.036,504.170,-862.132,1.430,-0.556,-0.148
-2.862,503.922,-863.016,1.546,-0.561,-0.137
-3.000,504.000,-862.000,1.260,-0.560,-0.140
-2.114,504.084,-862.820,1.006,-0.562,-0.145
-3.129,503.258,-861.997,0.725,-0.515,-0.089
-4.821,502.650,-859.429,0.687,-0.440,-0.029
-2.600,503.495,-860.775,1.418,-0.409,0.022
-2.274,503.760,-860.313,2.008,-0.441,-0.034
-3.072,502.764,-860.254,2.495,-0.497,-0.062
-2.998,501.919,-862.110,2.807,-0.490,0.003
-3.010,501.002,-862.936,2.625,-0.553,0.001
-2.925,501.827,-863.891,1.992,-0.574,0.004
-3.628,501.403,-863.347,1.348,-0.538,-0.042
-4.265,500.977,-862.475,0.971,-0.594,-0.108
-3.541,502.461,-863.221,0.637,-0.489,-0.160
-2.924,501.484,-862.376,0.701,-0.426,-0.112
-3.010,501.054,-861.018,1.034,-0.496,-0.076
-3.000,501.000,-863.000,1.470,-0.490,-0.140
-3.027,500.908,-863.195,1.867,-0.549,-0.076
-2.877,500.687,-863.153,1.858,-0.570,-0.116
-3.668,498.172,-865.739,1.703,-0.551,-0.122
-3.785,498.685,-864.802,1.233,-0.566,-0.037
-2.674,500.394,-863.840,0.661,-0.556,-0.105
-3.201,501.114,-863.670,0.591,-0.562,-0.142
-2.901,500.933,-861.971,0.947,-0.559,-0.138
-1.979,500.040,-863.813,1.441,-0.560,-0.075
-2.881,499.320,-864.360,1.622,-0.560,-0.064
-2.474,497.951,-863.245,1.521,-0.561,-0.041
-1.723,498.163,-865.600,1.362,-0.554,0.034
-2.200,497.275,-867.159,0.940,-0.582,-0.046
-1.857,497.258,-866.846,0.012,-0.643,-0.071
-2.081,497.988,-867.059,-1.252,-0.624,-0.162
-2.000,498.000,-867.000,-2.590,-0.630,-0.210
-1.858,499.023,-866.177,-3.886,-0.694,-0.134
-2.933,498.556,-864.577,-4.834,-0.703,-0.247
-2.457,501.443,-862.966,-5.343,-0.700,-0.292
-1.798,502.951,-862.664,-5.272,-0.681,-0.281
-2.270,501.888,-861.073,-4.732,-0.596,-0.262
-3.190,504.651,-859.765,-3.898,-0.558,-0.202
-2.909,504.898,-858.955,-2.624,-0.561,-0.211
-1.984,504.001,-859.819,-1.345,-0.620,-0.210
-2.876,504.067,-861.841,-0.383,-0.752,-0.216
-2.468,503.352,-862.220,0.164,-0.778,-0.161
-1.750,502.158,-863.967,0.097,-0.766,-0.135
-2.142,502.187,-862.813,-0.407,-0.770,-0.135
-2.008,503.126,-862.219,-1.017,-0.772,-0.158
-3.279,503.024,-862.854,-1.352,-0.765,-0.209
-4.000,504.000,-861.000,-1.260,-0.700,-0.140
-2.217,504.096,-861.898,-1.015,-0.637,-0.193
-2.363,503.840,-860.693,-0.785,-0.617,-0.235
-4.090,504.120,-859.786,-0.463,-0.680,-0.152
-3.378,503.397,-861.858,-0.067,-0.682,-0.144
-3.082,502.783,-861.443,0.235,-0.609,-0.135
-2.775,503.068,-860.924,0.375,-0.647,-0.144
-2.014,502.966,-861.038,0.501,-0.702,-0.138
-2.945,502.938,-861.937,0.624,-0.700,-0.138
-2.998,503.934,-862.096,0.688,-0.700,-0.146
-3.626,503.305,-861.702,0.716,-0.696,-0.128
-3.865,502.771,-862.298,0.659,-0.730,-0.180
-2.250,502.722,-863.305,0.593,-0.790,-0.218
-2.225,501.708,-864.104,0.277,-0.753,-0.206
-3.076,502.172,-863.901,-0.392,-0.785,-0.212
-3.000,503.000,-863.000,-1.050,-0.840,-0.210
-2.968,502.985,-862.967,-1.387,-0.717,-0.150
-3.049,503.564,-861.905,-1.332,-0.686,-0.126
-2.969,504.817,-859.392,-0.991,-0.710,-0.187
-2.771,504.384,-861.202,-0.260,-0.695,-0.221
-1.568,504.129,-861.414,0.592,-0.698,-0.191
-2.461,504.870,-861.282,1.250,-0.714,-0.130
-4.041,501.719,-863.055,1.543,-0.850,-0.143
-3.991,500.857,-862.962,1.296,-0.849,-0.143
-4.123,502.196,-863.983,0.683,-0.768,-0.130
-3.230,500.825,-862.561,-0.234,-0.786,-0.161
-3.018,502.045,-861.615,-0.892,-0.720,-0.083
-2.841,503.005,-861.623,-0.951,-0.706,-0.100
-3.332,503.193,-860.799,-0.622,-0.679,-0.132
-3.951,504.020,-861.064,0.129,-0.632,-0.064
-3.000,503.000,-862.000,0.770,-0.700,-0.070
-2.979,502.073,-863.892,0.761,-0.703,-0.008
-2.964,501.847,-863.313,0.198,-0.700,-0.034
-3.132,502.565,-862.763,-0.325,-0.666,-0.130
-2.734,502.934,-862.491,-0.446,-0.610,-0.141
-3.517,503.131,-861.550,-0.357,-0.644,-0.126
-3.811,504.152,-860.659,0.179,-0.619,-0.058
-3.025,503.949,-860.070,1.205,-0.636,-0.072
-3.987,503.085,-861.909,2.241,-0.700,-0.011
-3.143,502.074,-861.960,2.930,-0.646,0.078
-3.609,502.039,-863.090,3.040,-0.614,0.012
-3.729,500.953,-864.138,2.661,-0.669,0.008
-2.752,499.517,-863.932,1.942,-0.713,-0.030
-2.956,500.182,-865.286,1.060,-0.682,-0.073
-1.848,499.954,-864.852,0.221,-0.624,-0.075
-2.000,501.000,-864.000,-0.560,-0.630,-0.140
-2.025,502.076,-862.258,-0.700,-0.634,-0.147
-2.598,501.146,-861.678,0.020,-0.620,-0.087
-3.320,500.948,-862.557,0.754,-0.674,-0.054
-2.708,500.533,-863.175,1.167,-0.710,-0.106
-3.272,499.535,-864.296,1.238,-0.695,-0.146
-2.712,498.868,-865.049,0.975,-0.703,-0.139
-2.021,499.061,-864.989,0.595,-0.699,-0.140
-2.938,499.959,-864.999,-0.015,-0.699,-0.139
-3.091,500.035,-864.364,-0.669,-0.702,-0.143
-2.899,499.897,-862.805,-0.919,-0.696,-0.130
-3.105,499.864,-863.542,-0.859,-0.704,-0.179
-2.897,500.166,-863.448,-0.859,-0.695,-0.217
-3.085,501.261,-863.114,-0.919,-0.704,-0.210
-2.952,500.796,-864.012,-0.810,-0.697,-0.205
-3.000,500.000,-863.000,-0.560,-0.700,-0.140
-2.293,501.746,-863.800,-0.366,-0.708,-0.135
-0.827,501.682,-863.592,-0.335,-0.638,-0.146
-2.297,499.753,-862.239,-0.374,-0.664,-0.134
-3.154,500.583,-863.725,-0.281,-0.716,-0.146
-3.010,500.779,-863.460,-0.207,-0.691,-0.136
-2.920,501.259,-862.957,-0.296,-0.705,-0.142
-3.072,501.970,-863.009,-0.195,-0.699,-0.139
-4.001,501.033,-863.876,-0.128,-0.699,-0.140
-3.190,501.084,-865.027,-0.458,-0.703,-0.138
-2.933,500.058,-864.176,-0.867,-0.695,-0.179
-2.956,500.806,-863.405,-1.070,-0.705,-0.234
-3.160,502.021,-862.227,-0.982,-0.695,-0.173
-2.664,500.695,-862.153,-0.758,-0.704,-0.138
-2.058,502.353,-863.089,-0.346,-0.698,-0.139
-3.000,502.000,-863.000,-0.000,-0.700,-0.140
-2.949,499.947,-862.929,0.059,-0.703,-0.141
-3.845,500.995,-863.699,0.145,-0.694,-0.140
-3.446,500.062,-864.062,0.005,-0.708,-0.112
-3.225,500.756,-863.592,-0.307,-0.690,-0.038
-4.078,501.946,-864.112,-0.605,-0.711,-0.113
-2.678,500.851,-863.688,-0.786,-0.690,-0.125
-3.113,502.124,-863.035,-0.772,-0.706,-0.071
-4.012,502.094,-863.962,-0.956,-0.771,-0.137
-3.268,501.745,-863.969,-1.309,-0.708,-0.136
-2.165,502.311,-864.040,-1.730,-0.739,-0.192
-2.364,501.311,-862.886,-2.073,-0.784,-0.185
-3.281,503.035,-861.016,-1.987,-0.765,-0.126
-2.824,503.770,-859.560,-1.243,-0.763,-0.136
-3.100,503.056,-860.390,-0.105,-0.689,-0.059
-3.000,504.000,-863.000,0.840,-0.700,-0.070
-2.023,502.343,-862.918,1.259,-0.821,-0.074
-2.666,501.062,-865.058,0.945,-0.909,-0.104
-3.238,500.417,-866.499,-0.109,-0.870,-0.205
-2.754,499.818,-864.811,-1.801,-0.830,-0.200
-3.385,501.993,-863.081,-3.238,-0.835,-0.223
-4.066,504.373,-860.329,-3.416,-0.741,-0.195
-3.977,505.005,-858.978,-2.332,-0.622,-0.137
-3.111,504.987,-858.991,-0.561,-0.560,-0.077
-1.991,505.120,-859.625,1.135,-0.616,-0.003
-2.673,503.707,-861.282,2.395,-0.604,-0.005
-3.111,502.082,-862.395,3.067,-0.522,0.010
-2.966,501.737,-863.452,3.049,-0.613,-0.013
-2.994,500.522,-865.567,2.293,-0.608,0.015
-3.017,500.064,-865.870,1.245,-0.563,-0.015
-3.000,501.000,-865.000,0.280,-0.630,-0.070
-2.954,501.889,-865.087,-0.707,-0.633,0.001
-3.125,502.137,-863.582,-1.366,-0.629,-0.097
-2.739,501.673,-862.069,-1.547,-0.628,-0.168
-3.661,502.462,-861.395,-1.269,-0.636,-0.100
-3.740,502.944,-860.831,-0.804,-0.611,-0.060
-2.936,503.044,-862.383,-0.278,-0.551,-0.083
-2.969,502.946,-862.981,0.396,-0.563,-0.142
-2.053,502.034,-862.949,0.700,-0.624,-0.141
-1.969,502.042,-863.849,0.513,-0.691,-0.141
-1.907,501.202,-863.915,0.018,-0.704,-0.132
-2.594,501.234,-863.824,-0.592,-0.698,-0.178
-2.778,501.945,-863.635,-1.373,-0.700,-0.218
-1.940,500.653,-862.564,-2.151,-0.701,-0.209
-3.204,502.492,-862.009,-2.289,-0.699,-0.209
-3.000,504.000,-862.000,-1.960,-0.700,-0.210
-2.814,502.920,-861.051,-1.312,-0.703,-0.218
-3.987,504.563,-861.627,-0.579,-0.690,-0.148
-3.402,504.614,-862.036,-0.176,-0.745,-0.177
-2.868,503.293,-861.960,-0.006,-0.775,-0.221
-3.059,502.587,-863.328,-0.195,-0.772,-0.209
-2.972,501.968,-862.523,-0.672,-0.761,-0.202
-3.008,503.120,-860.953,-0.990,-0.696,-0.136
-3.007,503.993,-860.990,-0.867,-0.698,-0.138
-2.987,503.961,-860.990,-0.409,-0.704,-0.143
-2.983,504.020,-860.838,0.214,-0.696,-0.138
-3.351,503.415,-861.163,0.895,-0.704,-0.140
-4.424,502.681,-862.398,1.188,-0.697,-0.143
-3.413,503.166,-863.153,1.039,-0.701,-0.136
-1.937,502.840,-864.107,0.525,-0.700,-0.144
-3.000,502.000,-863.000,-0.210,-0.700,-0.140
-4.020,502.811,-861.859,-0.557,-0.699,-0.072
-3.252,503.798,-862.472,-0.395,-0.707,-0.119
-3.274,504.093,-860.168,0.023,-0.657,-0.149
-4.546,503.396,-860.419,0.397,-0.637,-0.139
-3.326,502.834,-860.614,0.824,-0.744,-0.125
-3.256,502.935,-861.562,1.360,-0.759,-0.058
-3.966,501.895,-864.053,1.378,-0.697,-0.074
-3.034,501.006,-863.051,0.887,-0.699,-0.136
-3.036,501.683,-863.764,0.224,-0.702,-0.152
-2.808,502.763,-863.391,-0.326,-0.697,-0.082
-3.673,502.885,-862.588,-0.450,-0.706,-0.098
-3.939,502.971,-862.740,-0.372,-0.678,-0.158
-4.176,502.907,-861.550,-0.084,-0.614,-0.122
-3.793,503.070,-861.001,0.527,-0.642,-0.062
-3.000,503.000,-862.000,1.190,-0.700,-0.070
-4.055,502.039,-863.855,1.477,-0.639,-0.137
-2.441,502.114,-864.011,1.249,-0.661,-0.133
-2.348,501.164,-863.952,0.771,-0.771,-0.190
-3.244,501.286,-863.531,0.124,-0.730,-0.186
-2.958,501.842,-864.476,-0.496,-0.711,-0.140
-2.864,500.856,-864.542,-0.927,-0.782,-0.228
-1.981,502.157,-861.905,-1.202,-0.767,-0.204
-2.906,503.044,-862.889,-1.199,-0.765,-0.143
-3.195,502.132,-863.076,-1.153,-0.880,-0.083
-2.238,501.840,-863.441,-1.475,-0.973,-0.091
-2.165,501.982,-863.573,-2.020,-0.978,-0.210
-3.835,501.754,-862.777,-2.580,-0.985,-0.173
-3.585,502.375,-864.297,-3.330,-0.969,-0.152
-3.189,504.241,-862.528,-3.989,-0.895,-0.213
-5.000,505.000,-860.000,-3.990,-0.770,-0.140
-4.125,506.672,-858.212,-3.191,-0.700,-0.070
-4.627,507.463,-857.785,-1.858,-0.708,-0.078
-4.781,505.835,-857.924,-0.298,-0.658,-0.026
-3.271,506.586,-858.556,1.383,-0.602,0.008
-2.933,506.497,-862.278,2.464,-0.528,-0.001
-3.167,504.524,-862.632,2.655,-0.489,-0.007
-4.012,502.893,-862.096,2.417,-0.487,-0.075
-3.085,502.021,-863.925,1.746,-0.424,-0.074
-2.871,501.969,-864.004,0.767,-0.412,-0.057
-3.115,502.385,-864.015,-0.609,-0.464,-0.126
-2.930,503.714,-862.885,-1.961,-0.512,-0.141
-3.005,503.764,-861.202,-2.583,-0.450,-0.144
-3.064,504.293,-860.957,-2.732,-0.432,-0.134
-2.873,505.023,-860.975,-2.360,-0.494,-0.147
-2.000,505.000,-860.000,-1.750,-0.490,-0.210
-3.660,505.066,-858.917,-1.217,-0.553,-0.215
-4.470,504.785,-860.421,-0.536,-0.519,-0.161
-2.617,505.365,-861.585,-0.075,-0.469,-0.119
-1.762,503.642,-862.025,0.005,-0.504,-0.185
-2.335,503.384,-861.442,-0.142,-0.491,-0.196
-3.095,505.096,-861.067,-0.321,-0.583,-0.130
-2.986,503.936,-862.050,-0.673,-0.550,-0.143
-2.998,504.881,-862.008,-1.409,-0.486,-0.204
-2.948,505.173,-862.098,-2.113,-0.561,-0.277
-3.621,505.202,-860.589,-2.536,-0.503,-0.237
-4.206,506.832,-859.475,-2.533,-0.526,-0.201
-3.852,506.738,-859.867,-2.200,-0.546,-0.197
-4.110,507.160,-858.427,-1.596,-0.485,-0.120
-3.905,506.853,-858.059,-0.798,-0.574,-0.149
-3.000,506.000,-858.000,-0.280,-0.560,-0.140
-2.053,505.963,-858.593,0.147,-0.603,-0.070
-2.556,506.108,-861.564,0.352,-0.762,-0.121
-3.805,505.233,-861.033,-0.074,-0.726,-0.151
-4.036,505.352,-858.894,-0.598,-0.699,-0.131
-3.830,507.798,-859.007,-0.646,-0.684,-0.150
-2.755,507.684,-858.858,-0.121,-0.615,-0.126
-3.110,507.026,-859.075,0.612,-0.556,-0.069
-4.044,507.090,-859.981,1.157,-0.554,-0.134
-2.398,505.293,-859.896,1.495,-0.677,-0.153
-1.682,504.792,-861.009,1.531,-0.714,-0.122
-2.597,504.885,-862.823,0.991,-0.690,-0.165
-3.360,505.209,-862.042,0.061,-0.706,-0.095
-4.203,506.162,-858.974,-0.390,-0.696,-0.087
-3.855,505.940,-858.213,0.032,-0.702,-0.139
-3.000,506.000,-861.000,0.700,-0.700,-0.070
-2.991,506.063,-861.244,1.087,-0.699,-0.061
-2.949,505.321,-859.953,1.230,-0.700,-0.129
-3.513,504.196,-860.432,1.343,-0.701,-0.115
-4.285,503.818,-861.220,1.410,-0.695,-0.037
-3.636,503.942,-862.325,1.066,-0.718,-0.113
-2.835,503.991,-862.923,0.411,-0.780,-0.125
-1.932,503.995,-861.930,-0.105,-0.767,-0.071
-1.924,503.979,-861.946,-0.648,-0.768,-0.137
-2.924,504.715,-862.201,-1.382,-0.779,-0.138
-2.943,505.730,-860.543,-1.904,-0.724,-0.186
-3.187,505.886,-859.096,-1.848,-0.661,-0.217
-2.502,506.202,-858.755,-1.130,-0.617,-0.212
-2.118,507.092,-859.151,0.011,-0.639,-0.196
-3.106,505.686,-860.165,0.949,-0.625,-0.135
-3.000,505.000,-861.000,1.330,-0.630,-0.140
-2.980,505.238,-861.833,1.247,-0.692,-0.137
-2.986,503.166,-862.796,0.607,-0.747,-0.191
-3.123,504.036,-862.986,-0.596,-0.796,-0.220
-2.461,504.822,-862.405,-1.790,-0.717,-0.206
-2.293,503.863,-861.571,-2.562,-0.724,-0.210
-4.426,506.805,-860.565,-3.008,-0.765,-0.213
-3.852,507.931,-857.813,-2.822,-0.697,-0.206
-2.938,506.984,-857.826,-1.779,-0.701,-0.142
-4.003,507.867,-859.862,-0.530,-0.643,-0.190
-3.236,507.435,-859.762,0.395,-0.658,-0.229
-3.412,506.245,-860.060,0.868,-0.733,-0.170
-3.980,505.561,-859.472,1.042,-0.653,-0.113
-2.607,504.802,-860.602,0.979,-0.644,-0.058
-3.250,505.084,-862.012,0.271,-0.706,-0.078
-4.000,505.000,-861.000,-0.700,-0.700,-0.140
-3.019,504.870,-860.162,-1.221,-0.697,-0.148
-3.758,505.829,-859.067,-1.314,-0.709,-0.081
-3.641,506.276,-859.054,-0.963,-0.657,-0.073
-2.631,507.781,-857.878,-0.126,-0.621,-0.041
-3.296,507.298,-856.784,1.017,-0.633,0.008
-2.705,505.862,-858.403,2.117,-0.634,0.006
-2.023,505.955,-860.145,2.755,-0.707,0.074
-2.940,504.141,-861.911,2.692,-0.769,0.011
-3.092,503.760,-862.725,2.041,-0.770,-0.074
-2.861,504.196,-863.864,0.891,-0.771,-0.050
-3.489,503.544,-862.506,-0.466,-0.768,-0.146
-4.262,504.648,-859.939,-1.221,-0.771,-0.233
-3.664,506.451,-860.109,-1.165,-0.771,-0.189
-3.030,506.947,-859.899,-0.406,-0.766,-0.136
-4.000,506.000,-859.000,0.700,-0.700,-0.140
-3.311,505.977,-858.774,1.743,-0.692,-0.142
-1.842,504.893,-861.220,2.466,-0.718,-0.135
-3.253,502.151,-862.618,2.340,-0.645,-0.150
-4.017,502.389,-863.565,1.814,-0.636,-0.109
-2.279,502.929,-865.205,1.213,-0.607,-0.059
-2.298,503.135,-863.224,0.467,-0.555,-0.076
-4.094,504.045,-860.952,-0.025,-0.560,-0.067
-4.051,504.020,-861.891,-0.204,-0.559,-0.004
-3.909,503.966,-862.260,-0.261,-0.564,0.011
-3.680,503.929,-860.893,-0.345,-0.547,-0.052
-1.942,503.908,-861.410,-0.310,-0.606,-0.073
-2.834,503.867,-861.666,-0.292,-0.615,-0.085
-4.039,504.064,-860.713,-0.371,-0.544,-0.160
-2.824,503.889,-861.201,-0.432,-0.569,-0.126
-3.000,503.000,-863.000,-0.560,-0.630,-0.070
-3.925,503.760,-863.241,-0.789,-0.639,-0.131
-4.101,504.907,-861.305,-1.124,-0.568,-0.147
-3.474,504.897,-860.860,-1.201,-0.594,-0.134
-2.488,504.906,-860.343,-0.960,-0.645,-0.144
-1.773,504.946,-859.973,-0.514,-0.622,-0.137
-2.337,504.866,-861.156,-0.153,-0.633,-0.142
-4.066,503.962,-860.986,0.014,-0.629,-0.139
-3.131,504.869,-861.873,0.202,-0.630,-0.139
-2.714,505.375,-862.996,0.134,-0.625,-0.142
-3.454,503.289,-862.275,-0.210,-0.678,-0.137
-2.050,503.201,-861.206,-0.493,-0.685,-0.144
-2.517,504.467,-860.688,-0.422,-0.597,-0.134
-2.927,504.918,-861.212,-0.353,-0.664,-0.154
-3.164,503.864,-862.057,-0.331,-0.692,-0.218
-4.000,505.000,-861.000,-0.070,-0.630,-0.210
-2.279,506.229,-859.903,0.338,-0.689,-0.143
-1.683,504.140,-860.894,0.871,-0.711,-0.185
-2.769,504.726,-860.647,1.083,-0.690,-0.228
-2.986,503.966,-861.493,1.194,-0.710,-0.194
-3.233,503.179,-861.526,1.264,-0.691,-0.226
-4.090,505.173,-861.083,1.404,-0.707,-0.193
-2.863,502.749,-862.008,1.844,-0.697,-0.139
-2.847,501.891,-861.050,1.774,-0.695,-0.141
-4.251,503.012,-861.694,1.554,-0.767,-0.136
-2.315,502.790,-861.983,1.475,-0.727,-0.147
-2.622,502.778,-862.485,1.239,-0.688,-0.128
-2.552,501.017,-864.577,0.814,-0.706,-0.155
-2.438,501.497,-863.235,0.160,-0.697,-0.123
-5.334,503.115,-861.970,-0.062,-0.701,-0.156
-5.000,503.000,-862.000,0.140,-0.700,-0.210
-4.067,502.997,-861.905,0.381,-0.700,-0.080
-3.300,502.945,-862.754,0.599,-0.698,-0.117
-2.821,503.074,-863.324,0.621,-0.708,-0.115
-3.091,502.150,-864.521,0.421,-0.670,-0.067
-3.008,500.275,-864.622,-0.098,-0.619,-0.187
-2.858,500.108,-863.877,-0.783,-0.635,-0.205
-1.979,501.079,-864.000,-1.374,-0.629,-0.212
-2.904,501.943,-863.113,-1.981,-0.629,-0.212
-3.163,502.759,-862.043,-2.563,-0.632,-0.204
-2.853,503.676,-861.876,-2.816,-0.627,-0.219
-2.800,503.983,-861.797,-2.680,-0.633,-0.199
-1.447,503.860,-861.706,-2.364,-0.627,-0.224
-2.686,504.017,-860.460,-1.966,-0.632,-0.189
-3.997,503.984,-860.164,-1.458,-0.629,-0.138
-3.000,504.000,-862.000,-0.980,-0.630,-0.140
-2.935,504.052,-862.102,-0.664,-0.630,-0.081
-3.078,503.269,-861.836,-0.536,-0.633,-0.054
-2.924,503.037,-862.048,-0.738,-0.596,-0.119
-3.063,505.191,-861.323,-1.086,-0.535,-0.146
-2.958,505.707,-860.735,-1.206,-0.594,-0.137
-3.008,504.969,-861.045,-1.178,-0.623,-0.142
-3.023,506.094,-860.978,-1.030,-0.556,-0.138
-3.930,506.084,-860.961,-0.662,-0.557,-0.075
-3.502,505.080,-861.797,-0.363,-0.613,-0.056
-1.758,504.905,-862.045,-0.462,-0.688,-0.128
-3.258,504.876,-861.290,-0.673,-0.676,-0.135
-3.842,504.942,-860.643,-0.714,-0.605,-0.166
-2.777,504.938,-861.156,-0.950,-0.657,-0.216
-3.123,505.077,-860.821,-1.397,-0.697,-0.212
-4.000,506.000,-860.000,-1.750,-0.630,-0.280
-3.324,506.133,-861.748,-2.000,-0.623,-0.343
-1.743,505.101,-861.605,-2.178,-0.646,-0.402
-3.529,505.373,-860.262,-2.428,-0.550,-0.432
-3.246,506.184,-861.466,-2.796,-0.440,-0.410
-1.902,505.666,-859.919,-3.111,-0.419,-0.427
-3.240,506.317,-859.021,-3.236,-0.418,-0.415
-2.981,508.120,-858.920,-3.293,-0.422,-0.422
-3.913,508.979,-857.981,-3.234,-0.483,-0.422
-3.458,509.027,-858.886,-3.035,-0.553,-0.414
-2.441,508.826,-858.310,-3.007,-0.562,-0.433
-4.011,509.362,-857.282,-2.944,-0.559,-0.380
-3.447,510.146,-856.357,-2.628,-0.559,-0.329
-3.156,509.806,-855.924,-2.149,-0.561,-0.252
-4.114,510.161,-856.029,-1.596,-0.559,-0.211
-4.000,511.000,-857.000,-1.120,-0.560,-0.210
-2.248,510.157,-858.045,-0.907,-0.618,-0.142
-2.256,509.781,-857.651,-1.051,-0.688,-0.192
-4.318,510.575,-859.334,-1.250,-0.705,-0.185
-2.772,510.998,-859.220,-1.435,-0.698,-0.116
-2.262,510.983,-857.158,-1.566,-0.691,-0.155
-2.930,512.400,-855.455,-1.399,-0.606,-0.132
-1.979,512.922,-854.047,-0.856,-0.562,-0.141
-2.916,511.103,-856.785,-0.120,-0.626,-0.080
-3.105,510.905,-857.345,0.400,-0.635,0.008
-2.979,510.460,-856.397,0.754,-0.622,-0.058
-2.564,509.469,-857.698,0.840,-0.662,-0.060
-1.999,510.503,-857.475,0.538,-0.721,-0.105
-3.421,510.963,-856.852,0.306,-0.674,-0.129
-2.728,511.050,-857.050,0.283,-0.633,-0.068
-2.000,511.000,-857.000,0.280,-0.700,-0.140
-3.785,510.095,-856.919,0.163,-0.704,-0.148
-4.168,509.888,-857.193,0.066,-0.696,-0.129
-3.861,510.410,-856.384,0.114,-0.703,-0.153
-4.118,511.269,-858.094,0.150,-0.698,-0.125
-3.896,510.354,-858.245,0.130,-0.701,-0.156
-4.087,510.256,-855.538,0.167,-0.700,-0.121
-3.944,512.078,-856.110,0.532,-0.700,-0.071
-3.046,511.152,-856.944,1.090,-0.700,-0.135
-2.939,509.972,-858.524,1.219,-0.702,-0.147
-3.075,510.031,-859.274,1.090,-0.694,-0.129
-2.870,509.745,-858.400,0.924,-0.712,-0.176
-3.385,510.070,-859.288,0.457,-0.667,-0.226
-4.016,509.828,-858.442,0.041,-0.636,-0.190
-2.783,510.153,-858.211,-0.165,-0.709,-0.136
-3.000,511.000,-860.000,-0.280,-0.700,-0.140
-4.085,510.205,-859.186,-0.499,-0.695,-0.138
-3.044,509.082,-858.869,-0.905,-0.712,-0.187
-3.697,509.352,-858.127,-0.988,-0.654,-0.230
-3.616,510.222,-855.580,-0.761,-0.622,-0.171
-3.086,509.645,-856.744,-0.273,-0.636,-0.134
-4.119,510.211,-857.863,0.107,-0.625,-0.142
-2.854,509.881,-857.033,-0.014,-0.634,-0.139
-1.975,508.933,-858.882,-0.128,-0.698,-0.138
-2.748,510.722,-858.452,-0.499,-0.652,-0.195
-3.833,510.469,-857.323,-0.943,-0.603,-0.223
-3.586,509.544,-858.812,-0.959,-0.687,-0.196
-3.000,510.378,-858.153,-1.026,-0.675,-0.226
-4.404,511.100,-856.550,-0.877,-0.623,-0.187
-3.760,510.944,-855.968,-0.332,-0.630,-0.139
-3.000,511.000,-856.000,0.140,-0.630,-0.140
-3.076,511.120,-855.975,0.502,-0.693,-0.077
-2.822,510.110,-856.596,0.912,-0.664,-0.066
-3.285,510.029,-857.586,1.333,-0.595,-0.068
-2.593,509.345,-858.117,1.568,-0.689,-0.095
-3.643,508.979,-859.409,1.594,-0.671,-0.156
-3.660,508.676,-859.857,1.290,-0.638,-0.130
-1.958,506.945,-858.963,0.650,-0.701,-0.145
-2.901,507.899,-859.006,0.162,-0.636,-0.209
-3.205,508.105,-858.253,0.012,-0.618,-0.158
-2.197,508.364,-857.563,-0.067,-0.648,-0.125
-2.293,509.235,-858.514,-0.303,-0.585,-0.155
-3.406,508.846,-858.678,-0.437,-0.558,-0.126
-2.658,510.601,-857.552,-0.155,-0.551,-0.154
-3.274,510.860,-857.044,0.370,-0.476,-0.128
-4.000,510.000,-858.000,0.980,-0.420,-0.070
-2.916,509.216,-858.098,1.321,-0.419,-0.074
-4.076,508.036,-857.730,1.247,-0.423,-0.055
-2.596,508.041,-859.039,0.997,-0.388,-0.127
-2.670,507.632,-860.201,0.397,-0.320,-0.110
-4.149,508.408,-859.441,-0.317,-0.400,-0.067
-2.721,508.844,-858.909,-0.683,-0.499,-0.059
-3.055,507.999,-859.044,-0.771,-0.491,0.001
-3.026,508.934,-859.953,-0.766,-0.554,-0.065
-3.025,509.017,-859.400,-0.882,-0.574,-0.074
-2.330,509.517,-857.875,-0.878,-0.505,-0.106
-2.256,509.740,-857.968,-0.514,-0.485,-0.161
-3.335,508.429,-857.822,-0.109,-0.492,-0.124
-2.819,509.347,-859.665,0.112,-0.488,-0.150
-3.076,508.737,-859.710,0.040,-0.491,-0.135
-3.000,508.000,-858.000,-0.210,-0.490,-0.140
-2.954,509.015,-859.726,-0.441,-0.488,-0.145
-3.062,508.145,-860.192,-0.913,-0.495,-0.128
-2.950,508.428,-859.724,-1.600,-0.481,-0.184
-3.011,508.971,-859.676,-2.186,-0.507,-0.239
-3.050,509.296,-857.989,-2.539,-0.448,-0.299
-2.845,511.359,-855.418,-2.355,-0.335,-0.261
-1.978,510.896,-855.121,-1.772,-0.353,-0.210
-2.894,510.878,-856.953,-1.167,-0.351,-0.213
-3.252,512.125,-856.247,-0.558,-0.396,-0.150
-2.139,510.519,-855.690,0.042,-0.479,-0.139
-2.043,509.689,-856.169,0.636,-0.513,-0.111
-1.889,509.957,-857.765,0.869,-0.605,-0.050
-2.223,510.115,-858.991,0.441,-0.625,-0.091
-3.098,511.142,-857.845,-0.231,-0.638,-0.144
-3.000,511.000,-858.000,-0.560,-0.700,-0.140
-2.109,510.070,-858.097,-0.619,-0.701,-0.135
-1.880,509.919,-857.224,-0.695,-0.700,-0.191
-2.185,510.354,-856.669,-0.644,-0.697,-0.226
-1.482,511.570,-857.005,-0.407,-0.705,-0.175
-1.049,511.757,-856.672,0.063,-0.691,-0.131
-2.350,510.717,-857.145,0.491,-0.715,-0.144
-2.996,509.974,-856.926,0.636,-0.770,-0.139
-2.974,509.987,-856.888,0.640,-0.706,-0.139
-3.147,510.023,-858.111,0.407,-0.691,-0.145
-2.182,509.871,-856.870,0.269,-0.711,-0.131
-2.397,509.949,-857.593,0.292,-0.688,-0.156
-3.222,509.848,-857.306,0.295,-0.712,-0.103
-2.893,510.044,-857.389,0.496,-0.688,-0.079
-3.039,509.962,-859.066,0.636,-0.712,-0.147
-3.000,510.000,-858.000,0.630,-0.770,-0.140
-3.018,510.089,-857.972,0.690,-0.707,-0.138
-2.351,509.198,-857.819,0.684,-0.739,-0.142
-1.716,508.834,-859.093,0.403,-0.798,-0.139
-2.281,508.900,-859.718,0.022,-0.722,-0.140
-1.711,508.973,-858.550,-0.062,-0.703,-0.142
-2.319,508.841,-859.110,0.005,-0.693,-0.137
-2.957,507.969,-858.962,-0.164,-0.705,-0.143
-2.016,508.863,-858.107,-0.478,-0.769,-0.206
-2.759,510.053,-856.945,-0.369,-0.716,-0.215
-3.170,509.148,-857.698,-0.031,-0.688,-0.206
-2.845,509.232,-857.245,-0.045,-0.709,-0.211
-3.319,510.208,-857.161,-0.037,-0.693,-0.213
-4.265,509.795,-857.864,0.127,-0.704,-0.198
-3.748,510.112,-857.036,0.401,-0.698,-0.132
-2.000,510.000,-859.000,0.630,-0.700,-0.140
-2.788,509.026,-859.106,0.465,-0.702,-0.149
-3.233,509.079,-859.529,0.170,-0.697,-0.078
-2.762,508.664,-859.796,-0.189,-0.704,-0.102
-3.228,509.545,-857.827,-0.476,-0.696,-0.161
-2.794,509.670,-858.267,-0.624,-0.703,-0.122
-3.166,508.905,-859.042,-0.917,-0.697,-0.159
-2.908,508.998,-858.969,-1.124,-0.701,-0.209
-1.983,508.963,-858.073,-0.999,-0.701,-0.144
-2.869,509.839,-857.856,-0.791,-0.695,-0.134
-2.507,509.948,-858.018,-0.768,-0.711,-0.145
-1.628,509.999,-857.654,-0.740,-0.659,-0.135
-2.562,509.477,-858.000,-0.683,-0.624,-0.144
-2.886,509.061,-857.857,-0.717,-0.630,-0.136
-1.860,510.129,-858.074,-0.778,-0.635,-0.145
-2.000,510.000,-858.000,-0.770,-0.700,-0.210
-2.939,509.949,-857.854,-0.695,-0.707,-0.221
-3.002,510.048,-858.924,-0.874,-0.686,-0.144
-3.080,509.872,-858.271,-1.212,-0.751,-0.182
-2.606,509.866,-857.717,-1.425,-0.754,-0.197
-1.773,510.139,-857.726,-1.455,-0.665,-0.115
-2.206,511.159,-856.689,-1.274,-0.628,-0.161
-3.036,510.953,-855.978,-0.949,-0.630,-0.209
-3.019,510.938,-855.976,-0.462,-0.630,-0.147
-2.957,511.895,-856.717,0.044,-0.632,-0.077
-3.057,511.462,-857.636,0.372,-0.625,-0.068
-2.936,510.124,-857.950,0.390,-0.639,-0.067
-3.056,509.951,-857.514,0.166,-0.603,-0.091
-2.970,509.889,-856.796,-0.073,-0.552,-0.153
-2.971,510.123,-857.080,-0.313,-0.562,-0.135
-2.000,511.000,-857.000,-0.420,-0.560,-0.140
-1.796,511.000,-856.892,-0.420,-0.618,-0.145
-3.050,511.053,-857.265,-0.388,-0.649,-0.129
-2.243,510.708,-855.910,-0.204,-0.573,-0.159
-2.370,511.524,-856.637,0.104,-0.581,-0.094
-3.149,511.529,-858.182,0.348,-0.659,-0.086
-2.912,509.644,-857.856,0.326,-0.707,-0.149
-1.874,510.112,-858.040,0.200,-0.698,-0.138
-0.939,511.002,-858.052,0.016,-0.696,-0.138
-2.712,510.886,-857.148,-0.095,-0.764,-0.188
-2.557,511.654,-856.746,0.137,-0.733,-0.280
-1.713,511.639,-856.929,0.552,-0.680,-0.214
-2.123,510.450,-856.740,1.090,-0.716,-0.113
-2.088,511.499,-857.078,1.365,-0.686,-0.154
-3.142,511.815,-856.929,1.423,-0.713,-0.134
-3.000,510.000,-857.000,1.680,-0.770,-0.140
-2.961,509.978,-857.929,1.704,-0.709,-0.145
-2.458,509.329,-857.954,1.531,-0.693,-0.131
-1.532,508.753,-858.353,1.278,-0.705,-0.151
-2.792,508.653,-859.122,0.963,-0.697,-0.127
-2.683,507.747,-858.429,0.771,-0.702,-0.152
-1.922,509.496,-858.052,0.604,-0.699,-0.130
-2.023,509.919,-859.047,0.635,-0.700,-0.146
-2.887,509.000,-858.123,0.573,-0.700,-0.209
-4.020,509.137,-858.305,0.478,-0.701,-0.205
-3.292,508.077,-860.896,0.470,-0.698,-0.227
-2.986,508.322,-859.584,0.036,-0.704,-0.157
-2.667,509.105,-858.890,-0.330,-0.692,-0.167
-1.982,508.887,-858.601,-0.458,-0.717,-0.203
-3.197,509.055,-858.170,-0.575,-0.775,-0.136
-3.000,509.000,-860.000,-0.770,-0.770,-0.210
-2.020,508.071,-859.137,-1.257,-0.827,-0.278
-2.059,508.556,-859.549,-1.635,-0.859,-0.281
-1.887,509.300,-860.113,-2.171,-0.788,-0.273
-2.147,508.423,-859.483,-3.134,-0.753,-0.325
-1.831,509.708,-858.107,-4.015,-0.647,-0.482
-2.201,511.067,-856.998,-4.580,-0.550,-0.570
-3.052,511.032,-858.009,-4.843,-0.561,-0.557
-3.921,511.933,-856.168,-4.908,-0.559,-0.495
-4.231,512.740,-855.761,-4.602,-0.612,-0.435
-3.116,513.758,-855.513,-4.075,-0.651,-0.368
-3.124,513.817,-854.716,-3.750,-0.579,-0.343
-2.753,514.124,-856.417,-3.543,-0.577,-0.354
-3.395,513.584,-853.820,-3.265,-0.646,-0.348
-3.918,513.147,-853.310,-2.974,-0.620,-0.350
-3.000,515.000,-855.000,-2.870,-0.560,-0.350
-3.014,515.035,-854.035,-2.819,-0.554,-0.350
-2.889,515.623,-854.177,-2.650,-0.614,-0.348
-3.274,516.138,-852.966,-2.463,-0.613,-0.353
-2.300,515.745,-853.385,-2.281,-0.499,-0.345
-2.307,515.985,-853.615,-2.110,-0.515,-0.358
-3.030,516.032,-852.937,-2.016,-0.561,-0.337
-3.030,517.116,-852.958,-1.953,-0.563,-0.277
-3.077,518.013,-852.034,-1.829,-0.626,-0.279
-1.972,517.185,-852.058,-1.758,-0.634,-0.281
-2.836,517.223,-851.097,-1.659,-0.628,-0.280
-2.447,518.895,-851.178,-1.238,-0.629,-0.278
-2.206,518.374,-852.248,-0.650,-0.633,-0.283
-3.267,518.077,-853.378,-0.403,-0.624,-0.276
-4.170,517.814,-853.877,-0.600,-0.638,-0.284
-4.000,517.000,-852.000,-0.700,-0.700,-0.280
-1.993,518.829,-851.883,-0.520,-0.701,-0.217
-3.579,518.353,-852.100,-0.378,-0.704,-0.203
-3.518,518.245,-851.785,-0.258,-0.661,-0.245
-3.271,518.907,-851.759,0.069,-0.617,-0.307
-3.931,517.477,-852.198,0.490,-0.637,-0.241
-2.937,518.154,-852.910,0.532,-0.627,-0.223
-4.066,516.819,-852.017,0.420,-0.631,-0.279
-3.132,515.926,-854.730,0.431,-0.630,-0.213
-2.713,516.959,-855.616,0.054,-0.633,-0.258
-3.863,516.816,-852.905,-0.367,-0.588,-0.301
-4.012,517.030,-853.585,-0.434,-0.543,-0.236
-3.971,516.956,-853.447,-0.371,-0.574,-0.202
-4.068,518.461,-852.956,-0.134,-0.548,-0.217
-3.894,517.660,-852.912,-0.081,-0.571,-0.202
-3.000,517.000,-852.000,-0.070,-0.630,-0.140
-2.949,519.010,-851.954,0.235,-0.573,-0.138
-3.622,517.365,-852.030,0.472,-0.502,-0.143
-4.465,517.839,-851.799,0.914,-0.479,-0.113
-3.066,519.074,-851.869,1.690,-0.520,-0.014
-3.750,517.210,-851.790,2.289,-0.572,-0.025
-4.870,516.990,-852.163,2.562,-0.553,-0.065
-2.888,515.871,-854.220,2.663,-0.564,0.002
-2.956,514.995,-856.868,2.489,-0.627,-0.062
-3.018,515.058,-857.284,1.656,-0.634,-0.135
-3.146,514.800,-855.008,0.649,-0.624,-0.145
-2.264,515.050,-852.592,0.290,-0.639,-0.129
-2.628,514.691,-853.829,0.474,-0.605,-0.173
-4.146,515.407,-854.760,0.802,-0.549,-0.203
-2.796,517.221,-852.804,1.198,-0.564,-0.133
-3.000,517.000,-854.000,1.960,-0.560,-0.140
-3.090,515.150,-855.081,2.738,-0.556,-0.079
-2.885,514.997,-854.716,2.814,-0.569,-0.104
-3.090,513.988,-855.676,2.513,-0.543,-0.171
-2.983,511.981,-855.652,2.228,-0.604,-0.108
-2.808,512.086,-856.419,1.874,-0.615,-0.182
-1.811,511.831,-858.256,1.204,-0.556,-0.197
-2.069,512.095,-857.901,0.206,-0.639,-0.138
-2.953,513.024,-856.154,-0.465,-0.702,-0.140
-3.107,512.056,-854.283,-0.536,-0.643,-0.136
-2.753,513.038,-853.598,-0.204,-0.620,-0.151
-3.792,514.470,-854.447,0.367,-0.640,-0.101
-3.360,513.207,-854.905,0.985,-0.618,-0.060
-1.829,513.105,-855.081,1.560,-0.649,-0.083
-3.243,512.853,-856.199,1.833,-0.704,-0.150
-3.000,512.000,-857.000,1.680,-0.700,-0.140
-2.007,512.044,-857.803,1.211,-0.700,-0.070
-2.041,511.269,-858.380,0.635,-0.700,-0.122
-2.294,510.703,-856.390,0.229,-0.701,-0.148
-3.883,511.332,-856.082,-0.129,-0.697,-0.137
-3.453,512.148,-857.065,-0.472,-0.704,-0.140
-1.742,511.748,-856.932,-0.774,-0.696,-0.142
-2.082,511.006,-856.986,-1.065,-0.702,-0.139
-2.969,511.922,-856.086,-1.060,-0.704,-0.138
-3.028,512.138,-855.786,-0.973,-0.639,-0.147
-2.978,511.673,-856.642,-1.035,-0.629,-0.123
-3.014,512.576,-856.885,-1.065,-0.623,-0.191
-2.990,512.687,-856.803,-1.224,-0.656,-0.188
-3.006,511.767,-857.034,-1.605,-0.707,-0.132
-2.996,512.088,-856.915,-2.109,-0.700,-0.140
-3.000,512.000,-856.000,-2.520,-0.700,-0.140
-3.009,512.652,-855.916,-2.708,-0.636,-0.202
-2.966,514.824,-856.150,-2.814,-0.671,-0.214
-3.108,514.283,-855.238,-2.630,-0.722,-0.210
-2.544,514.148,-854.372,-2.269,-0.680,-0.204
-2.020,515.162,-853.623,-2.155,-0.718,-0.231
-3.298,514.877,-854.226,-2.190,-0.681,-0.287
-2.881,515.050,-855.006,-2.486,-0.630,-0.279
-1.967,515.924,-854.121,-2.981,-0.633,-0.280
-2.874,516.837,-852.377,-3.085,-0.571,-0.277
-3.007,517.456,-850.966,-2.462,-0.558,-0.291
-3.063,518.742,-850.927,-1.198,-0.533,-0.237
-2.894,518.264,-850.425,0.245,-0.468,-0.210
-3.113,516.728,-850.092,1.722,-0.513,-0.196
-2.918,516.969,-852.485,3.028,-0.563,-0.135
-3.000,515.000,-855.000,3.430,-0.560,-0.140
-3.169,513.962,-855.919,2.975,-0.557,-0.138
-1.992,513.458,-856.104,2.252,-0.609,-0.150
-2.681,512.855,-855.315,1.598,-0.646,-0.089
-2.975,515.055,-854.246,1.279,-0.616,-0.092
-3.158,514.318,-853.831,1.296,-0.642,-0.152
-2.749,514.092,-853.847,1.553,-0.621,-0.138
-2.003,513.970,-852.999,2.078,-0.634,-0.138
-2.046,514.870,-854.815,2.749,-0.634,-0.074
-1.716,514.656,-855.366,3.333,-0.613,-0.068
-3.592,512.557,-854.316,3.642,-0.694,-0.031
-3.601,513.194,-855.749,3.824,-0.687,0.017
-2.860,510.808,-856.022,3.956,-0.722,-0.009
-3.011,512.885,-858.883,3.737,-0.668,-0.004
-2.990,510.051,-857.375,3.205,-0.637,-0.083
-2.000,509.000,-857.000,2.940,-0.630,-0.070
-1.693,512.662,-862.023,3.265,-0.548,0.001
-3.380,506.149,-858.047,2.865,-0.693,-0.048
-1.156,510.204,-858.138,1.864,-0.575,-0.114
-2.516,509.545,-859.738,1.847,-0.508,-0.154
-3.696,505.996,-857.557,1.604,-0.676,-0.126
-1.888,509.068,-860.569,0.704,-0.604,-0.158
-3.039,505.897,-858.743,0.035,-0.558,-0.209
-2.055,508.795,-858.755,-0.025,-0.494,-0.145
-2.782,507.557,-860.469,0.249,-0.529,-0.134
-2.441,508.416,-857.428,-0.162,-0.632,-0.142
-2.307,509.780,-857.147,-0.128,-0.593,-0.164
-2.922,507.426,-858.314,0.453,-0.545,-0.236
-1.916,509.084,-859.110,0.671,-0.580,-0.182
-3.129,505.530,-858.979,0.574,-0.633,-0.141
-2.000,508.000,-860.000,-0.070,-0.630,-0.140
-1.842,508.611,-861.060,-0.398,-0.691,-0.132
-2.169,506.255,-860.184,-0.760,-0.706,-0.203
-2.284,508.920,-859.464,-1.416,-0.701,-0.173
-3.470,507.978,-857.716,-1.542,-0.675,-0.128
-2.617,508.628,-856.891,-1.390,-0.616,-0.144
-3.347,510.034,-858.233,-1.028,-0.636,-0.140
-3.961,508.884,-857.911,-0.754,-0.629,-0.138
-3.047,507.992,-857.009,-0.393,-0.629,-0.075
-2.945,508.791,-857.668,0.097,-0.631,-0.063
-3.057,508.976,-858.765,0.071,-0.630,-0.078
-2.931,509.310,-858.357,-0.056,-0.625,-0.063
-3.081,509.897,-857.844,-0.112,-0.653,-0.074
-2.913,508.620,-859.529,-0.397,-0.711,-0.075
-3.072,509.164,-859.888,-0.935,-0.696,-0.156
-3.000,509.000,-859.000,-1.540,-0.700,-0.210
-2.023,508.799,-858.984,-1.973,-0.702,-0.204
-2.688,509.994,-858.966,-2.374,-0.697,-0.265
-3.188,509.638,-858.927,-2.888,-0.703,-0.286
-2.824,510.604,-858.458,-3.456,-0.697,-0.277
-3.330,510.570,-857.465,-3.956,-0.702,-0.281
-4.027,510.124,-856.882,-4.236,-0.699,-0.280
-2.891,512.164,-857.038,-4.189,-0.700,-0.280
-2.899,513.016,-857.063,-4.124,-0.700,-0.280
-3.358,512.894,-856.047,-4.293,-0.701,-0.282
-1.814,513.531,-856.484,-4.503,-0.694,-0.273
-2.987,514.509,-856.669,-4.879,-0.732,-0.312
-2.045,515.003,-855.141,-5.255,-0.789,-0.380
-1.273,515.035,-855.065,-5.452,-0.749,-0.438
-3.160,516.282,-854.862,-5.704,-0.697,-0.500
-3.000,518.000,-853.000,-5.670,-0.700,-0.560
-3.908,518.874,-850.305,-5.099,-0.646,-0.569
-3.371,519.763,-849.627,-4.119,-0.562,-0.463
-2.829,520.048,-850.690,-3.064,-0.600,-0.331
-2.994,519.763,-850.702,-2.262,-0.641,-0.232
-3.301,520.062,-851.199,-1.723,-0.626,-0.222
-3.974,519.794,-852.044,-1.636,-0.626,-0.297
-2.940,518.972,-852.025,-1.915,-0.553,-0.354
-3.000,519.001,-852.936,-2.217,-0.491,-0.416
-2.207,518.892,-852.511,-2.526,-0.490,-0.425
-2.381,520.085,-849.707,-2.676,-0.492,-0.417
-3.722,521.795,-848.111,-2.218,-0.463,-0.402
-4.347,521.783,-847.496,-1.119,-0.395,-0.292
-5.028,522.149,-846.879,0.197,-0.448,-0.174
-3.804,521.806,-848.390,1.435,-0.489,-0.053
-4.000,520.000,-851.000,2.310,-0.490,-0.000
-4.177,519.078,-852.761,2.552,-0.557,0.053
-3.062,518.296,-853.897,2.023,-0.513,0.142
-3.145,517.639,-853.805,1.126,-0.476,0.094
-2.476,518.403,-853.736,0.404,-0.499,0.069
-2.078,519.206,-851.902,-0.234,-0.484,0.053
-3.277,520.162,-851.196,-0.617,-0.493,-0.009
-2.864,519.943,-853.059,-0.779,-0.489,0.001
-1.051,519.918,-851.232,-0.724,-0.489,0.000
-1.706,520.981,-849.785,-0.258,-0.491,0.003
-2.207,520.253,-850.688,0.222,-0.488,-0.042
-2.129,519.772,-851.157,0.781,-0.491,-0.087
-3.815,519.971,-852.286,1.178,-0.490,-0.057
-3.671,519.868,-851.496,1.314,-0.487,-0.081
-3.056,518.781,-851.111,1.673,-0.495,-0.060
-4.000,518.000,-852.000,1.960,-0.560,0.000
-3.215,518.069,-852.000,2.086,-0.566,0.002
-2.685,517.724,-851.493,2.177,-0.551,-0.004
-3.835,518.904,-849.767,2.592,-0.574,0.032
-3.687,517.673,-850.751,3.595,-0.524,0.114
-2.553,515.454,-852.202,4.481,-0.481,0.143
-2.019,516.075,-853.308,4.902,-0.499,0.139
-3.097,514.887,-853.947,5.207,-0.565,0.141
-3.103,514.924,-852.964,5.635,-0.565,0.202
-1.962,514.581,-855.300,5.993,-0.494,0.277
-2.741,512.067,-856.465,5.926,-0.528,0.272
-2.997,512.559,-854.841,5.649,-0.605,0.318
-3.157,512.420,-855.472,5.623,-0.638,0.361
-2.576,510.424,-857.513,5.668,-0.624,0.338
-0.815,510.044,-857.926,5.584,-0.633,0.267
-1.000,510.000,-858.000,5.460,-0.630,0.210
-1.907,509.085,-860.678,5.118,-0.624,0.157
-2.145,508.978,-860.643,4.602,-0.646,0.027
-1.383,508.474,-859.234,4.346,-0.572,-0.010
-0.824,507.302,-860.685,4.344,-0.589,0.004
-1.268,506.672,-860.660,4.166,-0.635,-0.000
-2.179,505.738,-861.228,3.732,-0.638,-0.001
-1.920,504.950,-862.038,3.094,-0.704,0.001
-1.018,504.072,-862.907,2.303,-0.702,0.002
-1.048,503.802,-863.262,1.459,-0.700,-0.007
-0.810,504.686,-861.899,0.654,-0.665,0.018
-1.683,505.230,-862.087,0.156,-0.578,-0.054
-1.734,506.627,-861.219,-0.095,-0.572,-0.043
-0.843,506.601,-861.251,-0.120,-0.660,-0.006
-1.038,504.820,-861.947,-0.082,-0.699,-0.077
-1.000,505.000,-861.000,-0.350,-0.700,-0.070
-1.007,505.093,-861.834,-0.603,-0.764,-0.126
-0.933,504.270,-862.093,-0.848,-0.769,-0.196
-1.487,503.566,-861.895,-1.352,-0.806,-0.252
-2.631,504.896,-861.091,-1.877,-0.858,-0.292
-2.730,505.917,-859.565,-2.182,-0.817,-0.274
-0.487,504.824,-861.553,-2.250,-0.759,-0.283
-1.226,506.163,-861.881,-2.398,-0.775,-0.279
-3.090,507.032,-860.075,-2.644,-0.840,-0.280
-0.395,506.863,-859.917,-2.867,-0.786,-0.280
-0.920,507.090,-859.942,-3.262,-0.759,-0.280
-3.037,506.988,-859.428,-3.629,-0.778,-0.279
-2.637,508.763,-858.308,-3.738,-0.765,-0.280
-1.773,508.735,-857.925,-3.803,-0.772,-0.287
-2.195,509.238,-858.021,-3.747,-0.770,-0.363
-3.000,510.000,-858.000,-3.290,-0.770,-0.350
-2.020,509.796,-857.117,-2.731,-0.766,-0.220
-2.810,511.129,-857.399,-2.365,-0.820,-0.209
-2.465,509.906,-858.942,-2.355,-0.852,-0.199
-2.196,510.912,-857.925,-2.778,-0.829,-0.251
-3.247,511.914,-856.444,-3.074,-0.850,-0.266
-2.942,512.334,-855.762,-2.945,-0.827,-0.203
-2.971,514.033,-854.979,-2.391,-0.767,-0.209
-2.036,513.069,-855.012,-1.475,-0.768,-0.145
-2.743,513.004,-854.838,-0.583,-0.775,-0.133
-2.663,512.228,-856.166,-0.064,-0.761,-0.146
-1.488,511.919,-857.167,-0.010,-0.784,-0.137
-2.636,511.460,-856.618,-0.150,-0.737,-0.139
-2.987,511.149,-857.127,-0.463,-0.699,-0.145
-2.974,511.992,-856.925,-0.721,-0.693,-0.132
-2.000,511.000,-857.000,-0.840,-0.630,-0.070
-1.807,511.818,-857.107,-1.153,-0.687,-0.128
-2.999,512.087,-856.167,-1.186,-0.714,-0.151
-2.383,512.346,-855.786,-0.978,-0.686,-0.130
-1.897,513.133,-855.831,-0.812,-0.712,-0.147
-2.023,512.849,-855.880,-0.498,-0.690,-0.136
-2.009,512.884,-855.945,-0.237,-0.707,-0.140
-1.986,511.971,-856.045,-0.221,-0.697,-0.142
-1.961,512.899,-856.956,-0.531,-0.697,-0.205
-2.857,513.170,-856.404,-0.768,-0.710,-0.219
-2.564,512.723,-854.778,-0.712,-0.680,-0.199
-1.533,513.070,-855.814,-0.764,-0.754,-0.222
-2.682,512.760,-857.235,-1.094,-0.746,-0.196
-2.764,513.169,-856.630,-1.508,-0.693,-0.230
-1.953,514.207,-855.963,-1.602,-0.701,-0.284
-2.000,515.000,-856.000,-1.540,-0.700,-0.280
-1.930,513.241,-855.992,-1.650,-0.706,-0.279
-2.770,513.366,-856.021,-1.886,-0.644,-0.282
-3.084,514.831,-855.443,-2.032,-0.630,-0.254
-3.010,515.115,-853.853,-1.764,-0.604,-0.138
-2.794,516.275,-852.527,-1.266,-0.547,-0.054
-1.803,515.792,-853.299,-0.594,-0.565,-0.076
-2.084,516.052,-855.146,0.111,-0.559,-0.069
-3.000,515.181,-856.053,0.349,-0.560,-0.070
-2.190,513.781,-854.340,0.338,-0.556,-0.022
-2.397,514.945,-854.151,0.445,-0.604,0.027
-3.456,514.206,-855.358,0.493,-0.641,-0.059
-2.579,514.005,-854.352,0.352,-0.637,-0.042
-3.381,513.801,-855.497,0.392,-0.733,0.004
-2.693,514.161,-855.919,0.486,-0.769,0.002
-2.000,514.000,-856.000,0.280,-0.770,-0.000
-3.931,512.807,-855.438,-0.028,-0.774,-0.063
-3.211,514.861,-852.835,-0.209,-0.759,-0.073
-3.139,513.606,-854.820,-0.176,-0.794,-0.072
-2.289,513.464,-855.665,-0.352,-0.698,-0.061
-2.597,515.305,-854.718,-0.642,-0.630,-0.093
-3.963,514.902,-854.837,-0.595,-0.717,-0.144
-1.856,514.971,-854.024,-0.406,-0.696,-0.142
-1.923,514.027,-855.861,-0.281,-0.696,-0.206
-2.102,514.796,-856.170,-0.377,-0.710,-0.212
-2.425,514.400,-855.770,-0.560,-0.681,-0.248
-3.453,514.033,-855.445,-0.754,-0.748,-0.301
-2.377,515.326,-854.658,-0.854,-0.769,-0.264
-2.129,514.760,-854.876,-0.723,-0.775,-0.293
-3.184,515.088,-853.943,-0.715,-0.766,-0.270
-4.000,515.000,-855.000,-0.840,-0.770,-0.210
-3.990,515.768,-853.517,-0.749,-0.780,-0.154
-4.107,516.345,-851.571,-0.211,-0.706,-0.076
-3.364,515.049,-853.327,0.874,-0.711,-0.080
-2.951,514.976,-854.088,2.109,-0.657,-0.017
-2.783,514.820,-855.483,2.902,-0.646,0.112
-1.860,515.012,-855.843,3.282,-0.705,0.139
-2.024,513.837,-856.125,3.355,-0.702,0.141
-2.006,512.057,-857.941,3.172,-0.768,0.142
-2.061,511.964,-857.929,2.702,-0.721,0.086
-1.305,511.894,-858.649,1.772,-0.683,0.023
-1.253,511.965,-858.108,0.925,-0.713,-0.040
-2.375,511.773,-856.004,0.441,-0.690,-0.081
-1.740,512.259,-856.216,0.268,-0.706,-0.062
-2.188,513.011,-857.098,0.364,-0.697,-0.077
-3.000,512.000,-857.000,0.350,-0.700,-0.140
-2.955,511.804,-856.038,0.340,-0.702,-0.148
-3.177,513.042,-856.630,0.405,-0.697,-0.081
-2.238,511.742,-857.089,0.459,-0.704,-0.098
-2.366,510.827,-856.593,0.508,-0.696,-0.165
-2.990,512.513,-857.207,0.462,-0.703,-0.119
-1.733,511.416,-858.100,0.287,-0.698,-0.162
-2.076,510.042,-857.949,-0.183,-0.701,-0.208
-2.076,511.879,-857.053,-0.613,-0.701,-0.143
-1.738,512.152,-856.911,-0.698,-0.698,-0.138
-2.938,511.777,-856.938,-0.709,-0.706,-0.140
-2.806,511.970,-856.756,-0.641,-0.668,-0.143
-3.321,512.071,-856.871,-0.493,-0.609,-0.135
-2.531,513.340,-857.080,-0.400,-0.655,-0.145
-2.140,512.716,-858.181,-0.439,-0.697,-0.136
-3.000,511.000,-858.000,-0.630,-0.630,-0.140
-2.037,511.775,-856.164,-0.653,-0.625,-0.147
-2.732,512.334,-855.884,-0.471,-0.637,-0.119
-3.020,510.965,-855.899,-0.311,-0.622,-0.210
-3.387,511.665,-855.799,-0.053,-0.639,-0.143
-4.165,513.330,-855.866,0.252,-0.620,-0.073
-3.886,512.695,-855.988,0.576,-0.643,-0.148
-2.894,511.997,-856.000,1.014,-0.702,-0.061
-1.999,512.031,-856.003,1.378,-0.701,-0.000
-2.114,511.195,-855.951,1.594,-0.699,0.000
-1.677,510.741,-856.394,1.518,-0.698,-0.006
-2.906,511.109,-857.486,1.192,-0.726,0.037
-2.385,510.464,-858.127,0.943,-0.808,0.065
-2.463,509.913,-859.275,0.538,-0.843,-0.032
-4.000,510.001,-858.772,-0.097,-0.839,-0.070
-2.000,510.000,-858.000,-0.630,-0.840,-0.070
-1.032,510.851,-859.782,-1.111,-0.843,-0.124
-0.830,511.163,-859.618,-1.649,-0.793,-0.249
-2.175,510.673,-857.417,-2.185,-0.751,-0.297
-3.304,511.406,-856.603,-2.539,-0.792,-0.266
-2.757,512.159,-857.082,-2.739,-0.735,-0.300
-1.637,513.296,-856.630,-3.000,-0.708,-0.367
-1.100,513.983,-854.948,-3.070,-0.773,-0.421
-3.826,513.070,-855.898,-2.761,-0.771,-0.358
-4.230,512.851,-855.552,-2.422,-0.774,-0.283
-3.810,513.561,-853.159,-2.305,-0.725,-0.286
-4.099,514.479,-852.824,-1.970,-0.687,-0.249
-4.028,515.056,-852.945,-1.087,-0.708,-0.179
-3.764,514.890,-854.553,-0.151,-0.694,-0.124
-3.008,515.072,-854.790,0.695,-0.703,-0.059
-4.000,515.000,-853.000,1.610,-0.700,-0.000
-3.225,513.247,-854.515,2.476,-0.639,0.057
-2.747,512.718,-856.899,2.992,-0.616,0.134
-3.249,513.263,-856.201,2.814,-0.677,0.105
-2.775,512.181,-856.023,2.338,-0.706,0.053
-3.195,512.199,-857.321,1.959,-0.698,0.082
-2.798,513.009,-858.144,1.475,-0.700,0.057
-1.956,511.884,-859.042,0.702,-0.701,-0.004
-1.948,511.000,-858.151,-0.155,-0.702,-0.065
-2.885,511.688,-856.914,-0.690,-0.645,-0.130
-2.516,512.788,-857.162,-0.977,-0.615,-0.147
-1.611,512.543,-855.981,-1.128,-0.669,-0.130
-2.558,511.350,-856.309,-1.265,-0.712,-0.166
-3.002,511.044,-856.833,-1.445,-0.684,-0.220
-3.039,512.226,-855.932,-1.464,-0.621,-0.207
-3.000,513.000,-856.000,-1.400,-0.560,-0.210
-2.045,512.923,-855.145,-1.129,-0.496,-0.212
-3.163,513.760,-854.321,-0.432,-0.485,-0.208
-5.267,514.040,-852.953,0.644,-0.495,-0.189
-3.894,513.555,-853.573,2.021,-0.483,-0.065
-3.083,512.463,-855.338,3.159,-0.506,0.024
-4.187,511.897,-856.282,3.518,-0.578,0.089
-3.945,510.880,-858.084,3.336,-0.632,0.139
-3.084,509.966,-857.152,2.968,-0.632,0.075
-2.063,510.915,-856.577,2.738,-0.576,0.063
-2.566,510.315,-858.503,2.747,-0.542,0.076
-3.242,509.725,-858.496,2.652,-0.606,0.065
-2.823,509.992,-857.474,2.595,-0.632,0.071
-3.137,509.881,-858.499,2.827,-0.632,0.079
-2.879,508.718,-860.132,3.103,-0.627,0.150
-2.000,507.000,-860.000,2.940,-0.630,0.140
-1.937,506.955,-860.798,2.455,-0.693,0.076
-2.168,506.991,-861.199,1.912,-0.704,0.027
-1.279,507.016,-861.002,1.010,-0.698,-0.055
-1.282,506.401,-862.574,-0.152,-0.700,-0.084
-2.223,505.986,-860.789,-1.365,-0.701,-0.196
-1.980,507.296,-860.239,-2.266,-0.698,-0.286
-3.114,508.028,-860.897,-2.841,-0.701,-0.282
-3.119,508.031,-858.143,-3.212,-0.701,-0.345
-1.914,507.802,-858.581,-3.121,-0.695,-0.357
-2.846,509.291,-858.731,-3.017,-0.710,-0.343
-2.545,510.109,-856.738,-2.963,-0.682,-0.359
-1.819,510.053,-857.191,-2.750,-0.739,-0.329
-2.173,511.270,-856.522,-2.255,-0.759,-0.257
-3.200,510.881,-856.112,-1.493,-0.694,-0.204
-4.000,511.000,-857.000,-0.770,-0.700,-0.140
-3.176,511.140,-856.142,0.074,-0.698,-0.017
-2.203,510.109,-855.839,0.864,-0.710,0.060
-1.840,509.982,-856.312,1.384,-0.648,0.079
-2.189,509.451,-857.758,1.608,-0.655,0.043
-1.767,508.900,-859.177,1.268,-0.699,-0.026
-2.294,510.415,-858.812,0.645,-0.612,-0.079
-2.962,510.926,-859.086,0.329,-0.636,-0.067
-2.015,509.118,-860.000,-0.275,-0.698,-0.064
-2.778,508.772,-859.239,-1.208,-0.701,-0.187
-3.099,509.696,-858.199,-1.417,-0.698,-0.223
-3.038,509.983,-857.156,-1.454,-0.706,-0.202
-2.643,509.807,-857.051,-1.554,-0.676,-0.212
-1.923,510.201,-858.197,-1.431,-0.619,-0.219
-1.921,511.094,-857.933,-1.399,-0.633,-0.290
-1.000,511.000,-858.000,-1.330,-0.630,-0.280
-2.626,510.948,-857.168,-1.156,-0.628,-0.215
-3.510,511.077,-857.351,-0.936,-0.632,-0.207
-1.918,510.790,-858.588,-0.971,-0.629,-0.216
-2.654,511.035,-856.397,-1.110,-0.627,-0.184
-2.752,510.753,-856.251,-1.104,-0.646,-0.124
-1.898,511.204,-856.842,-0.905,-0.711,-0.150
-2.009,512.025,-855.992,-0.454,-0.697,-0.135
-1.984,511.998,-856.062,0.026,-0.697,-0.071
-2.748,512.070,-854.948,0.735,-0.709,-0.076
-3.283,511.247,-856.216,1.344,-0.682,-0.018
-2.337,510.751,-856.908,1.622,-0.750,-0.021
-1.961,510.974,-857.457,1.835,-0.750,-0.093
-1.986,510.985,-859.133,1.896,-0.688,-0.055
-2.020,510.938,-857.845,1.879,-0.704,-0.079
-2.000,510.000,-859.000,1.680,-0.700,-0.070
-1.958,509.909,-858.437,1.534,-0.698,0.001
-2.110,510.125,-856.603,1.640,-0.703,-0.055
-1.771,509.770,-858.370,1.765,-0.696,-0.070
-2.612,509.803,-858.723,1.846,-0.705,-0.098
-2.804,508.210,-859.268,1.614,-0.694,-0.149
-1.865,508.240,-859.905,1.155,-0.710,-0.144
-2.022,508.975,-858.948,0.738,-0.774,-0.216
-2.009,508.047,-858.977,0.312,-0.774,-0.214
-2.007,507.980,-859.026,-0.025,-0.711,-0.199
-1.912,507.819,-858.815,-0.133,-0.693,-0.229
-2.500,508.425,-858.896,-0.166,-0.706,-0.161
-3.157,509.032,-858.558,-0.227,-0.693,-0.143
-2.952,508.956,-857.737,-0.057,-0.708,-0.126
-2.962,508.998,-858.167,0.255,-0.690,-0.061
-2.000,509.000,-859.000,0.560,-0.630,-0.000
-1.840,509.030,-858.981,1.036,-0.690,0.065
-2.923,508.907,-859.032,1.586,-0.667,0.073
-2.513,508.785,-859.076,2.045,-0.592,0.068
-1.687,506.184,-861.056,1.934,-0.693,0.074
-2.441,505.145,-861.710,1.108,-0.667,0.055
-2.938,507.290,-860.842,0.235,-0.641,-0.014
-1.932,505.819,-861.029,-0.553,-0.700,0.005
-1.952,505.793,-861.032,-1.406,-0.634,0.008
-2.152,508.699,-860.252,-2.124,-0.629,-0.123
-1.277,508.446,-859.096,-2.471,-0.589,-0.140
-0.837,507.553,-858.396,-2.564,-0.545,-0.174
-1.359,508.395,-857.486,-2.587,-0.566,-0.217
-2.153,509.067,-858.392,-2.481,-0.567,-0.219
-1.973,508.970,-858.971,-2.462,-0.640,-0.288
-3.000,509.000,-859.000,-2.660,-0.630,-0.280
-4.125,509.844,-859.146,-2.967,-0.623,-0.276
-2.405,510.211,-858.063,-3.144,-0.642,-0.285
-2.301,509.532,-857.667,-3.127,-0.614,-0.278
-3.413,510.908,-855.406,-2.919,-0.649,-0.264
-2.544,512.100,-855.320,-2.180,-0.609,-0.173
-1.950,511.968,-855.641,-1.260,-0.652,-0.141
-2.029,511.975,-854.027,-0.184,-0.698,-0.137
-2.920,511.083,-856.774,0.987,-0.693,-0.074
-3.205,510.172,-857.997,1.312,-0.825,-0.064
-2.191,509.615,-858.033,0.921,-0.803,-0.079
-1.988,511.039,-856.654,0.345,-0.758,-0.056
-1.964,511.884,-856.277,0.113,-0.758,-0.100
-2.044,510.672,-858.086,0.380,-0.681,-0.145
-1.969,511.123,-855.652,0.678,-0.711,-0.140
-2.000,511.000,-857.000,1.050,-0.770,-0.140
-2.042,510.923,-858.244,1.201,-0.775,-0.079
-1.912,510.585,-856.824,1.084,-0.718,-0.061
-2.130,508.788,-857.666,0.952,-0.690,-0.079
-1.838,509.614,-857.720,0.686,-0.707,-0.062
-2.173,509.563,-857.986,0.533,-0.695,-0.077
-1.846,509.065,-857.957,0.571,-0.702,-0.064
-2.088,510.050,-859.135,0.470,-0.699,-0.074
-2.998,510.013,-859.166,0.097,-0.700,-0.137
-2.888,510.042,-857.059,-0.036,-0.700,-0.144
-3.327,509.277,-857.585,0.158,-0.704,-0.136
-2.056,508.727,-857.798,0.269,-0.668,-0.143
-2.858,508.996,-858.004,0.431,-0.613,-0.137
-3.832,508.957,-857.752,0.486,-0.642,-0.142
-1.758,508.994,-858.235,0.501,-0.620,-0.139
-2.000,509.000,-859.000,0.560,-0.560,-0.140
-2.045,509.885,-857.862,0.549,-0.559,-0.142
-2.570,509.539,-860.346,0.610,-0.561,-0.134
-3.379,507.913,-860.145,0.229,-0.560,-0.153
-2.387,508.395,-858.140,-0.340,-0.559,-0.101
-1.920,508.994,-859.337,-0.548,-0.562,-0.079
-2.128,508.989,-858.546,-0.746,-0.557,-0.153
-3.059,508.991,-856.925,-0.759,-0.563,-0.137
-3.038,508.969,-856.916,-0.570,-0.626,-0.137
-2.915,509.790,-858.625,-0.545,-0.637,-0.148
-3.111,510.083,-859.112,-0.613,-0.621,-0.124
-2.876,509.718,-858.624,-0.637,-0.642,-0.184
-3.135,510.120,-858.985,-0.630,-0.615,-0.213
-2.792,509.660,-858.909,-0.772,-0.654,-0.211
-1.839,509.027,-858.987,-1.096,-0.697,-0.208
-1.000,510.000,-858.000,-1.190,-0.630,-0.210
-1.749,510.080,-857.021,-1.063,-0.626,-0.217
-3.006,509.859,-856.985,-1.006,-0.635,-0.150
-2.410,510.117,-857.204,-0.930,-0.626,-0.172
-1.844,509.349,-858.587,-1.170,-0.630,-0.229
-2.096,508.992,-858.617,-1.628,-0.642,-0.196
-1.926,510.322,-857.782,-1.861,-0.715,-0.224
-2.051,511.005,-856.929,-1.957,-0.694,-0.283
-2.952,510.988,-856.052,-1.707,-0.631,-0.283
-3.052,511.058,-855.820,-1.484,-0.631,-0.224
-3.010,510.738,-857.141,-1.420,-0.628,-0.195
-2.579,511.522,-858.021,-1.502,-0.615,-0.249
-1.914,511.866,-855.326,-1.928,-0.490,-0.292
-3.652,512.370,-853.834,-1.461,-0.421,-0.265
-3.770,514.124,-854.013,-0.146,-0.504,-0.200
-2.000,512.000,-855.000,0.980,-0.560,-0.140
-1.975,509.860,-857.783,1.584,-0.566,-0.077
-1.929,511.684,-857.386,1.594,-0.502,-0.064
-2.592,511.431,-857.114,1.755,-0.519,-0.075
-3.126,510.759,-857.947,1.767,-0.582,-0.068
-2.989,510.758,-856.245,1.732,-0.543,-0.061
-2.891,509.805,-857.451,2.219,-0.575,0.023
-1.939,510.049,-857.939,2.455,-0.634,0.070
-1.962,510.055,-857.895,2.574,-0.695,0.068
-2.090,509.190,-859.046,2.731,-0.716,0.080
-1.866,508.222,-858.487,2.649,-0.637,0.016
-2.202,507.725,-860.092,2.455,-0.663,0.002
-1.539,508.035,-860.873,1.958,-0.711,-0.024
-1.047,507.898,-861.142,1.126,-0.696,-0.078
-2.179,508.048,-860.751,0.313,-0.701,-0.072
-2.000,508.000,-859.000,-0.140,-0.700,-0.140
-0.970,507.952,-859.818,-0.265,-0.700,-0.149
-1.801,508.045,-860.155,-0.485,-0.699,-0.123
-1.951,508.238,-859.352,-1.054,-0.703,-0.193
-2.515,509.444,-858.105,-1.560,-0.693,-0.210
-2.700,508.192,-858.172,-1.706,-0.720,-0.215
-0.595,508.380,-858.934,-1.777,-0.779,-0.204
-1.131,510.024,-857.953,-1.978,-0.768,-0.215
-2.018,509.073,-858.014,-2.103,-0.767,-0.279
-1.880,508.909,-857.140,-1.938,-0.828,-0.228
-2.235,509.343,-857.395,-1.811,-0.848,-0.194
-1.617,511.254,-857.701,-1.845,-0.833,-0.228
-2.727,511.443,-856.342,-1.731,-0.846,-0.178
-2.539,509.595,-857.437,-1.321,-0.836,-0.135
-0.930,510.130,-857.975,-0.950,-0.842,-0.141
-2.000,510.000,-858.000,-1.050,-0.840,-0.140
-2.062,509.932,-858.088,-1.354,-0.893,-0.143
-2.546,510.048,-857.209,-1.691,-0.981,-0.093
-3.417,510.264,-856.710,-2.124,-0.939,-0.049
-2.333,511.559,-856.967,-2.483,-0.881,-0.112
-1.982,512.115,-856.572,-2.582,-0.820,-0.140
-2.072,513.205,-855.795,-2.286,-0.856,-0.149
-3.085,512.934,-854.918,-1.858,-0.830,-0.214
-3.072,512.928,-854.018,-1.376,-0.703,-0.214
-2.778,513.266,-854.666,-0.712,-0.710,-0.151
-3.428,511.883,-855.698,-0.120,-0.604,-0.131
-1.993,512.645,-855.826,0.353,-0.546,-0.152
-2.851,512.295,-856.042,0.676,-0.560,-0.112
-4.000,510.689,-857.430,0.645,-0.576,-0.062
-2.833,511.071,-857.923,0.186,-0.630,-0.073
-2.000,511.000,-857.000,-0.420,-0.560,-0.070
-0.969,512.592,-857.041,-0.632,-0.555,-0.066
-2.413,514.201,-855.654,-0.584,-0.561,-0.119
-3.329,513.020,-854.296,-0.418,-0.594,-0.158
-2.799,513.385,-855.618,0.119,-0.647,-0.103
-3.082,513.829,-855.717,0.663,-0.620,-0.062
-3.069,512.688,-856.148,0.859,-0.635,-0.078
-4.058,511.984,-855.900,0.919,-0.629,-0.145
-3.162,512.009,-854.949,1.165,-0.629,-0.146
-1.872,511.291,-857.258,1.398,-0.632,-0.071
-2.866,510.478,-859.137,1.253,-0.630,-0.116
-2.550,512.198,-857.618,0.868,-0.625,-0.149
-1.806,512.562,-856.920,0.428,-0.652,-0.137
-2.111,510.317,-858.182,0.009,-0.712,-0.140
-1.930,510.147,-856.642,-0.507,-0.696,-0.141
-2.000,511.000,-856.000,-0.980,-0.700,-0.140
-2.967,510.921,-857.039,-1.119,-0.702,-0.134
-2.295,512.347,-856.151,-1.052,-0.697,-0.196
-2.262,513.501,-855.896,-0.687,-0.702,-0.213
-3.523,511.689,-855.610,-0.102,-0.701,-0.215
-2.383,511.065,-856.313,0.372,-0.687,-0.190
-2.182,512.070,-856.922,0.687,-0.615,-0.132
-3.025,510.865,-857.095,0.763,-0.636,-0.141
-3.008,509.980,-858.066,0.457,-0.699,-0.140
-2.379,510.757,-856.138,0.003,-0.697,-0.141
-0.894,511.637,-857.620,-0.264,-0.739,-0.132
-2.113,512.065,-859.130,-0.852,-0.816,-0.177
-3.128,511.717,-856.872,-1.669,-0.845,-0.219
-3.214,512.300,-857.091,-1.886,-0.839,-0.209
-3.939,512.976,-855.669,-1.616,-0.837,-0.205
-2.000,512.000,-855.000,-0.980,-0.770,-0.140
-2.664,512.721,-855.144,-0.240,-0.759,-0.135
-3.456,513.484,-854.596,0.382,-0.834,-0.146
-2.455,511.365,-856.256,0.848,-0.833,-0.134
-3.619,511.207,-856.907,0.891,-0.858,-0.144
-2.222,512.129,-856.899,0.793,-0.795,-0.140
-2.331,511.812,-856.915,0.456,-0.688,-0.133
-2.952,510.965,-857.044,0.132,-0.700,-0.065
-2.884,511.849,-857.079,0.261,-0.636,-0.066
-4.199,513.111,-855.978,0.587,-0.618,-0.080
-2.360,512.055,-856.646,1.166,-0.645,-0.054
-2.584,512.077,-856.327,1.735,-0.609,-0.097
-2.603,511.361,-856.177,2.287,-0.668,-0.008
-2.294,511.103,-858.659,2.511,-0.693,0.074
-4.144,510.754,-858.871,2.187,-0.618,-0.017
-3.000,509.000,-858.000,2.030,-0.560,-0.070
-2.035,509.888,-857.100,2.018,-0.556,-0.014
-1.888,509.354,-857.424,2.226,-0.571,0.066
-2.689,508.836,-858.887,2.344,-0.511,0.034
-2.705,508.211,-858.190,2.127,-0.507,-0.017
-1.816,506.644,-858.231,2.263,-0.581,0.013
-2.020,508.430,-860.431,2.243,-0.547,-0.015
-2.043,507.841,-860.968,1.624,-0.566,-0.072
-2.980,506.927,-860.086,0.955,-0.630,-0.069
-2.189,508.022,-859.076,0.444,-0.621,-0.122
-2.518,507.127,-859.344,0.127,-0.688,-0.158
-2.835,507.300,-860.241,0.027,-0.667,-0.116
-1.807,508.107,-859.205,-0.031,-0.637,-0.183
-3.543,507.922,-859.178,-0.074,-0.720,-0.194
-2.677,507.969,-860.073,-0.078,-0.692,-0.140
-2.000,507.000,-860.000,-0.280,-0.700,-0.210
-3.003,506.869,-859.984,-0.646,-0.707,-0.216
-2.833,507.229,-859.994,-0.961,-0.686,-0.202
-3.389,506.534,-859.834,-1.279,-0.723,-0.218
-1.909,507.626,-859.857,-1.729,-0.649,-0.203
-1.043,507.763,-859.667,-2.187,-0.651,-0.216
-2.288,508.251,-858.771,-2.411,-0.703,-0.205
-3.038,508.996,-859.080,-2.533,-0.702,-0.213
-3.052,508.948,-859.126,-2.778,-0.766,-0.276
-2.137,509.868,-857.159,-2.994,-0.771,-0.290
-1.964,510.359,-857.471,-2.948,-0.809,-0.230
-1.936,511.867,-857.622,-2.738,-0.862,-0.201
-2.325,511.312,-856.231,-2.608,-0.807,-0.217
-3.180,511.279,-855.934,-2.318,-0.762,-0.204
-2.886,511.919,-856.061,-1.730,-0.777,-0.217
-2.000,511.000,-857.000,-1.330,-0.840,-0.280
-1.880,511.923,-857.953,-1.190,-0.844,-0.288
-2.843,511.331,-857.431,-1.325,-0.837,-0.223
-2.966,510.738,-856.019,-1.447,-0.817,-0.209
-3.389,511.153,-855.651,-1.092,-0.701,-0.189
-4.201,512.694,-854.046,-0.511,-0.587,-0.112
-3.834,514.084,-852.871,0.718,-0.462,-0.053
-2.935,514.010,-853.039,2.682,-0.423,0.082
-2.919,513.216,-854.762,4.755,-0.487,0.144
-4.025,509.576,-857.638,6.165,-0.491,0.077
-2.755,508.308,-858.814,6.257,-0.523,0.075
-1.611,506.220,-862.028,5.385,-0.618,0.034
-2.264,505.056,-861.988,3.695,-0.595,-0.010
-1.809,507.655,-859.475,2.139,-0.447,0.004
-2.146,508.017,-858.748,1.480,-0.429,-0.001
-3.000,509.000,-856.000,1.470,-0.490,-0.000
-3.057,508.282,-857.471,2.400,-0.486,-0.000
-2.322,507.066,-859.231,3.487,-0.543,0.002
-1.677,506.470,-858.832,4.053,-0.564,-0.004
-2.668,505.484,-861.401,4.306,-0.581,0.008
-2.749,504.353,-861.874,4.295,-0.649,-0.021
-1.986,502.795,-863.584,3.712,-0.619,-0.078
-3.074,503.049,-863.908,2.492,-0.636,-0.068
-2.179,503.017,-863.814,1.344,-0.699,-0.068
-0.810,502.903,-865.310,0.153,-0.696,-0.122
-2.005,503.536,-863.101,-0.997,-0.745,-0.195
-1.266,504.283,-863.323,-1.792,-0.781,-0.214
-1.586,503.627,-862.291,-2.447,-0.764,-0.209
-3.351,504.278,-863.604,-2.819,-0.766,-0.210
-2.831,503.948,-861.311,-3.026,-0.684,-0.211
-2.000,506.000,-860.000,-2.800,-0.630,-0.210
-1.950,507.239,-860.553,-2.144,-0.633,-0.208
-2.119,506.996,-858.021,-1.293,-0.622,-0.214
-1.749,508.774,-860.897,-0.335,-0.643,-0.203
-2.657,504.881,-858.883,0.034,-0.608,-0.219
-2.723,507.194,-864.404,-0.268,-0.676,-0.198
-2.020,503.566,-861.557,-1.500,-0.783,-0.226
-3.068,504.524,-863.583,-3.439,-0.767,-0.281
-3.031,507.246,-861.888,-5.085,-0.706,-0.279
-2.998,507.176,-856.301,-5.771,-0.635,-0.289
-2.436,512.774,-859.566,-5.150,-0.635,-0.226
-1.740,508.114,-849.569,-3.495,-0.612,-0.214
-2.186,514.007,-860.826,-1.305,-0.695,-0.181
-1.876,506.425,-853.350,0.030,-0.898,-0.144
-2.064,508.582,-864.261,-0.292,-0.982,-0.219
-2.000,508.000,-861.000,-1.890,-0.910,-0.210
-1.900,506.721,-855.560,-3.367,-0.782,-0.206
-2.791,515.277,-864.497,-3.860,-0.724,-0.218
-3.105,507.405,-842.834,-3.384,-0.638,-0.174
-2.907,521.052,-865.878,-1.564,-0.682,-0.097
-3.115,505.063,-841.795,0.305,-0.800,-0.070
-2.812,516.234,-866.516,1.633,-0.749,-0.059
-1.987,506.628,-855.086,1.623,-0.700,0.001
-2.901,507.124,-854.312,0.809,-0.703,-0.063
-3.235,519.545,-873.625,0.472,-0.597,-0.087
-2.169,493.074,-825.835,0.620,-0.486,-0.012
-1.975,537.195,-899.029,1.863,-0.507,0.000
-2.183,475.907,-797.980,2.393,-0.480,0.002
-3.386,553.206,-930.579,3.548,-0.616,-0.002
-2.640,454.843,-766.908,3.219,-0.498,0.001
