acc_x[mg],acc_y[mg],acc_z[mg],gyro_x[dps],gyro_y[dps],gyro_z[dps]
-59.000,-131.000,-1000.000,-5.670,-0.420,-2.660
-71.195,-131.256,-1047.119,-5.274,-0.471,-2.715
-70.036,-115.348,-960.244,-3.964,-0.848,-2.446
-77.099,-120.364,-1064.914,-4.040,-1.466,-2.678
-78.573,-108.450,-982.219,-3.847,-1.895,-2.190
-86.117,-126.201,-1045.695,-5.069,-2.185,-2.215
-79.767,-129.084,-991.905,-4.868,-2.235,-2.031
-75.968,-143.561,-996.770,-4.214,-2.077,-1.969
-69.984,-152.229,-988.617,-2.574,-1.646,-1.975
-58.311,-150.568,-966.840,-0.071,-1.261,-1.733
-55.037,-148.726,-992.746,2.024,-0.923,-1.466
-52.906,-140.180,-975.941,4.021,-0.547,-1.145
-59.636,-137.868,-1005.986,4.671,-0.376,-0.979
-73.026,-132.872,-995.579,4.403,-0.469,-0.793
-81.777,-135.543,-1009.612,3.361,-0.554,-0.868
-82.000,-134.000,-1001.000,1.960,-0.350,-0.910
-78.728,-138.119,-988.251,0.824,-0.108,-0.666
-70.378,-150.192,-990.189,0.566,0.216,-0.445
-56.328,-159.923,-968.743,1.517,0.671,-0.012
-53.851,-172.730,-968.955,2.903,1.246,0.586
-62.362,-177.442,-963.420,5.244,1.931,0.796
-64.485,-171.813,-976.957,8.088,2.412,0.893
-59.712,-157.844,-978.234,9.641,3.079,1.290
-60.634,-147.329,-971.196,9.326,4.064,1.469
-64.814,-148.443,-968.217,7.867,4.597,1.510
-63.320,-155.910,-976.431,6.277,4.573,1.622
-60.304,-159.554,-995.862,4.607,4.573,1.513
-57.282,-163.794,-1002.667,2.667,4.642,1.322
-50.649,-174.937,-1012.818,1.042,4.593,1.252
-44.300,-189.176,-1012.053,0.218,4.453,1.262
-42.000,-198.000,-1006.000,0.560,4.270,1.260
-40.204,-194.775,-996.576,1.994,4.100,1.310
-41.738,-191.048,-991.531,3.365,3.718,1.484
-51.266,-186.812,-991.894,4.000,3.334,1.615
-59.494,-183.722,-987.775,3.969,3.302,1.545
-58.604,-177.022,-988.551,3.492,3.255,1.282
-50.828,-161.388,-985.459,2.593,3.235,0.998
-41.379,-151.595,-976.196,0.648,3.368,0.907
-37.849,-150.734,-968.216,-2.159,3.367,0.790
-43.399,-156.651,-973.684,-4.812,3.249,0.444
-46.883,-159.200,-988.900,-6.620,3.128,0.055
-39.378,-155.630,-1000.839,-7.695,2.970,-0.216
-33.932,-156.026,-1011.506,-8.961,2.584,-0.305
-43.747,-162.236,-1016.851,-10.019,1.963,-0.383
-64.014,-167.270,-1021.018,-9.827,1.206,-0.511
-72.000,-162.000,-1027.000,-8.610,0.490,-0.700
-55.492,-147.976,-1021.680,-7.172,0.227,-0.906
-37.116,-141.550,-1010.191,-6.453,-0.029,-0.735
-37.134,-148.500,-1001.633,-6.076,-0.719,-0.477
-47.592,-146.594,-1002.928,-4.707,-1.388,-0.587
-48.623,-129.517,-1011.160,-2.862,-1.977,-0.734
-39.872,-113.152,-1020.050,-2.356,-2.476,-0.671
-34.992,-111.458,-1026.103,-3.322,-2.829,-0.556
-42.788,-120.359,-1019.904,-4.729,-3.317,-0.618
-61.245,-127.935,-1008.681,-5.678,-3.871,-0.798
-71.038,-137.831,-1004.282,-5.495,-4.348,-0.982
-64.562,-143.633,-1001.844,-4.525,-4.579,-1.121
-55.862,-146.501,-993.318,-3.230,-4.488,-1.078
-57.430,-147.347,-986.468,-1.910,-4.380,-0.930
-59.734,-139.432,-982.192,-0.449,-4.147,-0.739
-54.000,-128.000,-978.000,1.190,-3.780,-0.560
-52.360,-114.688,-981.209,2.061,-3.594,-0.383
-60.672,-108.139,-985.500,1.975,-3.378,-0.181
-75.356,-109.159,-992.395,1.314,-3.114,-0.089
-80.770,-114.709,-999.626,0.447,-2.856,-0.056
-74.258,-125.343,-994.903,-0.201,-2.393,-0.096
-70.168,-136.559,-989.149,-0.190,-1.944,-0.141
-62.124,-146.633,-986.770,0.806,-1.660,-0.058
-52.370,-150.950,-983.217,2.449,-1.417,0.185
-53.222,-150.218,-981.967,4.222,-1.227,0.544
-64.624,-149.959,-982.078,5.204,-1.061,0.917
-79.966,-148.271,-986.403,5.431,-0.814,1.203
-77.188,-139.123,-996.161,5.482,-0.449,1.298
-54.975,-135.876,-996.424,4.136,0.016,1.597
-43.449,-149.903,-987.760,1.590,0.572,1.907
-43.000,-169.000,-984.000,0.210,0.840,1.750
-39.476,-180.408,-990.099,0.462,0.546,1.556
-38.988,-180.412,-1002.330,1.024,0.374,1.480
-43.579,-181.477,-1001.413,1.174,0.554,1.470
-52.107,-186.544,-995.517,1.038,0.438,1.448
-63.435,-185.182,-995.817,1.170,0.086,1.365
-72.306,-170.046,-991.774,1.736,0.023,1.218
-66.855,-144.120,-987.632,1.616,0.310,1.126
-47.349,-130.133,-978.832,-0.037,0.795,1.435
-36.321,-136.739,-973.186,-2.214,1.447,1.831
-28.470,-151.427,-978.826,-3.121,2.134,2.006
-19.276,-160.032,-983.281,-2.184,2.762,2.050
-26.943,-161.323,-987.125,-0.679,3.314,2.206
-48.506,-164.024,-980.695,0.056,3.660,2.547
-71.799,-164.649,-975.373,0.239,3.970,2.555
-74.000,-159.000,-985.000,0.420,4.200,2.170
-63.288,-153.404,-988.554,-0.263,4.353,1.957
-68.229,-152.776,-982.271,-1.970,4.945,2.066
-66.167,-152.483,-977.229,-3.137,5.616,2.113
-42.695,-148.280,-982.882,-3.277,6.001,2.113
-22.900,-143.406,-985.167,-3.275,6.363,2.213
-29.573,-143.758,-981.909,-4.022,6.518,2.348
-42.335,-150.614,-989.945,-5.026,6.427,2.443
-37.585,-155.923,-1002.170,-5.317,6.183,1.953
-34.902,-153.767,-1009.752,-5.481,5.883,1.170
-43.737,-153.476,-1005.928,-6.249,5.457,0.833
-61.728,-160.999,-999.910,-7.168,4.628,0.647
-68.795,-161.063,-1003.735,-7.062,3.754,0.305
-47.303,-148.579,-1014.947,-6.193,3.112,-0.253
-20.618,-136.511,-1027.627,-6.074,2.575,-0.668
-8.000,-130.000,-1034.000,-6.720,1.890,-0.840
-11.336,-127.333,-1036.165,-7.232,0.983,-1.144
-26.004,-123.875,-1031.418,-7.490,0.071,-1.355
-45.838,-116.964,-1025.237,-7.677,-0.829,-1.550
-57.058,-111.748,-1024.338,-7.705,-1.515,-1.807
-56.177,-111.155,-1016.472,-7.834,-1.827,-1.931
-56.266,-114.186,-999.405,-7.652,-1.782,-2.051
-58.287,-123.912,-978.553,-6.616,-1.601,-1.938
-65.402,-131.125,-968.127,-4.807,-1.549,-1.627
-65.397,-120.519,-968.413,-1.896,-1.205,-1.542
-43.436,-99.236,-965.993,0.569,-0.408,-1.444
-18.598,-79.677,-977.894,1.124,0.390,-1.120
-3.237,-73.514,-1000.059,0.737,0.684,-0.910
-5.445,-82.169,-1008.585,-0.188,0.464,-0.809
-28.981,-88.617,-1019.360,-0.977,0.065,-0.778
-45.000,-95.000,-1034.000,-1.050,-0.630,-0.910
-49.524,-110.189,-1041.350,-1.213,-1.547,-0.926
-63.779,-129.085,-1040.579,-1.365,-2.257,-0.834
-69.430,-146.839,-1024.007,-0.560,-2.476,-0.947
-50.684,-153.893,-1005.287,1.877,-2.419,-1.109
-28.489,-150.047,-988.417,5.516,-2.497,-0.783
-15.675,-146.099,-982.940,9.125,-2.615,-0.145
-8.687,-138.056,-998.330,12.171,-2.739,0.230
-9.563,-123.098,-1008.698,13.822,-2.742,0.471
-18.147,-115.156,-1010.427,13.286,-2.506,0.674
-33.831,-125.865,-1003.501,11.040,-2.307,0.701
-54.686,-143.341,-988.206,8.561,-2.104,0.384
-64.230,-154.426,-974.660,7.251,-1.839,-0.200
-61.836,-161.624,-963.405,6.590,-1.617,-0.570
-57.034,-161.706,-966.441,6.028,-1.447,-0.711
-48.000,-163.000,-977.000,5.810,-1.330,-0.630
-38.254,-167.025,-987.306,5.464,-1.212,-0.379
-32.299,-164.196,-994.485,4.983,-1.042,-0.280
-34.648,-160.740,-990.471,4.412,-0.867,-0.306
-41.702,-156.676,-991.611,3.602,-0.863,-0.436
-47.309,-154.385,-993.931,2.571,-0.925,-0.638
-58.045,-150.892,-992.850,1.094,-0.900,-0.799
-69.567,-150.424,-991.775,-0.539,-0.831,-0.838
-69.520,-160.273,-988.147,-1.820,-0.647,-0.835
-59.747,-165.151,-988.045,-2.196,-0.415,-0.953
-46.939,-161.682,-986.018,-1.353,-0.076,-1.007
-30.130,-149.194,-983.541,-0.055,0.248,-0.890
-15.725,-135.703,-982.599,0.586,0.435,-0.650
-17.234,-131.557,-989.475,0.230,0.579,-0.440
-28.911,-133.622,-1003.921,-0.542,0.372,-0.337
-42.000,-138.000,-1010.000,-1.330,0.210,-0.280
-56.379,-139.704,-1011.783,-2.132,0.172,-0.337
-59.574,-142.843,-1011.705,-2.657,-0.091,-0.406
-48.514,-146.404,-1007.830,-2.788,-0.148,-0.437
-42.498,-154.017,-996.213,-2.797,-0.157,-0.359
-49.705,-164.294,-980.541,-2.394,-0.073,-0.259
-55.014,-165.248,-975.769,-0.784,0.207,-0.282
-45.979,-157.171,-976.013,1.329,0.602,-0.116
-34.584,-147.429,-977.664,2.477,1.280,0.253
-29.026,-146.576,-984.786,2.779,1.753,0.528
-26.022,-145.522,-992.510,2.743,2.050,0.581
-32.142,-139.224,-989.391,2.047,2.282,0.524
-45.000,-141.421,-985.670,0.205,2.115,0.426
-53.839,-149.086,-995.608,-2.040,1.809,0.074
-53.357,-152.295,-1001.021,-3.652,1.667,-0.324
-48.000,-157.000,-998.000,-5.180,1.610,-0.420
-42.480,-165.287,-993.647,-6.154,1.666,-0.470
-27.930,-165.346,-992.782,-5.555,1.636,-0.574
-10.503,-161.375,-1003.163,-4.315,1.232,-0.438
-4.540,-157.294,-1013.414,-3.225,0.898,-0.316
-12.910,-148.073,-1018.885,-2.535,0.507,-0.361
-31.504,-140.987,-1023.635,-2.511,-0.153,-0.242
-48.106,-140.032,-1021.624,-3.226,-0.745,-0.220
-61.158,-140.053,-1015.549,-4.209,-1.355,-0.467
-67.298,-139.204,-1007.111,-4.803,-1.824,-0.772
-62.289,-137.549,-998.701,-5.130,-1.989,-1.013
-47.123,-132.127,-989.487,-4.753,-1.789,-1.041
-19.246,-124.226,-975.682,-3.469,-1.290,-0.883
2.975,-117.214,-974.891,-1.855,-0.758,-0.483
7.635,-116.363,-988.216,0.008,-0.473,-0.001
-7.000,-119.000,-1000.000,1.540,-0.490,0.420
-39.936,-115.841,-1006.486,2.268,-0.430,0.693
-65.202,-111.383,-1008.529,2.134,-0.486,0.606
-72.442,-112.727,-1009.226,1.107,-0.721,0.511
-69.525,-121.074,-1003.919,0.052,-0.774,0.431
-61.119,-130.349,-996.908,-0.336,-0.780,0.342
-42.129,-140.873,-997.270,0.239,-0.741,0.566
-13.088,-155.062,-994.552,1.903,-0.466,0.939
-4.437,-166.352,-990.824,4.026,-0.338,1.306
-15.885,-170.213,-999.158,6.482,-0.672,1.478
-21.847,-157.919,-1008.207,8.580,-1.031,1.375
-30.756,-138.871,-1007.815,8.272,-1.239,1.296
-45.120,-133.732,-1005.862,5.584,-1.403,1.171
-48.726,-140.787,-1001.001,2.436,-1.625,0.772
-45.643,-150.471,-995.272,-0.044,-1.929,0.462
-45.000,-161.000,-990.000,-1.610,-2.030,0.350
-44.159,-174.996,-985.928,-2.074,-2.030,0.219
-43.379,-182.737,-987.468,-1.277,-1.962,0.250
-40.751,-175.845,-982.955,0.266,-1.652,0.325
-33.785,-162.809,-981.390,1.672,-1.265,0.407
-24.097,-150.359,-986.467,2.301,-0.931,0.519
-17.404,-139.814,-986.955,2.034,-0.752,0.467
-25.134,-133.777,-991.693,0.939,-0.858,0.336
-41.854,-133.063,-1003.129,-0.650,-1.164,0.032
-53.161,-130.013,-1010.186,-2.068,-1.437,-0.359
-61.323,-128.588,-1004.956,-3.526,-1.492,-0.505
-70.597,-136.830,-998.208,-4.882,-1.414,-0.436
-71.165,-142.061,-993.074,-4.690,-1.213,-0.459
-52.377,-136.176,-988.380,-2.849,-0.882,-0.572
-26.626,-125.636,-994.298,-0.939,-0.674,-0.274
-16.000,-124.000,-997.000,0.350,-0.420,0.210
-23.735,-130.327,-991.374,1.382,-0.157,0.459
-40.210,-131.650,-993.236,2.454,-0.102,0.663
-52.315,-128.430,-997.876,3.479,0.082,0.682
-53.703,-123.448,-998.824,3.589,0.359,0.615
-53.203,-127.149,-994.058,2.185,0.719,0.771
-53.541,-141.451,-985.241,0.453,1.130,0.713
-42.643,-152.612,-983.025,0.094,1.342,0.323
-24.030,-158.568,-981.319,0.602,1.524,0.202
-20.914,-166.444,-978.641,0.790,1.750,0.339
-31.064,-175.907,-981.546,1.342,2.159,0.282
-32.250,-169.717,-984.742,2.727,2.737,0.105
-32.578,-154.717,-987.905,3.543,3.223,0.099
-45.932,-148.967,-983.907,2.676,3.737,0.253
-56.709,-145.390,-981.425,1.372,4.175,0.173
-53.000,-142.000,-988.000,0.420,4.270,-0.140
-45.356,-139.791,-990.303,-0.884,4.375,-0.330
-50.806,-146.814,-985.411,-2.431,4.559,-0.456
-68.429,-158.027,-979.188,-3.603,4.419,-0.556
-66.883,-153.186,-982.055,-3.689,4.347,-0.792
-36.953,-139.775,-979.615,-3.536,4.578,-1.189
-10.465,-129.289,-979.676,-4.399,4.688,-1.223
-0.747,-131.779,-996.510,-5.448,4.446,-0.962
-5.085,-143.414,-1015.534,-5.690,3.834,-0.843
-20.862,-145.412,-1032.114,-5.255,3.157,-0.832
-38.191,-145.132,-1032.983,-5.341,2.505,-0.915
-49.808,-146.436,-1028.953,-6.334,1.850,-1.111
-39.882,-142.685,-1024.788,-6.967,1.484,-1.415
-10.744,-137.675,-1016.099,-6.859,1.227,-1.633
10.108,-137.552,-1021.746,-6.494,0.667,-1.325
17.000,-146.000,-1032.000,-5.320,0.000,-0.910
13.664,-154.493,-1036.643,-3.219,-0.662,-0.727
-1.502,-153.111,-1035.894,-0.961,-1.317,-0.574
-16.893,-145.978,-1027.818,1.098,-1.727,-0.573
-25.095,-143.806,-1019.466,2.126,-2.119,-0.508
-40.954,-148.006,-1006.027,1.915,-2.484,-0.539
-66.444,-152.812,-977.490,1.132,-2.378,-0.736
-72.024,-151.583,-951.741,0.545,-1.839,-0.854
-37.843,-142.793,-945.897,0.860,-1.109,-1.165
11.986,-133.029,-951.186,1.455,-0.363,-1.295
37.587,-125.054,-968.120,1.673,0.182,-1.045
29.599,-121.355,-989.974,1.622,0.277,-0.675
-1.399,-120.261,-1007.290,1.218,-0.031,-0.411
-40.926,-114.754,-1020.048,0.155,-0.364,-0.582
-71.813,-108.453,-1021.108,-1.557,-0.503,-0.874
-89.000,-112.000,-1007.000,-3.640,-0.560,-0.980
-93.002,-124.932,-990.683,-5.064,-0.312,-0.974
-76.082,-135.483,-981.382,-4.250,0.626,-1.086
-38.147,-137.921,-969.185,-1.218,1.700,-0.998
0.196,-139.093,-966.955,2.688,2.532,-0.216
19.622,-143.408,-976.509,6.450,3.267,0.481
15.040,-138.559,-983.699,9.802,3.600,0.754
-4.675,-123.886,-996.209,11.592,3.564,0.993
-25.456,-113.444,-1010.298,10.550,3.563,0.934
-46.657,-112.509,-1011.956,7.166,3.731,0.480
-69.283,-123.461,-999.752,2.611,3.920,-0.080
-80.810,-140.804,-989.348,-0.998,4.178,-0.586
-67.350,-153.890,-981.857,-2.018,4.827,-1.010
-31.637,-157.152,-970.437,-0.641,5.627,-0.960
5.863,-157.061,-963.458,1.973,6.332,-0.396
24.000,-156.000,-966.000,4.900,6.790,0.140
22.369,-149.382,-981.859,7.758,6.689,0.635
8.650,-138.450,-1000.061,9.296,6.554,0.868
-16.060,-123.970,-1010.527,8.478,6.634,0.683
-43.820,-120.042,-1015.374,5.331,6.405,0.412
-69.022,-128.958,-1009.437,0.956,6.041,0.061
-78.465,-137.645,-1001.561,-2.751,5.957,-0.394
-52.823,-141.004,-995.347,-4.874,6.107,-0.868
-3.790,-139.900,-983.903,-5.898,6.412,-0.871
36.916,-147.375,-976.750,-6.151,6.785,-0.246
55.248,-165.671,-982.351,-4.846,7.009,0.480
58.345,-181.457,-994.471,-1.882,6.858,0.891
43.219,-179.143,-1005.923,1.303,6.455,0.662
11.883,-162.815,-1017.735,2.927,6.015,0.241
-15.474,-150.486,-1029.606,2.481,5.434,-0.052
-31.000,-142.000,-1035.000,0.700,4.900,-0.490
-30.593,-138.883,-1031.008,-1.355,4.484,-0.867
-15.747,-139.964,-1024.730,-2.456,3.948,-1.088
2.789,-140.110,-1018.368,-2.234,3.437,-1.088
15.498,-142.566,-1010.522,-0.952,2.957,-0.784
16.010,-144.288,-1002.646,0.850,2.503,-0.279
12.234,-143.754,-992.479,2.641,2.290,0.246
8.648,-141.801,-984.644,4.158,2.397,0.497
3.393,-139.177,-982.146,5.068,2.645,0.493
-1.666,-137.272,-980.792,5.304,2.778,0.482
-7.544,-137.145,-983.267,4.745,2.915,0.508
-8.974,-139.791,-986.634,3.595,3.201,0.420
-4.737,-141.318,-989.208,2.434,3.444,0.308
1.024,-140.694,-995.139,1.595,3.380,0.279
9.277,-139.987,-1003.254,0.854,3.198,0.379
15.000,-142.000,-1010.000,0.070,3.080,0.630
19.068,-146.380,-1013.684,-0.156,2.851,0.760
24.746,-150.436,-1013.390,0.000,2.454,0.864
20.585,-155.664,-1007.678,0.403,1.998,0.955
8.742,-156.174,-1005.206,1.506,1.616,0.820
1.701,-150.856,-1003.782,2.553,1.120,0.795
-7.645,-147.306,-1000.328,2.684,0.715,0.939
-15.049,-142.507,-996.426,2.274,0.791,0.981
-7.029,-136.347,-984.019,1.676,1.218,1.042
6.746,-133.923,-976.768,0.564,1.777,1.159
21.635,-136.704,-978.549,-0.467,2.209,1.352
32.064,-147.218,-979.832,-0.951,2.728,1.657
29.734,-155.357,-985.680,-0.955,3.358,1.763
22.412,-154.794,-984.186,-0.109,3.854,1.759
11.169,-160.325,-981.627,0.541,4.242,1.825
3.000,-165.000,-994.000,0.840,4.270,1.750
-3.311,-161.341,-1003.437,1.262,4.146,1.627
-15.903,-161.207,-1006.007,0.774,3.963,1.476
-21.618,-157.386,-1009.951,-0.063,3.541,1.191
-14.557,-147.206,-1016.486,-0.722,3.205,0.916
6.492,-137.598,-1017.844,-1.831,3.010,0.847
29.261,-134.247,-1008.605,-3.492,2.820,1.046
39.403,-144.234,-1002.775,-4.978,2.487,1.434
40.277,-163.514,-1000.115,-5.216,1.999,1.807
34.926,-178.327,-1003.697,-4.282,1.507,1.700
33.702,-181.938,-1011.090,-2.352,1.094,1.333
32.017,-181.693,-1003.596,-0.190,0.815,1.201
21.207,-180.079,-997.219,1.359,0.412,1.009
8.052,-178.374,-996.683,2.712,-0.203,0.783
-2.118,-171.217,-999.034,3.677,-0.865,0.595
-3.000,-157.000,-1009.000,3.990,-1.260,0.350
6.854,-145.558,-1010.742,3.348,-1.215,0.223
20.716,-136.031,-1003.750,1.821,-1.073,0.144
28.479,-132.331,-994.376,0.323,-1.037,0.205
31.301,-134.472,-988.166,-0.894,-1.064,0.342
31.548,-138.997,-986.556,-1.588,-1.026,0.340
28.191,-143.947,-988.975,-1.762,-0.967,0.365
25.847,-148.461,-994.354,-1.577,-0.821,0.421
23.220,-154.704,-996.921,-0.844,-0.512,0.360
21.208,-155.252,-997.137,0.256,-0.308,0.230
20.390,-155.941,-996.910,1.732,-0.218,0.196
19.021,-157.019,-999.936,3.415,-0.221,0.244
13.738,-153.025,-1000.374,4.958,-0.163,0.323
4.213,-152.046,-1000.340,6.228,-0.042,0.476
-0.308,-150.515,-1000.671,7.018,0.010,0.649
-3.000,-147.000,-997.000,7.280,0.070,0.630
-6.919,-142.963,-999.295,6.851,-0.046,0.496
-3.890,-135.770,-1001.582,5.760,-0.071,0.535
1.441,-132.835,-997.885,4.158,0.225,0.571
5.182,-135.867,-990.109,2.282,0.421,0.582
11.591,-139.759,-982.686,0.724,0.405,0.815
15.468,-148.390,-982.274,-0.221,0.441,1.105
17.182,-157.582,-984.179,-0.331,0.570,1.273
19.013,-166.116,-986.837,0.100,0.749,1.517
16.800,-179.222,-987.871,0.798,1.101,1.737
14.173,-188.282,-988.600,2.214,1.413,1.711
14.667,-191.343,-988.512,4.166,1.496,1.640
17.574,-189.322,-990.749,5.911,1.419,1.591
23.166,-184.886,-997.810,6.831,1.305,1.636
32.445,-184.091,-997.422,6.893,1.347,1.675
38.000,-186.000,-994.000,6.300,1.470,1.540
38.021,-189.621,-990.855,5.440,1.485,1.302
37.596,-190.238,-984.502,4.681,1.289,1.045
35.397,-190.290,-981.453,3.663,0.937,0.829
34.856,-191.137,-982.765,2.327,0.590,0.529
30.476,-189.013,-984.064,0.621,0.336,0.239
23.824,-187.881,-982.233,-1.378,0.175,-0.190
19.590,-186.881,-980.022,-3.455,-0.018,-0.656
14.169,-185.152,-984.438,-5.528,-0.262,-0.891
17.228,-182.087,-991.020,-7.067,-0.457,-1.192
24.141,-176.904,-994.250,-8.246,-0.581,-1.417
29.257,-172.395,-999.226,-9.339,-0.733,-1.553
36.285,-170.592,-1002.471,-10.285,-0.929,-1.636
41.050,-171.007,-999.971,-10.768,-1.110,-1.717
41.811,-168.386,-999.093,-10.408,-1.376,-1.827
38.000,-165.000,-999.000,-9.730,-1.610,-1.820
32.105,-161.774,-996.391,-8.783,-1.674,-1.940
22.746,-156.344,-994.372,-7.704,-1.729,-1.945
11.269,-152.689,-993.506,-6.785,-1.790,-1.749
6.070,-148.448,-994.189,-5.702,-1.862,-1.632
1.505,-145.034,-993.276,-4.823,-1.881,-1.612
-8.134,-141.787,-994.939,-4.198,-1.804,-1.596
-10.785,-133.297,-1000.275,-3.685,-1.742,-1.458
-5.426,-127.193,-999.315,-3.686,-1.496,-1.337
-0.280,-126.697,-996.132,-4.186,-1.221,-1.224
5.335,-128.783,-996.376,-4.821,-1.139,-1.085
8.921,-131.506,-997.754,-5.012,-1.104,-1.014
13.627,-131.859,-999.261,-4.778,-1.128,-0.923
19.603,-132.469,-996.577,-4.543,-0.982,-0.685
23.595,-135.522,-992.656,-4.111,-0.836,-0.469
27.000,-138.000,-992.000,-3.360,-0.910,-0.420
26.422,-138.885,-990.894,-2.340,-0.969,-0.418
23.602,-139.770,-995.248,-1.275,-1.050,-0.428
22.600,-139.814,-1002.952,-0.327,-0.931,-0.380
23.472,-137.606,-1001.989,0.723,-0.544,-0.308
22.144,-137.719,-994.899,1.819,-0.130,-0.116
21.117,-141.781,-988.964,2.912,0.094,0.104
23.178,-140.709,-988.084,3.919,0.066,0.140
25.743,-138.015,-988.978,4.649,0.067,0.142
28.809,-138.273,-990.221,4.966,0.076,0.038
27.744,-136.281,-993.375,4.851,0.061,-0.105
27.344,-137.115,-993.606,4.625,0.083,-0.203
30.353,-140.259,-994.496,4.538,0.040,-0.350
30.704,-140.867,-994.521,4.673,-0.001,-0.426
27.151,-139.982,-992.881,4.766,0.091,-0.325
19.000,-143.000,-992.000,4.900,0.210,-0.210
7.878,-145.462,-989.159,5.370,0.271,-0.276
-3.203,-140.230,-990.707,6.003,0.335,-0.157
-3.950,-138.424,-995.005,6.765,0.359,0.088
5.582,-135.513,-1002.112,7.296,0.338,0.214
13.632,-131.286,-1008.435,7.271,0.390,0.611
19.186,-136.785,-1007.129,6.686,0.625,1.060
24.458,-143.444,-1001.436,5.979,0.852,1.273
31.466,-150.348,-992.667,5.684,0.972,1.455
35.922,-159.636,-986.503,5.453,1.006,1.642
34.372,-170.242,-985.998,5.281,0.807,1.756
30.440,-178.033,-988.749,5.493,0.538,1.686
25.956,-181.610,-992.718,5.765,0.355,1.541
21.480,-186.291,-997.332,5.681,0.370,1.318
14.934,-186.810,-1000.282,5.510,0.327,1.100
11.000,-187.000,-1002.000,5.250,0.210,1.050
14.203,-186.672,-1002.512,4.540,0.335,0.873
18.961,-181.592,-995.809,3.671,0.316,0.760
21.473,-182.772,-988.061,2.514,0.235,0.766
22.638,-186.819,-986.853,1.227,0.119,0.592
25.224,-188.591,-988.595,0.326,-0.190,0.429
28.837,-188.517,-991.952,-0.355,-0.381,0.117
32.210,-183.581,-996.206,-0.875,-0.498,-0.226
32.265,-180.150,-995.243,-1.301,-0.556,-0.341
26.588,-177.179,-994.293,-1.538,-0.662,-0.521
20.527,-171.371,-997.032,-1.423,-0.780,-0.590
17.728,-164.849,-995.095,-1.179,-0.701,-0.513
19.075,-157.985,-992.842,-0.923,-0.576,-0.459
21.567,-154.053,-988.179,-0.592,-0.448,-0.282
21.986,-150.320,-986.244,-0.214,-0.339,-0.028
22.000,-147.000,-988.000,0.350,-0.280,0.280
22.055,-146.980,-987.564,0.970,-0.158,0.533
20.836,-145.917,-991.634,1.454,-0.117,0.703
17.918,-142.417,-989.759,1.906,-0.199,0.945
16.677,-140.316,-990.634,1.845,-0.190,1.137
17.464,-141.478,-996.505,1.504,-0.083,1.208
19.436,-140.611,-995.177,1.361,0.229,1.296
18.805,-142.430,-993.026,0.939,0.496,1.646
18.604,-148.730,-997.469,0.622,0.424,2.018
27.211,-149.072,-1000.319,1.007,0.599,2.029
30.154,-151.252,-992.556,1.257,1.003,2.181
28.914,-153.422,-995.792,1.131,0.965,2.452
35.201,-148.675,-999.916,1.676,0.788,2.399
36.624,-150.872,-994.532,2.130,0.884,2.405
36.174,-160.676,-993.955,1.665,0.998,2.439
36.000,-172.000,-992.000,1.610,1.190,2.240
31.477,-181.012,-994.505,2.585,1.276,2.103
29.873,-187.029,-993.183,4.124,1.177,2.111
24.140,-192.475,-987.067,5.666,1.245,1.999
16.861,-192.138,-987.831,6.982,0.997,1.772
15.549,-192.964,-991.938,7.911,0.713,1.622
10.479,-193.071,-999.367,8.104,0.793,1.305
5.783,-183.173,-998.659,7.722,0.847,0.966
3.995,-177.137,-996.001,6.690,1.037,0.974
9.124,-175.462,-994.367,5.078,1.022,0.991
22.700,-175.649,-987.797,3.424,0.932,0.967
32.333,-182.886,-987.805,1.837,1.041,0.995
40.776,-187.378,-988.191,0.659,0.864,0.953
42.338,-191.993,-985.508,0.062,0.633,0.887
40.023,-198.744,-990.261,-0.328,0.281,0.741
41.000,-200.000,-997.000,-0.490,-0.070,0.560
32.971,-200.072,-993.856,-0.658,-0.073,0.442
20.244,-197.087,-991.326,-0.850,-0.117,0.264
12.612,-190.106,-992.430,-0.816,-0.128,0.169
16.788,-186.826,-988.107,-1.474,0.024,0.273
26.476,-185.012,-987.054,-2.848,0.205,0.246
33.585,-181.031,-986.503,-4.037,0.285,0.231
40.470,-177.805,-986.195,-5.289,0.280,0.436
44.780,-175.215,-989.827,-6.927,0.282,0.555
46.801,-172.530,-990.182,-8.991,0.268,0.665
47.180,-170.466,-988.797,-11.361,0.345,0.773
45.233,-169.998,-986.416,-13.926,0.268,0.753
35.792,-172.219,-988.376,-16.667,0.038,0.809
27.303,-174.574,-991.811,-19.238,-0.105,0.825
24.475,-174.819,-995.729,-21.449,-0.128,0.669
19.000,-172.000,-997.000,-23.100,0.070,0.420
15.159,-170.170,-994.448,-24.283,0.049,0.112
17.384,-167.047,-1002.475,-24.940,-0.372,-0.097
28.137,-160.810,-1006.353,-25.014,-0.602,-0.255
36.246,-160.754,-1006.328,-25.414,-0.466,-0.444
39.250,-162.880,-1007.602,-25.675,-0.459,-0.497
42.312,-170.553,-1002.766,-24.751,-0.679,-0.608
39.674,-179.224,-1001.012,-23.017,-0.772,-0.938
36.214,-176.306,-1000.186,-20.711,-0.772,-1.242
32.959,-175.123,-996.912,-17.949,-0.717,-1.473
27.568,-170.188,-993.155,-15.142,-0.709,-1.819
16.324,-154.478,-994.581,-12.717,-0.923,-2.116
7.253,-133.952,-1000.821,-10.983,-1.115,-2.191
11.292,-113.666,-1006.392,-10.002,-1.093,-2.262
20.488,-103.923,-1007.870,-9.824,-0.959,-2.222
30.000,-95.000,-1006.000,-10.290,-0.840,-2.100
35.541,-89.741,-1002.240,-10.855,-0.718,-2.040
38.227,-92.780,-992.753,-11.161,-0.669,-2.010
40.272,-91.663,-991.716,-11.138,-0.829,-2.092
42.317,-91.062,-994.126,-10.467,-0.948,-2.068
44.326,-90.229,-990.933,-9.174,-0.864,-2.014
42.612,-87.374,-993.786,-7.258,-0.742,-1.810
44.253,-84.796,-992.715,-4.697,-0.622,-1.370
45.169,-83.041,-991.759,-2.267,-0.562,-1.132
43.033,-81.844,-995.532,-0.194,-0.472,-0.954
43.016,-77.239,-995.633,1.858,-0.186,-0.803
38.777,-75.600,-992.738,3.555,0.065,-0.707
34.474,-76.106,-990.185,4.415,0.194,-0.565
32.261,-78.115,-993.049,4.513,0.320,-0.465
29.616,-83.948,-993.924,4.017,0.435,-0.419
27.000,-90.000,-996.000,3.080,0.490,-0.490
25.044,-97.045,-1000.687,2.055,0.492,-0.716
24.753,-101.418,-1001.517,0.858,0.457,-1.130
20.878,-102.354,-1003.682,-0.632,0.253,-1.490
18.252,-101.663,-1006.208,-2.115,-0.194,-1.764
19.704,-107.596,-1013.462,-3.576,-0.624,-2.070
21.318,-119.246,-1022.422,-4.866,-0.679,-2.293
20.796,-123.088,-1022.718,-5.319,-0.555,-2.618
17.172,-124.860,-1015.705,-4.889,-0.617,-2.863
18.599,-123.471,-1008.452,-3.868,-0.847,-2.918
25.990,-116.185,-1008.775,-2.552,-1.085,-3.045
32.447,-111.726,-1006.121,-1.460,-1.077,-3.087
31.418,-107.772,-997.969,-0.388,-0.900,-3.099
24.908,-100.565,-990.909,0.762,-0.836,-3.152
19.276,-94.336,-986.694,1.753,-0.835,-2.966
17.000,-91.000,-986.000,2.590,-0.700,-2.730
19.542,-83.397,-984.104,3.206,-0.455,-2.675
21.077,-77.212,-985.213,3.728,-0.257,-2.435
21.115,-77.123,-987.895,4.048,-0.144,-2.060
23.992,-73.225,-996.470,4.537,-0.155,-1.880
28.586,-68.317,-1004.375,5.476,-0.104,-1.626
28.278,-63.989,-1001.126,6.024,-0.095,-1.239
23.698,-63.259,-1005.805,6.335,-0.374,-0.802
21.168,-68.665,-1014.717,7.068,-0.558,-0.254
18.524,-71.223,-1015.058,7.970,-0.514,0.342
17.898,-77.487,-1015.787,8.338,-0.367,0.980
22.162,-84.948,-1012.757,8.328,-0.141,1.473
29.656,-89.636,-1001.084,8.438,-0.069,2.063
37.268,-100.725,-995.524,8.098,-0.176,2.783
45.333,-108.870,-997.124,7.655,-0.205,3.110
53.000,-116.000,-995.000,7.420,-0.140,3.290
56.008,-125.692,-993.089,7.146,-0.081,3.302
53.157,-135.060,-992.243,7.388,-0.011,3.378
46.159,-148.655,-992.443,8.063,-0.004,3.830
46.377,-158.861,-995.106,9.274,0.056,4.112
49.672,-169.400,-993.910,10.761,0.335,4.382
48.898,-174.859,-993.089,11.831,0.610,4.462
51.264,-168.565,-992.785,12.487,0.785,4.420
52.222,-169.527,-986.580,12.246,1.031,4.675
46.036,-175.824,-981.872,10.965,1.189,4.710
38.721,-180.134,-984.366,9.154,1.145,4.621
38.837,-180.961,-987.685,7.460,1.073,4.336
37.640,-182.396,-992.805,5.724,0.840,4.022
36.818,-186.943,-1001.561,3.616,0.433,3.829
43.957,-187.212,-1007.855,1.673,0.095,3.269
43.000,-194.000,-1014.000,-0.140,-0.210,2.940
37.597,-195.773,-1015.591,-1.251,-0.687,2.720
32.922,-193.444,-1010.730,-1.689,-1.158,2.328
28.026,-197.355,-1010.066,-2.442,-1.462,2.057
28.527,-186.042,-1007.129,-2.923,-1.775,1.671
24.769,-177.305,-998.755,-3.408,-1.924,1.371
20.551,-171.571,-995.890,-4.469,-2.091,1.026
19.893,-156.983,-997.137,-5.620,-2.399,0.681
18.061,-147.614,-998.900,-6.892,-2.519,0.442
18.157,-140.033,-999.726,-8.426,-2.436,0.173
16.064,-137.887,-1001.388,-10.091,-2.107,0.074
14.244,-133.247,-1000.213,-10.972,-1.775,-0.196
13.279,-129.122,-994.526,-11.098,-1.647,-0.404
11.957,-127.615,-998.150,-11.037,-1.715,-0.439
12.904,-117.384,-1003.184,-9.806,-1.735,-0.479
7.000,-112.000,-1002.000,-7.910,-1.540,-0.210
1.071,-106.483,-1005.302,-6.127,-1.415,0.094
3.459,-96.120,-1007.437,-3.788,-1.263,0.480
10.018,-85.803,-1005.208,-1.407,-0.997,0.939
21.450,-76.434,-1000.988,0.463,-0.620,1.371
28.607,-74.023,-992.231,2.083,-0.195,2.010
27.044,-78.329,-985.982,3.771,0.147,2.551
20.473,-82.017,-982.768,5.678,0.521,2.894
18.606,-80.019,-981.798,7.385,0.947,3.196
27.157,-84.901,-986.814,8.434,1.375,3.505
31.025,-91.929,-989.148,9.220,1.766,3.730
27.538,-95.231,-989.574,10.252,2.012,3.849
25.730,-101.991,-996.580,11.360,2.024,3.983
30.119,-102.450,-1001.822,12.405,2.177,4.085
39.490,-105.197,-1001.871,12.904,2.398,4.134
48.000,-118.000,-1001.000,12.810,2.380,4.130
55.047,-134.358,-1003.249,12.938,2.272,4.080
59.715,-150.611,-1007.095,13.780,1.985,3.833
57.090,-164.892,-1004.510,14.885,1.723,3.395
43.594,-179.133,-1001.235,15.646,1.429,2.780
26.741,-182.972,-996.829,16.505,1.068,1.889
13.442,-182.193,-995.465,16.734,0.870,1.204
9.126,-184.078,-999.080,15.878,0.690,0.650
14.563,-184.815,-995.375,14.670,0.693,-0.085
17.230,-188.965,-994.900,13.127,0.725,-0.717
14.601,-192.265,-998.011,12.077,0.564,-1.220
4.756,-193.375,-992.720,11.376,0.360,-1.692
-11.356,-189.261,-989.311,10.361,0.058,-2.184
-18.476,-183.794,-993.848,9.354,-0.191,-2.535
-9.766,-181.628,-1001.204,8.197,-0.201,-2.765
11.000,-179.000,-1008.000,6.580,-0.070,-2.940
38.832,-180.399,-1007.065,4.629,0.289,-2.999
60.928,-186.127,-997.948,2.945,0.488,-3.105
71.354,-196.087,-989.372,1.721,0.124,-3.309
78.753,-198.732,-985.031,1.024,-0.240,-3.801
81.274,-194.889,-985.356,0.593,-0.542,-4.278
82.637,-194.829,-985.585,-0.135,-0.702,-4.543
85.036,-189.404,-980.444,-1.207,-0.632,-4.850
84.040,-183.296,-972.539,-2.124,-0.880,-4.968
84.769,-179.848,-969.286,-2.518,-1.251,-5.019
85.095,-176.279,-974.933,-2.852,-1.614,-5.070
84.352,-172.434,-981.490,-2.908,-1.881,-4.941
78.262,-168.478,-985.332,-2.524,-1.860,-4.728
69.814,-168.065,-987.381,-1.989,-1.800,-4.454
63.969,-166.560,-987.931,-1.386,-1.649,-4.067
56.000,-164.000,-984.000,-0.980,-1.470,-3.710
51.450,-164.654,-978.920,-0.725,-1.404,-3.413
47.605,-167.237,-983.706,-0.578,-1.364,-3.046
42.166,-169.367,-989.068,-0.139,-1.184,-2.731
34.043,-170.125,-990.413,0.377,-0.915,-2.417
25.351,-167.485,-993.101,0.514,-0.823,-2.151
24.165,-163.193,-996.684,0.434,-0.741,-1.885
23.917,-162.008,-999.245,-0.292,-0.625,-1.514
24.701,-162.868,-1004.546,-1.513,-0.569,-1.273
30.503,-165.365,-1006.214,-2.783,-0.351,-1.135
35.826,-167.443,-999.873,-4.021,-0.094,-1.119
38.460,-169.347,-998.631,-4.854,-0.142,-1.088
41.384,-171.842,-993.355,-5.079,-0.417,-1.043
41.190,-169.943,-990.483,-5.028,-0.732,-1.034
34.851,-166.554,-995.464,-5.033,-1.111,-0.885
28.000,-163.000,-995.000,-4.760,-1.470,-0.770
21.866,-158.448,-999.879,-4.426,-1.777,-0.538
17.578,-157.064,-1004.104,-4.425,-1.965,-0.301
16.417,-156.760,-1003.518,-4.287,-1.852,-0.258
15.136,-157.903,-1003.602,-4.183,-1.643,-0.131
13.493,-158.981,-1000.222,-4.149,-1.475,-0.047
12.805,-157.932,-995.817,-3.621,-1.281,0.136
10.804,-160.210,-989.506,-2.880,-1.028,0.437
9.062,-159.350,-985.151,-1.968,-0.783,0.552
8.219,-155.235,-984.672,-1.141,-0.661,0.767
8.536,-155.314,-987.134,-1.004,-0.488,1.024
13.338,-153.648,-991.627,-1.185,-0.347,1.039
17.852,-156.534,-995.320,-1.917,-0.170,1.103
22.635,-163.569,-997.302,-3.161,0.166,1.200
26.263,-163.962,-996.731,-3.741,0.281,1.100
27.000,-168.000,-994.000,-3.850,0.210,1.050
29.507,-172.202,-995.105,-4.215,-0.132,0.951
33.338,-168.796,-1001.664,-4.440,-0.567,0.636
38.708,-168.172,-1003.990,-4.684,-0.700,0.491
40.008,-169.388,-1006.571,-5.071,-0.887,0.490
40.766,-168.425,-1007.173,-4.763,-0.991,0.506
43.384,-166.481,-1003.118,-4.262,-0.987,0.571
44.114,-163.739,-1000.799,-4.123,-1.054,0.556
46.822,-158.541,-997.216,-4.059,-1.113,0.497
47.227,-151.384,-996.766,-4.124,-1.193,0.378
46.864,-146.031,-995.646,-4.080,-1.102,0.323
46.422,-140.456,-990.709,-4.123,-1.002,0.404
43.612,-136.623,-987.597,-4.417,-0.951,0.413
41.417,-134.061,-985.258,-4.707,-0.905,0.443
39.794,-131.993,-983.882,-5.025,-0.907,0.584
39.000,-135.000,-985.000,-5.390,-0.840,0.700
39.681,-136.320,-991.788,-5.391,-0.728,0.704
41.835,-133.515,-996.378,-4.639,-0.527,0.729
40.949,-133.267,-994.297,-3.745,-0.508,0.900
39.628,-133.991,-997.206,-3.094,-0.599,1.050
40.140,-130.033,-1000.291,-2.336,-0.678,1.176
40.032,-128.379,-1000.196,-1.402,-0.881,1.385
41.102,-133.404,-1004.384,-0.731,-0.907,1.627
41.966,-136.788,-1006.161,-0.191,-0.908,1.749
41.585,-141.416,-1002.204,0.539,-0.870,1.697
37.260,-147.592,-996.558,1.251,-0.796,1.665
32.273,-150.258,-994.129,2.368,-0.964,1.699
30.039,-150.975,-997.521,3.823,-1.086,1.631
27.059,-147.372,-997.306,5.133,-1.135,1.509
26.108,-140.948,-995.948,6.058,-1.105,1.467
28.000,-133.000,-994.000,6.510,-0.980,1.470
31.235,-127.093,-990.879,6.495,-0.920,1.638
37.714,-129.767,-993.039,6.021,-0.814,1.869
43.611,-131.958,-989.915,5.616,-0.677,1.855
42.575,-133.222,-987.530,5.001,-0.603,1.809
38.526,-139.725,-991.514,4.179,-0.674,1.817
35.179,-144.971,-994.473,3.468,-0.791,1.713
30.592,-149.327,-996.101,2.586,-0.843,1.528
25.323,-151.906,-997.811,1.558,-0.844,1.469
24.159,-154.651,-999.377,0.311,-0.738,1.393
29.289,-160.640,-995.076,-1.065,-0.557,1.042
32.152,-162.817,-990.695,-2.423,-0.440,0.757
35.008,-165.650,-992.016,-3.177,-0.585,0.492
42.021,-166.325,-996.169,-3.310,-0.708,0.209
43.845,-161.283,-996.667,-3.360,-0.616,0.041
42.000,-159.000,-994.000,-3.220,-0.630,-0.210
39.561,-155.033,-995.544,-2.822,-0.750,-0.346
35.832,-147.915,-997.750,-2.145,-0.876,-0.351
33.775,-142.915,-997.500,-1.682,-0.963,-0.342
31.898,-141.624,-996.418,-1.299,-0.985,-0.400
30.875,-139.789,-999.307,-0.652,-0.977,-0.525
30.850,-134.900,-999.057,-0.098,-0.975,-0.464
28.824,-133.023,-993.744,0.307,-0.819,-0.421
27.945,-133.972,-993.039,0.723,-0.568,-0.424
29.446,-132.786,-991.832,1.575,-0.608,-0.359
32.550,-128.526,-995.078,2.574,-0.584,-0.320
35.378,-126.182,-996.637,3.241,-0.320,-0.173
33.937,-131.051,-991.540,3.724,-0.146,-0.001
33.118,-137.412,-991.338,4.508,-0.043,0.101
34.106,-137.873,-992.046,5.807,0.005,0.235
35.000,-140.000,-993.000,6.930,0.070,0.420
36.888,-146.271,-993.870,7.779,0.192,0.606
36.325,-149.772,-995.401,8.633,0.310,0.738
36.256,-155.132,-996.136,9.471,0.442,0.824
37.674,-159.825,-995.910,10.335,0.513,0.839
38.224,-159.752,-997.058,11.156,0.461,0.854
39.125,-160.178,-995.523,11.814,0.418,0.928
37.802,-161.130,-994.959,12.124,0.417,0.983
35.167,-165.465,-991.433,12.305,0.295,1.044
33.340,-172.707,-989.006,12.489,0.068,1.072
32.533,-176.045,-995.355,12.734,-0.302,0.906
34.816,-175.464,-1000.825,13.055,-0.783,0.829
38.665,-177.723,-1006.788,12.829,-1.094,0.980
40.064,-183.875,-1010.212,12.328,-1.209,0.948
38.667,-187.217,-1007.252,11.969,-1.178,0.919
36.000,-188.000,-999.000,11.060,-1.120,0.980
34.077,-191.181,-988.839,9.397,-1.229,0.919
34.548,-197.694,-987.046,7.368,-1.434,0.838
36.192,-204.661,-984.243,5.297,-1.437,0.500
37.525,-208.897,-976.504,3.441,-1.176,0.056
36.123,-212.490,-971.703,1.731,-1.014,-0.251
35.212,-215.142,-973.982,0.272,-0.963,-0.564
38.217,-211.575,-977.054,-0.618,-0.828,-0.860
38.183,-207.209,-977.720,-1.524,-0.706,-1.043
36.700,-204.101,-984.351,-2.644,-0.650,-1.102
39.141,-199.179,-988.526,-3.557,-0.503,-1.212
40.275,-196.789,-990.153,-4.526,-0.334,-1.326
39.932,-192.086,-995.300,-5.214,-0.410,-1.491
39.767,-185.309,-998.621,-5.435,-0.514,-1.624
37.631,-184.105,-1000.271,-5.539,-0.665,-1.522
36.000,-183.000,-1002.000,-5.460,-0.910,-1.540
32.859,-174.600,-999.945,-5.000,-1.034,-1.616
26.647,-166.753,-992.644,-4.430,-1.155,-1.511
22.895,-165.387,-989.966,-4.223,-1.263,-1.412
24.701,-160.740,-991.650,-3.697,-1.410,-1.389
29.868,-155.594,-991.694,-3.007,-1.299,-1.253
30.662,-155.077,-990.409,-2.739,-0.895,-0.995
28.934,-156.114,-986.742,-2.096,-0.689,-0.828
28.131,-156.211,-985.879,-0.936,-0.505,-0.586
26.743,-151.830,-987.792,0.256,-0.371,-0.266
29.693,-150.905,-987.225,1.101,-0.227,-0.067
31.451,-153.684,-988.052,1.648,-0.054,0.116
31.280,-156.388,-995.656,2.054,-0.106,0.274
33.417,-159.958,-996.798,2.315,-0.017,0.382
30.188,-162.496,-990.325,2.554,0.057,0.514
28.000,-168.000,-992.000,2.800,-0.210,0.700
33.941,-172.662,-996.539,3.331,-0.416,0.831
38.661,-174.346,-998.692,3.816,-0.332,0.882
38.629,-177.037,-998.308,3.751,-0.182,1.000
37.059,-181.962,-993.890,3.553,-0.102,1.069
35.670,-188.281,-987.795,3.640,-0.071,1.037
38.029,-193.025,-989.203,3.913,-0.165,1.061
44.511,-197.226,-995.242,4.148,-0.126,1.042
48.066,-197.137,-992.512,4.278,0.064,0.854
44.159,-197.854,-987.214,3.823,-0.021,0.767
41.812,-202.660,-988.999,3.124,-0.191,0.721
45.404,-201.388,-992.551,2.928,-0.208,0.430
45.198,-199.532,-989.981,2.360,-0.230,0.191
43.971,-198.433,-987.801,1.297,-0.292,0.013
43.753,-198.390,-989.310,0.626,-0.177,-0.066
41.000,-202.000,-992.000,0.210,-0.000,-0.070
40.908,-198.135,-994.087,-0.056,-0.119,-0.376
39.929,-192.964,-992.767,-0.133,-0.084,-0.465
37.610,-194.480,-995.299,-0.580,0.169,-0.369
39.446,-194.075,-996.313,-1.224,0.221,-0.507
41.269,-190.915,-990.009,-1.459,0.345,-0.579
39.372,-191.505,-983.691,-1.777,0.410,-0.758
38.026,-192.965,-981.029,-2.032,0.269,-0.910
39.002,-190.288,-983.793,-1.955,0.150,-0.841
36.939,-186.251,-983.722,-2.299,-0.061,-0.944
32.670,-178.882,-980.417,-3.062,-0.487,-1.036
28.389,-168.472,-980.306,-4.066,-1.054,-1.150
27.266,-158.441,-986.666,-4.838,-1.515,-1.480
31.383,-151.637,-996.768,-5.387,-1.704,-1.496
32.928,-152.525,-1001.218,-6.395,-1.574,-1.310
32.000,-157.000,-999.000,-7.070,-1.330,-1.190
31.194,-163.828,-991.918,-6.998,-1.144,-0.887
31.016,-169.062,-989.916,-6.115,-1.047,-0.708
35.781,-166.718,-993.014,-4.169,-1.049,-0.652
38.650,-163.451,-991.057,-2.299,-0.820,-0.419
35.565,-161.037,-987.752,-0.993,-0.550,-0.212
33.974,-159.998,-985.393,0.295,-0.364,-0.017
35.114,-159.907,-984.004,1.320,-0.049,0.227
36.012,-158.057,-984.941,1.919,0.069,0.409
35.146,-159.953,-985.538,2.394,0.115,0.536
35.903,-164.085,-989.377,2.346,0.204,0.619
38.260,-165.856,-994.818,1.912,0.208,0.628
37.051,-168.575,-996.148,1.786,0.193,0.652
35.899,-173.631,-999.267,1.475,-0.026,0.706
36.009,-177.280,-1002.085,1.173,-0.408,0.609
37.000,-177.000,-1000.000,1.050,-0.700,0.560
39.719,-179.795,-997.340,0.286,-0.826,0.629
40.234,-189.393,-994.889,-0.450,-0.941,0.580
39.427,-195.089,-991.496,-0.732,-1.015,0.528
38.387,-197.697,-988.031,-0.927,-0.906,0.403
38.123,-202.467,-986.496,-0.850,-0.818,0.218
39.278,-199.523,-985.623,-0.652,-0.746,0.119
40.023,-193.711,-983.915,-0.401,-0.622,-0.011
39.176,-189.546,-983.940,-0.337,-0.562,-0.133
36.442,-180.691,-985.328,-0.621,-0.555,-0.200
35.771,-176.464,-989.093,-0.994,-0.599,-0.248
35.824,-173.818,-992.766,-1.586,-0.677,-0.356
34.227,-169.586,-994.929,-2.251,-0.701,-0.445
34.417,-172.284,-999.485,-2.695,-0.716,-0.396
37.580,-173.914,-1002.002,-2.789,-0.869,-0.347
40.000,-173.000,-999.000,-2.590,-0.980,-0.350
39.102,-173.070,-994.540,-2.353,-0.976,-0.351
40.120,-172.276,-991.683,-1.980,-1.035,-0.349
42.259,-171.017,-989.351,-1.407,-1.051,-0.354
40.970,-168.872,-989.331,-0.817,-1.077,-0.328
39.703,-169.756,-993.856,-0.449,-1.117,-0.246
38.547,-170.928,-995.513,-0.235,-0.910,-0.210
35.814,-170.025,-989.515,-0.142,-0.613,-0.207
34.970,-172.723,-986.956,-0.213,-0.555,-0.143
35.130,-174.357,-986.611,0.040,-0.626,-0.186
34.715,-171.886,-984.617,0.361,-0.621,-0.235
35.976,-170.167,-989.863,0.212,-0.674,-0.180
37.854,-169.954,-993.329,-0.031,-0.685,-0.257
39.222,-169.986,-991.347,-0.318,-0.617,-0.270
37.557,-170.039,-991.037,-0.669,-0.630,-0.294
36.000,-171.000,-992.000,-0.630,-0.560,-0.350
37.809,-172.788,-995.549,-0.264,-0.549,-0.229
37.553,-173.243,-995.853,-0.019,-0.580,-0.153
35.736,-172.557,-993.173,-0.029,-0.523,-0.120
34.304,-174.280,-992.708,-0.107,-0.662,-0.207
33.945,-176.423,-993.303,-0.174,-0.796,-0.295
32.361,-174.091,-995.105,-0.310,-0.756,-0.278
29.964,-170.899,-991.597,-0.349,-0.694,-0.278
33.462,-171.862,-989.768,-0.351,-0.631,-0.213
41.370,-172.283,-994.252,-0.218,-0.684,-0.210
46.017,-171.866,-995.276,0.131,-0.682,-0.167
44.850,-175.864,-993.612,0.278,-0.537,-0.129
43.642,-178.600,-989.849,0.676,-0.479,-0.140
42.563,-177.502,-987.837,1.402,-0.502,-0.156
42.067,-175.658,-989.234,1.878,-0.571,-0.207
42.000,-173.000,-990.000,2.170,-0.560,-0.070
39.405,-171.162,-989.297,2.081,-0.434,-0.107
36.941,-170.715,-987.202,1.715,-0.406,-0.276
33.737,-172.261,-987.682,1.375,-0.459,-0.259
33.285,-172.705,-990.130,0.953,-0.543,-0.333
34.065,-169.745,-993.039,0.563,-0.688,-0.316
34.213,-169.339,-995.145,0.176,-0.780,-0.185
36.149,-172.220,-995.034,-0.396,-0.768,-0.140
37.856,-173.934,-996.011,-0.827,-0.767,-0.201
39.166,-175.329,-993.721,-0.764,-0.825,-0.283
37.402,-178.801,-992.635,-0.464,-0.888,-0.227
37.861,-180.828,-995.388,-0.153,-0.928,-0.215
38.930,-181.220,-993.087,0.309,-0.865,-0.167
36.060,-182.213,-990.619,0.863,-0.728,-0.038
35.027,-181.930,-991.095,1.332,-0.614,0.005
36.000,-182.000,-991.000,1.820,-0.490,0.070
37.048,-180.456,-989.374,2.037,-0.307,0.076
36.045,-178.152,-987.206,1.923,-0.204,0.059
37.219,-177.717,-986.961,1.782,-0.232,0.087
37.313,-175.927,-986.027,1.284,-0.153,0.029
34.113,-176.772,-987.105,0.580,-0.200,0.001
37.184,-177.854,-994.807,0.025,-0.478,-0.016
39.979,-175.884,-997.969,-0.460,-0.560,-0.149
38.102,-175.926,-997.844,-1.070,-0.619,-0.148
38.559,-177.351,-1000.071,-1.525,-0.754,-0.066
39.965,-180.921,-997.315,-1.412,-0.806,-0.124
39.857,-181.630,-994.496,-1.232,-0.919,-0.120
40.194,-179.060,-992.740,-0.966,-1.013,-0.017
39.688,-180.782,-990.521,-0.597,-1.064,0.104
38.952,-180.646,-989.679,-0.306,-1.033,0.138
38.000,-178.000,-985.000,-0.140,-0.840,0.140
35.271,-177.113,-984.384,-0.266,-0.706,0.149
35.337,-176.243,-987.898,-0.268,-0.704,0.078
37.430,-175.141,-987.218,-0.471,-0.638,0.079
38.225,-172.149,-989.803,-0.987,-0.470,0.031
37.647,-171.458,-992.044,-1.578,-0.418,0.003
36.911,-176.240,-990.702,-2.225,-0.418,-0.020
37.027,-179.025,-992.275,-2.454,-0.506,-0.147
37.886,-178.069,-995.864,-2.453,-0.757,-0.142
39.069,-177.941,-994.772,-2.347,-0.783,-0.180
37.668,-177.542,-992.815,-2.194,-0.822,-0.316
37.007,-175.943,-996.154,-1.794,-1.052,-0.365
38.703,-173.734,-995.855,-1.101,-1.146,-0.340
36.893,-169.728,-993.476,-0.901,-1.209,-0.353
32.447,-168.027,-992.886,-0.812,-1.174,-0.254
32.000,-169.000,-992.000,-0.770,-1.050,-0.140
33.921,-168.998,-991.270,-1.082,-0.933,-0.202
33.799,-169.572,-988.743,-1.191,-0.792,-0.212
35.608,-171.182,-986.855,-1.204,-0.765,-0.216
38.151,-172.246,-987.573,-1.096,-0.770,-0.180
39.607,-169.450,-991.477,-0.801,-0.766,-0.121
41.248,-166.853,-992.734,-0.705,-0.661,-0.050
40.952,-169.261,-992.113,-0.854,-0.479,-0.000
41.808,-171.037,-994.046,-0.861,-0.362,-0.003
44.009,-169.377,-990.200,-0.438,-0.133,0.053
41.784,-169.151,-986.473,-0.312,0.096,0.183
37.757,-170.853,-984.169,-0.593,0.161,0.397
36.625,-168.160,-983.145,-0.611,0.108,0.213
33.877,-165.750,-989.008,-0.829,0.066,0.078
32.038,-165.914,-992.016,-1.519,0.067,0.127
33.000,-165.000,-991.000,-2.310,-0.000,-0.070
31.194,-169.055,-994.762,-3.011,-0.120,0.043
32.600,-173.111,-1002.388,-3.151,-0.213,0.054
36.505,-171.846,-999.053,-2.957,-0.160,-0.049
37.047,-173.575,-991.935,-3.175,-0.177,0.065
39.286,-176.872,-994.183,-3.234,-0.343,0.046
42.497,-176.887,-994.779,-2.742,-0.436,-0.012
43.007,-176.997,-996.241,-2.363,-0.492,-0.074
43.081,-175.219,-995.521,-2.187,-0.428,-0.074
39.408,-174.376,-988.178,-1.859,-0.477,-0.015
35.214,-176.764,-994.531,-1.307,-0.986,0.053
39.184,-172.217,-1005.155,-0.631,-1.352,0.071
40.356,-167.808,-1002.455,-0.268,-1.284,0.090
35.590,-167.956,-999.556,-0.680,-1.396,0.147
34.038,-166.937,-997.403,-1.153,-1.544,0.044
36.000,-168.000,-993.000,-1.050,-1.470,-0.140
38.897,-166.475,-990.529,-0.963,-1.414,-0.217
37.120,-165.194,-985.050,-1.171,-1.253,-0.110
34.688,-168.688,-980.202,-1.448,-1.111,-0.018
35.688,-170.020,-983.322,-1.596,-1.163,0.031
35.967,-165.838,-988.595,-1.619,-1.171,0.080
35.990,-161.504,-991.527,-1.838,-1.007,0.067
34.846,-163.221,-995.412,-2.430,-0.909,0.069
33.056,-164.069,-999.908,-2.917,-0.913,0.006
33.594,-164.352,-997.221,-3.200,-0.849,-0.055
35.413,-167.327,-993.226,-3.615,-0.843,-0.158
36.672,-168.699,-991.738,-3.667,-0.803,-0.245
37.046,-171.303,-988.594,-3.097,-0.775,-0.164
37.109,-171.597,-991.408,-2.002,-0.873,-0.146
38.136,-169.744,-994.042,-0.922,-0.907,-0.132
37.000,-166.000,-994.000,-0.420,-0.840,-0.070
34.172,-157.961,-995.080,-0.048,-0.775,-0.016
34.548,-154.958,-993.921,0.096,-0.730,0.110
35.725,-154.298,-995.148,-0.008,-0.611,0.154
36.135,-151.415,-995.364,-0.214,-0.521,0.132
35.823,-151.689,-992.753,-0.663,-0.477,0.143
36.223,-156.209,-990.613,-0.842,-0.506,0.144
37.028,-160.173,-992.334,-0.678,-0.561,0.217
37.852,-160.965,-995.967,-0.247,-0.559,0.278
39.865,-162.375,-994.304,0.063,-0.568,0.327
39.278,-165.199,-994.060,0.072,-0.509,0.418
39.690,-166.060,-991.746,0.332,-0.467,0.382
41.798,-163.634,-989.590,0.604,-0.352,0.345
41.866,-161.433,-990.971,0.969,-0.282,0.347
40.695,-159.797,-987.437,1.082,-0.361,0.358
38.000,-160.000,-989.000,0.490,-0.420,0.420
37.728,-159.483,-995.320,0.148,-0.598,0.308
39.639,-156.735,-998.265,0.048,-0.751,0.198
40.200,-159.482,-1000.793,-0.512,-0.783,0.264
39.540,-161.654,-1001.560,-1.111,-0.736,0.275
38.705,-165.019,-996.348,-1.143,-0.693,0.301
37.701,-170.842,-992.700,-0.919,-0.701,0.357
37.046,-169.800,-992.943,-0.439,-0.701,0.349
38.882,-168.945,-990.221,0.240,-0.703,0.351
37.924,-169.204,-989.576,0.581,-0.638,0.299
34.244,-167.477,-990.830,0.785,-0.664,0.229
35.300,-162.268,-990.888,0.851,-0.729,0.173
37.925,-157.498,-993.097,0.628,-0.642,0.130
37.711,-158.539,-995.427,0.094,-0.549,0.137
36.950,-159.028,-996.119,-0.409,-0.654,0.054
37.000,-161.000,-998.000,-0.700,-0.700,0.000
36.292,-163.722,-998.482,-0.794,-0.520,-0.059
33.292,-165.987,-993.454,-0.551,-0.336,-0.047
29.809,-168.730,-990.614,-0.356,-0.175,0.083
32.292,-168.618,-990.505,0.299,-0.096,0.016
37.509,-167.272,-987.350,1.073,0.251,0.024
36.223,-164.377,-982.728,1.413,0.711,0.077
33.973,-164.043,-979.004,2.014,0.927,0.147
34.916,-161.494,-984.456,2.623,1.233,0.149
35.206,-154.913,-986.197,2.944,1.590,0.103
34.013,-152.537,-981.932,2.688,2.013,0.313
35.869,-151.493,-985.396,2.357,2.386,0.347
40.855,-155.764,-981.514,1.981,2.798,0.576
36.750,-161.146,-976.855,0.937,2.978,0.768
34.837,-163.355,-987.667,0.671,2.222,0.523
48.000,-165.000,-1010.000,0.910,1.400,0.420
55.281,-164.707,-1024.736,0.116,1.257,0.299
49.601,-169.565,-1019.672,-0.953,1.161,0.262
41.576,-177.812,-1011.991,-1.060,0.688,0.320
37.632,-186.480,-1004.698,-0.064,0.122,0.395
38.593,-188.454,-1001.750,1.282,-0.417,0.409
38.840,-185.969,-1001.031,2.373,-0.842,0.451
37.971,-191.599,-993.530,2.731,-0.987,0.555
38.831,-196.876,-992.814,2.828,-1.109,0.240
42.047,-195.316,-993.986,3.915,-1.237,0.010
45.969,-187.914,-994.968,5.290,-1.321,-0.039
47.538,-181.796,-995.453,5.834,-1.282,-0.088
46.264,-177.982,-989.905,5.833,-1.114,-0.073
46.384,-172.310,-986.323,5.272,-1.034,-0.173
48.194,-168.500,-986.058,3.969,-0.968,-0.213
48.000,-166.000,-986.000,2.450,-0.910,-0.280
46.360,-169.168,-985.631,1.042,-0.904,-0.345
43.708,-171.878,-990.398,-0.101,-1.003,-0.399
41.925,-168.288,-992.386,-0.779,-1.095,-0.432
38.741,-169.225,-989.467,-1.399,-0.972,-0.431
33.103,-168.891,-992.762,-1.874,-1.063,-0.520
33.849,-164.298,-996.425,-1.873,-1.285,-0.470
37.068,-166.291,-998.219,-1.980,-1.177,-0.500
36.047,-166.343,-1000.967,-2.232,-1.118,-0.568
37.429,-162.064,-997.591,-2.116,-1.081,-0.341
38.454,-164.568,-991.494,-1.640,-0.974,-0.158
37.891,-166.052,-991.398,-0.969,-1.007,-0.118
39.870,-161.718,-990.963,-0.214,-0.919,0.002
37.840,-160.348,-986.475,0.340,-0.823,0.197
34.710,-164.662,-985.353,0.599,-0.755,0.283
33.000,-164.000,-991.000,1.050,-0.700,0.280
31.021,-159.132,-994.100,1.575,-0.715,0.340
32.309,-161.181,-992.988,1.546,-0.506,0.397
34.582,-161.806,-992.823,1.354,-0.276,0.501
38.018,-160.783,-989.366,1.295,-0.124,0.605
40.700,-163.123,-983.446,1.092,0.081,0.650
40.833,-166.896,-978.072,0.747,0.233,0.708
38.818,-167.801,-980.557,0.324,0.200,0.701
38.766,-164.078,-988.508,0.210,0.074,0.825
42.474,-167.046,-994.977,0.038,0.074,0.927
43.603,-167.483,-1003.411,-0.442,-0.014,0.832
44.962,-166.301,-1003.958,-0.721,-0.123,0.925
44.069,-175.992,-1002.950,-1.277,-0.171,0.955
43.193,-180.284,-1001.828,-1.511,-0.346,0.797
43.847,-182.860,-997.879,-1.143,-0.603,0.773
42.000,-189.000,-1001.000,-1.050,-0.840,0.770
44.595,-189.996,-996.427,-0.816,-0.847,0.712
44.551,-190.732,-990.047,-0.647,-0.909,0.639
45.278,-190.719,-990.115,-0.433,-1.115,0.639
50.472,-188.560,-986.075,0.233,-1.051,0.557
48.411,-183.887,-983.581,0.532,-0.972,0.356
45.813,-179.049,-985.420,0.465,-0.968,0.362
45.992,-174.568,-985.974,0.171,-0.829,0.261
45.122,-168.400,-985.931,-0.566,-0.769,0.011
42.729,-165.213,-987.504,-1.324,-0.774,-0.056
40.191,-164.886,-990.072,-1.935,-0.790,-0.163
40.204,-164.755,-994.995,-2.532,-0.959,-0.234
39.238,-163.306,-997.210,-2.982,-1.093,-0.191
37.746,-165.053,-998.979,-3.166,-1.128,-0.232
38.083,-168.274,-1001.965,-2.856,-1.106,-0.281
38.000,-169.000,-995.000,-2.170,-0.910,-0.210
37.131,-170.838,-988.255,-1.505,-0.716,-0.085
37.202,-170.425,-987.487,-0.751,-0.650,-0.016
41.103,-169.448,-985.941,0.089,-0.553,0.042
43.489,-167.491,-989.240,0.688,-0.435,0.102
41.039,-163.581,-992.454,0.694,-0.427,0.160
41.199,-161.749,-991.636,0.228,-0.406,0.110
39.774,-162.158,-991.046,-0.241,-0.350,-0.084
38.837,-165.720,-993.681,-0.602,-0.414,-0.204
41.049,-167.832,-996.354,-1.014,-0.434,-0.315
39.503,-169.395,-991.951,-1.413,-0.364,-0.456
39.020,-174.052,-988.553,-1.379,-0.363,-0.529
38.699,-176.039,-991.575,-0.801,-0.509,-0.576
39.543,-170.863,-994.862,-0.093,-0.790,-0.539
39.696,-165.547,-998.646,0.043,-1.001,-0.486
37.000,-165.000,-1001.000,-0.280,-1.050,-0.490
37.025,-164.944,-997.769,-0.466,-0.994,-0.490
36.083,-165.800,-993.550,-0.620,-0.916,-0.490
37.390,-165.863,-992.434,-0.504,-0.918,-0.489
40.617,-166.843,-989.817,-0.202,-0.860,-0.492
42.650,-168.015,-985.716,-0.134,-0.725,-0.487
42.883,-166.903,-987.844,-0.019,-0.704,-0.494
44.297,-169.236,-990.053,0.389,-0.696,-0.486
47.973,-169.268,-991.725,0.823,-0.634,-0.422
44.915,-165.425,-994.342,0.775,-0.579,-0.467
43.433,-165.358,-990.263,0.440,-0.468,-0.517
43.960,-166.630,-989.338,0.280,-0.367,-0.433
42.573,-167.346,-993.424,0.309,-0.348,-0.444
42.895,-168.110,-991.807,0.344,-0.350,-0.498
39.283,-168.053,-988.840,0.175,-0.351,-0.489
37.000,-170.000,-991.000,0.070,-0.350,-0.490
37.143,-171.193,-994.007,0.305,-0.297,-0.433
36.009,-169.759,-991.276,0.462,-0.170,-0.364
37.238,-172.260,-989.402,0.213,-0.146,-0.311
41.724,-174.707,-995.920,-0.028,-0.302,-0.261
46.492,-173.439,-998.524,-0.112,-0.325,-0.306
46.532,-174.574,-993.952,-0.458,-0.183,-0.359
43.860,-177.118,-993.063,-0.856,-0.220,-0.429
43.917,-176.256,-992.228,-0.728,-0.345,-0.553
43.674,-171.930,-989.891,-0.426,-0.354,-0.574
39.986,-169.242,-991.338,-0.612,-0.349,-0.505
39.029,-168.309,-991.725,-1.005,-0.347,-0.490
40.501,-165.524,-992.551,-1.368,-0.367,-0.471
39.541,-163.741,-994.089,-1.809,-0.452,-0.406
39.045,-164.094,-992.751,-2.051,-0.583,-0.426
39.000,-164.000,-992.000,-2.170,-0.770,-0.420
37.175,-162.281,-994.843,-2.249,-1.067,-0.419
38.473,-161.077,-1004.552,-2.094,-1.364,-0.346
43.337,-161.186,-1006.802,-1.951,-1.331,-0.151
42.857,-164.094,-996.981,-1.980,-0.986,-0.185
40.528,-170.611,-989.502,-1.727,-0.667,-0.187
41.079,-175.907,-985.251,-1.001,-0.552,-0.144
39.873,-175.643,-985.081,-0.141,-0.559,-0.214
39.030,-166.756,-984.205,0.721,-0.436,-0.213
38.193,-160.556,-983.853,0.915,-0.276,-0.155
38.710,-156.318,-990.420,0.536,-0.412,-0.125
42.637,-148.476,-995.296,0.185,-0.530,-0.158
46.930,-149.317,-997.728,-0.669,-0.471,-0.123
49.131,-151.730,-997.705,-1.564,-0.634,-0.148
46.557,-159.704,-998.217,-2.081,-0.875,-0.047
47.000,-165.000,-998.000,-1.890,-1.120,-0.070
48.322,-161.474,-997.555,-1.078,-1.205,-0.113
45.047,-170.817,-999.384,-0.595,-1.110,0.238
41.041,-176.201,-991.681,0.196,-1.183,0.194
34.573,-173.158,-989.174,1.281,-1.164,0.190
35.790,-169.281,-992.545,2.397,-1.251,0.285
40.510,-166.944,-992.000,3.054,-1.316,0.314
39.990,-166.857,-994.106,2.610,-1.184,0.490
41.829,-165.747,-992.250,2.070,-1.191,0.234
42.873,-172.549,-990.887,1.420,-1.131,0.127
44.261,-175.168,-990.004,0.920,-1.129,0.085
45.096,-176.402,-987.200,0.646,-1.040,-0.106
42.692,-180.687,-987.078,0.103,-1.014,-0.175
40.533,-182.340,-990.620,-0.089,-1.263,-0.322
41.361,-180.121,-998.000,-0.255,-1.327,-0.350
43.000,-173.000,-999.000,-0.700,-1.260,-0.420
39.639,-173.557,-993.772,-1.483,-1.018,-0.484
37.558,-173.923,-989.712,-1.958,-0.935,-0.579
39.849,-170.766,-988.051,-1.576,-1.040,-0.705
41.585,-165.743,-987.261,-1.549,-0.852,-0.666
40.182,-161.026,-987.366,-1.842,-0.780,-0.607
38.921,-163.845,-992.234,-1.871,-0.842,-0.557
38.975,-163.768,-995.045,-1.576,-0.763,-0.638
38.093,-160.197,-994.992,-1.204,-0.703,-0.640
36.445,-159.588,-995.010,-1.101,-0.645,-0.505
35.838,-161.254,-995.320,-0.728,-0.617,-0.488
39.403,-159.169,-995.738,-0.422,-0.629,-0.466
38.904,-158.394,-991.131,-0.435,-0.459,-0.368
36.845,-162.262,-987.418,-0.393,-0.352,-0.246
38.221,-165.353,-989.689,-0.051,-0.518,-0.213
40.000,-165.000,-996.000,0.700,-0.560,-0.210
42.899,-161.171,-1000.039,0.941,-0.435,-0.087
41.536,-163.497,-997.776,0.682,-0.399,-0.053
41.340,-166.896,-996.110,0.577,-0.525,-0.088
41.897,-166.769,-994.721,0.554,-0.753,-0.050
40.711,-167.476,-991.920,0.539,-0.854,-0.098
41.048,-171.134,-992.305,0.259,-0.838,-0.148
41.047,-175.143,-992.924,-0.087,-0.838,-0.218
42.013,-175.030,-990.220,-0.143,-0.773,-0.280
40.352,-175.147,-990.051,-0.088,-0.862,-0.272
40.869,-173.149,-994.692,0.019,-1.007,-0.328
42.791,-170.453,-995.797,0.113,-0.863,-0.381
40.945,-167.208,-993.798,-0.033,-0.726,-0.446
39.824,-164.685,-990.911,-0.411,-0.694,-0.386
40.193,-164.946,-988.978,-0.826,-0.701,-0.363
42.000,-164.000,-990.000,-1.050,-0.630,-0.490
41.254,-166.557,-989.925,-1.168,-0.499,-0.490
40.763,-166.894,-990.990,-1.241,-0.452,-0.542
40.445,-164.027,-989.092,-0.903,-0.341,-0.538
37.520,-161.300,-988.263,-0.323,-0.443,-0.445
39.392,-157.922,-994.637,0.020,-0.587,-0.402
42.255,-156.663,-999.752,0.060,-0.553,-0.336
40.822,-155.017,-1000.945,-0.088,-0.559,-0.273
39.070,-160.332,-997.416,-0.397,-0.494,-0.147
38.858,-166.636,-993.248,-0.484,-0.531,-0.134
39.697,-167.320,-993.373,-0.054,-0.656,-0.105
40.154,-169.092,-994.330,0.388,-0.777,-0.054
39.702,-168.278,-995.307,0.692,-0.865,-0.048
38.551,-168.185,-995.916,0.877,-0.813,0.114
36.684,-167.832,-993.304,0.909,-0.670,0.046
34.000,-168.000,-987.000,0.840,-0.420,-0.000
30.341,-168.329,-983.000,0.711,-0.279,0.014
30.794,-166.084,-985.433,0.662,-0.332,-0.032
34.730,-166.383,-990.894,0.465,-0.378,0.079
37.456,-164.759,-996.975,-0.007,-0.525,0.019
41.759,-164.022,-1001.139,-0.705,-0.799,0.003
44.314,-163.881,-1003.137,-1.414,-0.928,-0.108
46.209,-165.235,-1000.652,-1.996,-1.065,-0.131
47.992,-167.876,-997.072,-2.121,-1.249,-0.066
48.424,-170.774,-997.299,-1.664,-1.416,-0.048
50.771,-174.582,-993.104,-1.105,-1.634,0.123
45.805,-172.772,-989.873,-0.380,-1.762,-0.102
41.113,-178.239,-996.582,0.096,-2.233,-0.077
45.589,-172.670,-999.700,0.503,-2.647,-0.284
45.361,-157.818,-995.429,0.638,-2.488,-0.626
40.000,-161.000,-996.000,-0.490,-2.520,-0.280
39.601,-163.097,-997.472,-1.353,-2.718,-0.376
41.871,-163.223,-991.774,-1.684,-2.699,-0.543
41.781,-160.662,-988.395,-2.475,-2.543,-0.649
42.470,-162.884,-988.486,-3.008,-2.326,-0.675
40.840,-171.224,-983.792,-2.876,-2.078,-0.680
37.350,-167.375,-983.749,-2.094,-1.942,-0.957
35.960,-161.628,-988.238,-1.282,-1.799,-0.899
36.839,-156.340,-989.026,-0.802,-1.370,-0.841
37.641,-154.849,-988.394,-0.424,-0.874,-0.783
33.354,-153.216,-985.630,-0.087,-0.488,-0.806
31.598,-148.111,-985.655,0.305,-0.431,-0.829
31.999,-148.804,-992.370,0.452,-0.500,-0.746
32.335,-148.507,-998.084,0.521,-0.374,-0.771
32.803,-148.300,-997.600,0.552,-0.263,-0.686
30.000,-153.000,-995.000,0.560,-0.140,-0.630
31.385,-157.666,-995.781,1.072,-0.188,-0.452
34.694,-158.606,-995.177,1.873,-0.245,-0.345
34.289,-161.227,-991.196,2.494,-0.130,-0.332
31.383,-163.762,-991.939,2.832,-0.209,-0.211
31.965,-162.446,-994.543,3.423,-0.295,-0.091
35.615,-163.388,-994.984,3.880,-0.269,0.012
35.996,-163.996,-994.964,3.532,-0.205,0.001
37.742,-165.672,-993.219,3.170,-0.206,0.128
40.715,-170.915,-990.410,2.791,-0.221,0.167
40.547,-174.297,-989.851,2.243,-0.215,0.068
40.118,-175.986,-993.216,1.951,-0.429,0.091
44.138,-177.788,-994.646,1.669,-0.440,0.017
43.878,-179.560,-990.573,1.291,-0.231,-0.098
38.404,-181.136,-990.480,1.112,-0.314,-0.146
39.000,-180.000,-994.000,1.120,-0.560,-0.210
41.763,-176.554,-993.963,0.908,-0.630,-0.334
42.295,-172.982,-995.921,0.316,-0.705,-0.370
41.079,-170.752,-998.408,-0.536,-0.897,-0.296
41.793,-171.701,-999.242,-1.224,-0.882,-0.296
43.304,-171.659,-999.733,-1.462,-0.972,-0.388
42.904,-170.941,-997.203,-1.791,-1.039,-0.412
43.001,-171.008,-994.877,-2.347,-0.984,-0.347
42.126,-171.861,-992.297,-2.645,-1.113,-0.410
40.358,-173.137,-989.152,-2.963,-1.119,-0.539
39.244,-171.942,-989.125,-3.432,-1.176,-0.613
37.949,-173.156,-987.417,-3.429,-1.126,-0.636
34.156,-173.450,-987.658,-3.189,-1.047,-0.639
33.135,-169.803,-990.308,-3.032,-1.125,-0.734
32.746,-166.448,-988.891,-2.940,-0.950,-0.765
33.000,-162.000,-994.000,-3.010,-0.980,-0.700
40.012,-159.909,-1001.635,-2.846,-1.126,-0.638
42.689,-160.505,-1000.263,-2.615,-1.009,-0.621
39.664,-157.354,-996.259,-2.538,-0.997,-0.618
36.133,-156.458,-993.399,-2.282,-1.116,-0.470
35.234,-159.810,-993.120,-1.847,-1.241,-0.428
37.411,-155.576,-993.882,-1.384,-1.336,-0.390
36.839,-155.459,-991.826,-1.343,-1.169,-0.200
34.194,-162.693,-990.956,-1.360,-0.982,-0.204
32.860,-162.650,-992.396,-0.587,-1.041,-0.224
33.868,-159.923,-995.078,0.292,-1.013,-0.159
33.788,-158.126,-995.741,0.697,-0.944,-0.105
34.567,-160.421,-994.132,0.944,-0.870,-0.055
34.922,-160.266,-993.801,1.083,-0.856,-0.081
36.570,-159.336,-991.518,1.211,-0.904,-0.061
40.000,-164.000,-989.000,1.260,-0.700,-0.000
37.577,-166.607,-986.511,1.185,-0.557,0.006
34.692,-169.583,-984.342,1.337,-0.651,-0.052
32.642,-168.737,-989.335,1.422,-0.804,-0.082
35.454,-164.781,-998.710,1.159,-0.827,-0.060
40.040,-160.262,-1001.860,0.695,-0.740,-0.079
38.523,-161.108,-997.960,-0.144,-0.684,-0.062
39.172,-167.299,-997.156,-0.794,-0.632,-0.075
40.922,-167.970,-999.030,-0.782,-0.820,-0.140
41.884,-170.309,-996.137,-0.694,-0.936,-0.086
41.101,-171.829,-991.107,-0.752,-0.816,-0.088
38.402,-172.788,-989.639,-0.741,-1.003,-0.234
38.306,-171.541,-994.759,-0.493,-1.314,-0.285
39.099,-166.993,-1000.148,-0.357,-1.404,-0.289
37.561,-167.053,-1000.727,-0.708,-1.306,-0.362
34.000,-165.000,-995.000,-1.260,-1.120,-0.420
32.091,-164.617,-987.582,-1.655,-0.937,-0.428
31.891,-166.902,-986.049,-1.621,-0.790,-0.322
32.830,-165.765,-985.841,-1.327,-0.768,-0.244
35.847,-161.113,-988.969,-1.041,-0.747,-0.340
38.876,-156.743,-990.822,-0.873,-0.674,-0.310
38.780,-155.845,-990.101,-0.934,-0.611,-0.199
39.143,-153.790,-993.265,-0.980,-0.479,-0.292
40.970,-152.032,-994.124,-0.978,-0.358,-0.355
40.198,-152.028,-992.207,-0.990,-0.283,-0.233
40.010,-151.779,-992.255,-0.902,-0.324,-0.199
39.213,-153.210,-993.207,-0.693,-0.335,-0.192
37.006,-156.250,-992.861,-0.238,-0.263,-0.098
35.757,-157.083,-998.157,0.550,-0.398,-0.059
36.154,-158.219,-1000.461,1.364,-0.307,0.009
36.000,-158.000,-992.000,1.820,-0.000,0.000
33.229,-158.486,-987.239,2.287,0.121,0.103
34.044,-160.308,-985.986,2.935,0.261,0.281
36.641,-154.140,-987.657,3.658,0.237,0.294
36.832,-155.563,-991.665,3.932,0.279,0.649
35.077,-160.939,-991.035,2.957,0.630,0.694
32.588,-158.582,-988.463,2.146,0.771,0.382
33.166,-162.510,-989.280,1.933,0.694,0.500
35.821,-166.897,-993.785,1.371,0.634,0.372
37.069,-167.645,-994.075,1.034,0.535,0.248
36.274,-170.224,-996.202,0.681,0.269,0.378
36.137,-175.129,-1003.106,0.270,-0.034,0.225
38.179,-177.064,-1007.400,0.201,-0.217,0.122
40.434,-176.023,-1008.970,0.086,-0.414,0.145
39.844,-179.707,-1005.111,-0.090,-0.580,0.137
41.000,-182.000,-1000.000,-0.070,-0.700,0.070
43.078,-181.315,-997.437,0.221,-0.879,-0.055
41.928,-177.518,-993.022,0.572,-1.042,-0.124
42.988,-174.433,-986.139,0.581,-0.956,-0.183
41.679,-175.211,-982.338,0.207,-0.717,-0.238
39.671,-170.766,-981.715,0.042,-0.580,-0.321
39.941,-167.686,-982.208,-0.145,-0.362,-0.445
38.970,-164.554,-984.190,-0.596,-0.206,-0.490
39.899,-158.325,-987.599,-1.079,-0.207,-0.490
40.761,-156.219,-994.941,-1.587,-0.306,-0.492
42.403,-155.130,-1001.983,-1.975,-0.477,-0.485
42.863,-155.322,-1002.052,-2.526,-0.466,-0.500
41.492,-156.917,-1000.353,-2.736,-0.579,-0.462
42.650,-161.890,-1001.180,-2.381,-0.846,-0.413
45.375,-166.330,-999.499,-1.782,-0.993,-0.418
45.000,-167.000,-996.000,-1.120,-0.980,-0.350
40.436,-168.802,-993.433,-0.709,-0.965,-0.285
40.388,-168.650,-990.087,-0.024,-1.062,-0.237
40.979,-165.475,-986.716,0.580,-0.950,-0.153
39.282,-160.116,-985.575,0.761,-0.938,-0.143
40.753,-159.524,-988.249,0.561,-0.957,-0.132
40.664,-159.337,-991.341,0.017,-0.818,-0.153
38.899,-155.973,-990.946,-0.462,-0.844,-0.212
38.059,-160.511,-991.813,-1.141,-0.841,-0.211
37.177,-164.576,-994.465,-1.440,-0.887,-0.209
36.827,-166.952,-996.211,-1.135,-0.964,-0.209
37.241,-168.084,-997.878,-0.715,-1.017,-0.213
36.338,-166.592,-999.170,-0.357,-1.048,-0.205
34.347,-168.640,-996.465,-0.254,-0.940,-0.218
31.471,-167.658,-990.158,-0.024,-0.822,-0.201
29.000,-167.000,-989.000,0.210,-0.700,-0.140
30.638,-165.577,-991.888,0.449,-0.585,-0.198
31.451,-162.843,-989.572,0.522,-0.356,-0.223
30.283,-163.646,-985.720,0.089,-0.216,-0.195
33.286,-161.248,-990.524,-0.143,-0.417,-0.242
39.232,-159.798,-998.448,-0.319,-0.613,-0.303
42.227,-158.454,-1001.075,-0.834,-0.617,-0.360
40.828,-158.251,-999.858,-1.364,-0.560,-0.346
39.898,-164.501,-998.105,-1.551,-0.683,-0.283
43.078,-168.087,-996.617,-1.134,-0.841,-0.277
45.094,-166.527,-992.143,-0.452,-0.746,-0.253
40.931,-166.457,-987.359,0.138,-0.705,-0.122
38.842,-168.624,-989.697,0.676,-0.799,-0.060
40.161,-163.595,-991.693,1.317,-0.611,-0.063
37.371,-157.582,-987.383,1.601,-0.411,0.011
35.000,-158.000,-988.000,1.190,-0.490,0.000
36.666,-158.042,-991.698,0.759,-0.501,-0.066
37.997,-157.973,-993.275,0.271,-0.434,-0.071
37.834,-158.876,-995.403,-0.376,-0.385,-0.071
38.662,-164.602,-995.908,-0.875,-0.308,-0.068
41.003,-168.890,-997.856,-1.067,-0.278,-0.064
43.503,-170.730,-998.675,-0.847,-0.271,0.033
45.104,-175.281,-995.780,-0.606,-0.124,0.142
46.017,-176.095,-992.409,0.064,0.061,0.077
43.911,-173.920,-985.458,0.978,0.129,0.054
40.865,-168.864,-982.367,1.455,0.161,0.126
42.525,-165.099,-987.728,1.818,0.077,0.145
44.742,-162.693,-992.086,1.626,0.148,0.123
44.785,-160.818,-991.696,0.715,0.424,0.044
42.571,-162.268,-993.524,-0.542,0.491,-0.005
41.000,-164.000,-995.000,-1.400,0.560,-0.070
40.328,-166.792,-992.137,-1.697,0.579,-0.140
38.601,-166.322,-993.967,-2.057,0.434,-0.126
41.302,-166.524,-994.836,-2.021,0.483,-0.223
40.394,-166.033,-989.891,-1.998,0.616,-0.303
35.707,-163.663,-990.416,-2.109,0.441,-0.266
38.022,-166.554,-1000.413,-1.895,-0.041,-0.293
41.055,-162.375,-1004.940,-1.584,-0.284,-0.354
39.250,-157.009,-1002.155,-1.333,-0.336,-0.354
36.941,-158.843,-1001.201,-1.451,-0.631,-0.284
38.794,-157.694,-999.959,-1.325,-0.823,-0.326
41.377,-156.992,-999.509,-1.074,-0.872,-0.313
42.239,-159.058,-995.210,-1.200,-0.915,-0.134
41.586,-161.890,-991.188,-1.250,-0.784,-0.182
39.720,-162.827,-988.289,-0.977,-0.606,-0.284
38.000,-160.000,-984.000,-0.280,-0.490,-0.210
37.664,-158.286,-986.438,0.346,-0.486,-0.083
41.093,-154.646,-988.503,0.766,-0.493,-0.059
42.369,-150.704,-991.821,0.778,-0.518,-0.052
42.134,-152.158,-997.205,0.241,-0.574,0.042
43.087,-153.087,-995.083,-0.227,-0.407,-0.053
40.075,-154.583,-990.171,-0.536,-0.387,-0.043
39.214,-157.134,-992.511,-0.306,-0.728,0.074
44.583,-157.970,-999.649,0.318,-0.971,0.131
47.224,-158.584,-1001.151,0.404,-0.997,0.265
45.601,-162.304,-999.572,0.171,-0.885,0.278
43.759,-168.768,-993.295,0.215,-0.816,0.297
40.608,-169.583,-988.818,0.687,-0.860,0.236
42.283,-169.113,-990.328,1.262,-0.816,0.233
46.277,-168.732,-990.028,1.295,-0.770,0.269
45.000,-167.000,-992.000,0.910,-0.770,0.140
43.271,-167.907,-990.526,0.430,-0.654,0.200
40.811,-167.416,-989.217,-0.040,-0.553,0.136
39.049,-165.933,-991.489,-0.303,-0.632,-0.046
39.009,-163.898,-992.393,-0.610,-0.776,-0.069
38.966,-164.792,-996.731,-1.141,-0.860,-0.082
37.280,-165.876,-997.378,-1.840,-0.823,-0.162
33.867,-165.035,-995.053,-2.249,-0.769,-0.209
35.700,-166.043,-998.765,-2.118,-0.773,-0.205
38.077,-163.588,-996.779,-1.929,-0.663,-0.281
37.560,-162.723,-989.567,-1.723,-0.593,-0.191
39.593,-162.360,-990.087,-1.365,-0.722,-0.119
41.679,-159.836,-992.784,-0.717,-0.763,-0.148
42.056,-156.681,-994.655,-0.171,-0.666,-0.142
41.893,-151.385,-994.716,-0.150,-0.535,-0.129
40.000,-152.000,-991.000,-0.070,-0.350,0.000
38.050,-154.913,-988.161,0.117,-0.279,0.005
39.152,-154.294,-989.357,0.319,-0.253,0.039
42.008,-153.744,-993.973,0.662,-0.074,0.094
43.425,-154.729,-992.181,0.822,0.044,0.052
42.524,-156.740,-990.836,0.866,0.096,0.082
41.990,-158.399,-989.518,1.025,0.132,0.069
41.996,-160.080,-991.513,1.200,-0.096,0.148
42.824,-159.189,-998.590,1.259,-0.404,0.147
45.598,-156.507,-1002.439,1.225,-0.540,0.112
45.313,-155.606,-1000.479,0.894,-0.616,0.262
41.819,-161.948,-993.359,0.139,-0.630,0.221
41.398,-169.226,-999.282,-0.371,-0.649,0.096
43.604,-167.019,-995.456,-0.415,-0.716,0.059
43.950,-168.601,-993.423,-0.416,-0.689,-0.013
44.000,-169.000,-990.000,-0.210,-0.630,-0.070
43.292,-166.083,-989.208,0.168,-0.627,-0.019
42.336,-165.035,-996.768,0.333,-0.669,0.112
45.371,-162.336,-991.894,0.366,-0.791,0.157
44.918,-164.026,-1000.493,0.294,-0.857,0.106
42.427,-161.839,-991.573,0.165,-0.838,0.061
41.553,-164.154,-1000.730,0.027,-0.950,0.070
38.943,-165.873,-996.730,-0.229,-1.131,-0.010
41.739,-165.753,-996.691,-0.407,-1.192,-0.073
41.100,-168.089,-995.774,-0.722,-1.129,-0.001
38.173,-169.088,-980.005,-1.192,-1.153,-0.081
40.476,-171.607,-1005.241,-1.209,-1.199,-0.201
38.811,-162.322,-979.971,-1.101,-1.017,-0.194
37.942,-163.693,-1000.883,-1.246,-0.897,-0.110
36.851,-161.971,-986.876,-1.324,-0.909,-0.075
39.000,-161.000,-994.000,-1.050,-0.840,-0.140
39.555,-159.696,-1003.298,-0.600,-0.716,-0.086
37.321,-153.979,-978.362,-0.569,-0.643,-0.009
39.153,-162.498,-1022.355,-0.739,-0.585,0.007
36.750,-154.310,-952.959,-0.787,-0.588,-0.027
41.177,-167.529,-1034.464,-0.708,-0.756,-0.087
38.466,-153.611,-954.182,-0.439,-0.655,-0.051
40.849,-163.455,-1013.022,-0.507,-0.642,0.081
41.707,-167.792,-1036.102,-0.515,-0.657,0.144
6.729,-27.241,-167.949,-0.073,-0.105,0.026
