acc_x[mg],acc_y[mg],acc_z[mg],gyro_x[dps],gyro_y[dps],gyro_z[dps]
-807.000,100.000,-621.000,8.540,3.640,1.470
-842.390,95.459,-653.764,7.770,3.904,1.542
-767.068,84.688,-599.466,6.158,3.701,1.296
-837.128,103.418,-660.418,6.530,3.838,1.342
-757.202,103.304,-605.633,3.942,3.424,1.203
-800.024,112.969,-642.753,2.074,3.770,1.285
-756.586,105.665,-616.741,-0.175,3.567,1.032
-765.196,106.422,-631.069,-1.363,3.666,0.759
-759.468,102.934,-635.079,-1.489,3.848,0.698
-746.569,93.738,-630.108,-0.525,4.029,0.846
-760.642,88.821,-639.766,0.997,4.499,1.084
-735.051,80.948,-618.563,2.486,5.065,1.149
-756.264,84.027,-640.224,4.980,5.527,1.231
-743.033,85.665,-637.190,7.235,5.418,1.262
-754.690,97.685,-648.995,9.214,5.569,1.257
-758.000,112.000,-648.000,9.730,5.600,1.190
-761.752,116.060,-639.885,8.620,5.469,1.124
-772.463,110.330,-644.652,7.383,5.339,1.108
-765.063,95.462,-641.905,7.311,5.073,1.241
-778.090,85.081,-649.364,7.745,5.067,1.604
-774.018,77.453,-642.881,7.994,5.133,1.767
-774.425,76.304,-645.272,8.780,5.186,1.640
-767.189,76.993,-643.525,8.780,5.098,1.457
-767.333,80.375,-643.517,8.052,4.975,1.333
-771.611,88.381,-647.967,6.600,4.919,1.375
-773.275,86.071,-650.472,4.219,4.789,1.466
-783.783,77.975,-658.477,2.187,4.468,1.426
-779.791,71.122,-654.852,0.479,4.172,1.195
-776.250,69.090,-648.155,-0.887,4.249,0.772
-770.981,71.399,-643.524,-0.955,4.240,0.465
-769.000,76.000,-646.000,0.210,3.850,0.490
-772.401,89.284,-652.411,1.184,3.524,0.670
-777.654,107.631,-655.107,1.321,3.417,0.825
-777.229,122.673,-659.352,0.603,3.086,0.788
-764.775,125.970,-663.489,-0.547,2.450,0.585
-758.877,118.475,-659.604,-1.386,2.097,0.467
-755.854,108.787,-653.986,-1.557,2.102,0.506
-750.697,100.480,-651.973,-0.505,1.939,0.563
-748.236,96.148,-655.481,1.507,1.690,0.623
-744.027,96.888,-661.533,3.709,1.663,0.738
-741.895,103.452,-661.451,4.965,1.741,0.874
-745.530,107.643,-660.115,4.877,1.701,0.909
-746.188,102.662,-658.009,4.338,1.535,0.751
-739.255,92.881,-659.958,3.693,1.444,0.589
-732.453,83.683,-660.889,3.970,1.310,0.473
-734.000,76.000,-663.000,4.830,1.330,0.420
-738.553,74.394,-667.905,5.380,1.410,0.485
-738.957,79.696,-667.729,5.690,1.292,0.419
-735.394,82.754,-674.149,5.118,1.167,0.144
-735.865,85.571,-673.450,4.347,0.899,-0.131
-738.607,85.145,-665.205,3.020,0.875,-0.240
-737.316,82.531,-660.911,1.579,0.879,-0.401
-734.991,78.468,-658.160,1.097,0.693,-0.563
-739.412,72.106,-666.295,1.076,0.703,-0.495
-744.939,76.850,-669.763,2.103,0.580,-0.529
-743.223,85.339,-665.609,2.146,0.630,-0.659
-743.311,91.310,-659.946,0.645,0.740,-0.773
-741.256,86.742,-653.518,-0.213,0.659,-0.879
-740.867,73.883,-653.159,-0.411,0.620,-0.927
-748.199,74.922,-654.537,0.319,0.647,-0.980
-754.000,80.000,-663.000,1.680,0.770,-0.840
-756.976,87.226,-668.193,2.673,0.539,-0.702
-755.424,97.621,-666.609,2.440,0.396,-0.741
-755.111,98.847,-667.703,1.694,0.373,-0.903
-752.539,97.241,-661.075,1.540,0.000,-1.213
-747.909,94.514,-654.754,0.689,-0.033,-1.196
-752.495,88.310,-659.727,0.311,-0.149,-0.923
-756.046,80.466,-666.339,1.731,-0.581,-0.760
-755.931,77.844,-666.365,2.524,-0.512,-0.697
-758.234,80.230,-658.906,2.264,-0.296,-0.809
-760.332,75.862,-652.981,2.442,-0.273,-0.899
-757.645,69.445,-654.603,3.036,-0.332,-0.921
-755.697,67.875,-658.867,3.408,-0.486,-0.867
-759.220,71.840,-663.296,3.391,-0.467,-0.735
-760.983,77.441,-666.293,2.869,-0.518,-0.701
-759.000,74.000,-668.000,1.400,-0.770,-0.770
-755.471,66.750,-670.063,0.208,-0.948,-1.009
-753.315,64.409,-666.214,0.013,-1.198,-1.183
-751.933,68.614,-660.005,-0.396,-1.293,-1.183
-749.246,75.199,-657.893,-0.583,-1.238,-1.200
-747.808,77.659,-654.601,-0.638,-1.273,-1.180
-750.877,80.882,-655.977,-0.939,-1.258,-1.199
-753.033,83.084,-661.350,-0.507,-1.340,-1.184
-752.983,86.468,-664.783,-0.073,-1.401,-1.121
-753.075,93.381,-666.280,-0.225,-1.432,-1.131
-753.144,91.624,-663.782,-0.440,-1.660,-1.022
-754.966,85.159,-662.251,-0.448,-1.863,-0.992
-754.316,81.713,-661.212,0.121,-2.057,-1.057
-755.793,79.104,-659.348,0.789,-2.181,-0.810
-755.392,75.413,-656.504,0.999,-2.080,-0.623
-750.000,73.000,-655.000,1.330,-2.030,-0.630
-749.731,71.482,-655.371,1.859,-1.985,-0.509
-751.375,67.864,-650.181,1.621,-1.724,-0.468
-753.401,65.221,-644.065,1.006,-1.346,-0.545
-753.801,58.951,-643.153,1.196,-1.046,-0.544
-756.758,54.507,-648.409,1.885,-0.814,-0.445
-761.523,61.209,-654.036,2.503,-0.478,-0.322
-759.778,70.650,-660.745,2.897,-0.278,-0.202
-758.070,78.414,-669.726,3.270,-0.406,-0.140
-757.639,85.724,-666.147,2.962,-0.498,-0.185
-760.649,87.576,-658.206,1.312,-0.488,-0.338
-761.601,77.675,-656.018,0.518,-0.805,-0.527
-759.189,67.365,-656.159,1.245,-1.170,-0.547
-764.193,68.359,-657.134,1.958,-1.050,-0.451
-769.234,75.069,-656.994,2.892,-0.999,-0.245
-765.000,81.000,-657.000,3.500,-1.190,-0.140
-758.381,84.746,-655.252,2.924,-1.196,-0.206
-758.662,83.592,-654.766,2.331,-1.221,-0.203
-757.610,78.305,-655.332,1.993,-1.359,-0.232
-754.413,76.179,-657.178,1.514,-1.398,-0.138
-753.372,71.609,-659.374,1.734,-1.272,-0.061
-750.038,67.954,-658.753,2.360,-1.177,-0.066
-746.812,71.206,-657.884,2.681,-1.112,-0.076
-745.054,69.409,-655.184,2.989,-0.989,-0.143
-745.634,64.546,-655.870,3.220,-0.868,-0.021
-746.617,64.465,-660.872,3.683,-0.775,-0.061
-748.003,69.647,-661.539,4.145,-0.763,-0.225
-751.280,75.071,-657.947,3.791,-0.603,-0.143
-751.729,75.438,-653.802,2.956,-0.479,0.057
-750.971,69.920,-651.907,2.320,-0.482,0.041
-752.000,65.000,-652.000,2.380,-0.350,-0.210
-756.182,65.836,-653.397,2.711,-0.288,-0.114
-759.931,65.467,-659.071,2.819,-0.180,0.118
-758.977,64.541,-663.725,3.442,-0.114,0.122
-759.854,66.818,-666.637,3.974,-0.184,-0.039
-763.101,76.937,-669.089,3.999,-0.396,-0.301
-765.202,89.045,-663.135,3.761,-0.769,-0.333
-762.558,90.824,-658.935,1.998,-0.840,-0.284
-755.453,84.830,-656.486,0.343,-1.024,-0.472
-753.337,70.427,-650.276,-0.183,-1.217,-0.586
-757.333,60.358,-652.881,-0.233,-1.049,-0.376
-760.027,61.205,-656.522,1.343,-1.151,-0.181
-759.486,65.686,-656.926,2.450,-1.110,-0.112
-760.469,74.620,-655.024,2.335,-0.857,-0.060
-759.317,76.772,-654.392,2.287,-0.937,-0.075
-752.000,76.000,-658.000,1.820,-1.050,-0.070
-748.897,74.889,-656.194,1.147,-0.939,0.045
-749.327,67.205,-658.461,0.769,-0.821,0.157
-748.288,61.278,-660.982,1.183,-0.922,0.015
-750.114,56.440,-658.710,1.043,-0.772,-0.099
-750.561,54.965,-659.121,0.840,-0.483,-0.075
-748.418,54.879,-657.278,1.648,-0.499,-0.261
-747.018,57.485,-654.883,1.726,-0.325,-0.265
-750.523,64.653,-653.995,1.420,-0.074,-0.071
-756.193,65.977,-655.956,1.032,-0.172,-0.277
-759.090,67.306,-660.922,0.616,-0.243,-0.401
-764.565,67.980,-665.578,0.496,-0.168,0.001
-767.087,69.196,-666.440,0.389,-0.296,0.089
-765.754,72.495,-660.815,0.403,-0.456,-0.357
-767.255,69.276,-655.476,-0.012,-0.588,-0.557
-766.000,67.000,-654.000,-0.140,-0.770,-0.350
-760.766,68.627,-653.889,0.315,-0.720,-0.100
-757.704,70.839,-655.316,0.270,-0.669,0.051
-760.229,69.622,-657.269,0.193,-0.800,0.049
-762.151,66.423,-658.151,0.114,-0.830,-0.052
-757.627,63.655,-657.285,-0.262,-0.733,-0.067
-753.418,59.098,-654.050,-0.148,-0.691,-0.070
-754.204,57.990,-650.884,-0.077,-0.542,0.011
-756.899,56.215,-651.797,0.094,-0.356,0.136
-755.855,55.986,-654.474,0.722,-0.308,0.139
-751.804,61.350,-656.666,0.559,-0.126,0.151
-750.816,64.846,-660.255,0.406,-0.079,0.094
-752.739,69.403,-662.123,0.413,-0.156,0.087
-752.553,72.107,-660.547,-0.329,-0.018,0.153
-750.746,69.579,-662.562,-0.700,-0.025,0.135
-749.000,69.000,-664.000,-0.630,-0.280,0.140
-747.865,70.057,-660.492,-1.245,-0.251,0.201
-749.650,67.181,-658.354,-2.166,-0.007,0.188
-748.991,59.067,-657.459,-2.317,-0.098,-0.002
-747.457,54.708,-658.924,-1.953,-0.076,-0.091
-750.079,57.535,-660.221,-1.509,0.116,-0.050
-750.710,63.999,-662.980,-1.355,-0.073,0.016
-750.116,75.914,-667.170,-1.789,-0.366,-0.010
-753.729,81.187,-666.217,-2.093,-0.425,-0.197
-755.034,76.608,-663.544,-2.152,-0.351,-0.325
-756.709,76.558,-660.896,-2.180,-0.428,-0.421
-761.498,75.707,-658.558,-1.816,-0.558,-0.352
-758.664,70.758,-657.667,-1.165,-0.531,-0.256
-757.594,68.729,-658.106,-0.463,-0.489,-0.290
-761.371,69.257,-657.978,0.400,-0.581,-0.276
-761.000,73.000,-659.000,0.630,-0.700,-0.280
-760.880,76.090,-658.516,0.092,-0.818,-0.337
-761.220,72.752,-655.243,-0.530,-0.917,-0.411
-759.483,67.576,-655.172,-1.366,-0.859,-0.418
-755.678,64.478,-654.343,-1.857,-0.844,-0.428
-753.299,62.524,-658.158,-1.689,-0.829,-0.407
-752.986,65.120,-660.397,-1.140,-0.851,-0.440
-754.126,71.462,-653.528,-1.326,-0.749,-0.486
-753.341,74.153,-651.893,-2.396,-0.433,-0.359
-747.787,68.083,-654.015,-2.393,-0.460,-0.291
-747.746,61.206,-660.185,-1.716,-0.482,-0.199
-754.252,62.634,-664.903,-1.004,-0.340,-0.052
-759.498,64.517,-665.415,-0.271,-0.414,0.011
-756.053,67.409,-670.877,-0.016,-0.634,-0.143
-751.875,72.597,-672.722,0.146,-0.877,-0.377
-754.000,74.000,-668.000,-0.350,-1.120,-0.490
-756.493,73.465,-662.656,-1.347,-1.367,-0.618
-759.221,67.565,-659.022,-1.898,-1.557,-0.634
-756.256,60.795,-655.358,-1.916,-1.692,-0.663
-755.353,60.671,-652.730,-1.458,-1.592,-0.717
-759.353,65.346,-651.332,-0.764,-1.415,-0.682
-761.061,74.127,-651.345,-0.098,-1.298,-0.605
-758.681,80.218,-655.350,-0.260,-1.188,-0.484
-756.772,80.142,-657.967,-1.124,-1.255,-0.485
-762.198,77.752,-657.336,-1.876,-1.216,-0.548
-760.742,73.430,-655.520,-2.465,-1.167,-0.579
-753.581,66.792,-654.004,-2.627,-1.198,-0.487
-748.853,62.878,-651.277,-2.338,-0.996,-0.386
-746.948,63.266,-648.593,-1.638,-0.668,-0.321
-749.408,64.239,-650.332,-0.887,-0.382,-0.194
-751.000,67.000,-650.000,-0.490,-0.140,-0.140
-752.799,67.341,-649.623,-0.244,0.225,-0.075
-753.449,65.698,-652.468,-0.007,0.466,-0.116
-757.092,67.481,-653.688,0.173,0.554,-0.125
-761.782,67.812,-657.130,0.039,0.707,-0.031
-761.579,68.897,-661.332,0.058,0.643,-0.113
-762.224,72.947,-664.650,0.215,0.446,-0.133
-763.073,76.201,-664.807,-0.111,0.268,-0.145
-764.016,77.131,-661.199,-0.666,0.149,-0.209
-761.811,73.194,-660.721,-0.825,-0.063,-0.206
-759.160,69.303,-661.234,-0.450,-0.337,-0.226
-758.293,69.608,-659.850,-0.039,-0.292,-0.141
-758.250,72.630,-658.351,0.217,-0.344,-0.028
-760.211,75.495,-659.765,-0.089,-0.540,0.005
-756.060,73.387,-662.152,-0.632,-0.645,-0.005
-753.000,70.000,-660.000,-1.190,-0.700,-0.070
-754.121,69.950,-656.194,-1.956,-0.632,-0.192
-751.776,68.918,-657.691,-2.026,-0.721,-0.240
-750.295,66.445,-660.888,-1.477,-0.810,-0.087
-752.348,69.482,-660.171,-0.940,-0.692,0.081
-756.283,74.321,-660.028,-1.051,-0.627,0.158
-756.556,73.376,-659.781,-1.704,-0.729,0.125
-755.020,69.636,-658.922,-2.434,-0.766,0.066
-756.867,63.470,-656.287,-2.866,-0.702,-0.055
-757.196,61.117,-655.086,-2.722,-0.699,-0.252
-756.198,66.792,-660.280,-2.248,-0.729,-0.325
-755.471,72.036,-663.410,-0.935,-0.838,-0.402
-756.822,81.058,-665.704,-0.202,-0.799,-0.397
-757.643,91.159,-660.012,-0.566,-0.788,-0.343
-753.137,88.909,-652.622,-1.166,-0.839,-0.350
-748.000,81.000,-654.000,-1.750,-0.840,-0.350
-743.468,75.717,-651.275,-1.126,-0.870,-0.310
-743.005,71.582,-654.366,-0.400,-0.516,-0.018
-746.469,71.643,-661.612,0.596,-0.418,0.152
-749.085,74.293,-663.124,2.194,-0.450,0.131
-749.495,75.326,-662.570,2.290,-0.068,0.124
-744.424,75.858,-661.853,1.852,-0.130,-0.045
-739.904,71.520,-660.865,1.964,-0.277,-0.142
-741.763,67.130,-659.063,1.712,-0.147,-0.198
-743.799,65.079,-659.526,1.538,-0.135,-0.393
-745.216,60.204,-663.097,2.060,-0.140,-0.339
-750.691,63.268,-670.446,2.668,-0.161,-0.030
-755.355,71.674,-670.317,3.080,-0.271,-0.298
-756.280,77.652,-664.317,2.576,-0.357,-0.919
-759.581,79.770,-660.388,1.392,-0.265,-0.856
-760.000,74.000,-657.000,1.120,-0.350,-0.560
-757.809,70.812,-656.285,1.313,-0.559,-0.725
-761.050,73.245,-652.912,1.492,-0.415,-0.917
-761.912,74.690,-651.884,1.908,-0.284,-0.807
-759.451,71.856,-653.865,2.065,-0.259,-0.546
-756.845,68.009,-655.737,2.205,-0.192,-0.250
-756.229,69.787,-656.851,2.694,-0.214,-0.243
-758.018,73.237,-654.899,2.622,-0.129,-0.429
-754.455,75.056,-655.801,1.998,-0.065,-0.426
-750.154,71.284,-659.627,1.749,-0.228,-0.316
-750.960,68.217,-665.613,1.807,-0.437,-0.136
-753.415,69.876,-666.661,1.720,-0.534,-0.006
-755.833,64.806,-666.017,1.211,-0.613,-0.032
-755.265,60.254,-666.966,0.963,-0.849,-0.202
-751.480,58.678,-665.938,0.972,-0.989,-0.370
-752.000,59.000,-666.000,0.980,-1.050,-0.490
-757.487,66.880,-661.811,1.143,-1.126,-0.617
-756.691,69.841,-658.297,0.617,-1.015,-0.678
-751.568,66.491,-657.315,-0.153,-0.966,-0.756
-751.131,63.103,-656.482,-0.429,-0.956,-0.748
-752.607,60.366,-655.262,-0.045,-0.738,-0.665
-757.343,63.089,-655.484,0.712,-0.527,-0.520
-761.035,68.386,-659.216,0.981,-0.491,-0.421
-758.317,72.743,-659.123,0.797,-0.492,-0.487
-754.673,74.248,-658.714,0.372,-0.484,-0.444
-752.149,72.516,-659.702,0.046,-0.502,-0.335
-752.080,71.631,-660.056,-0.304,-0.469,-0.184
-750.721,69.373,-659.155,-0.573,-0.535,-0.156
-749.004,62.819,-657.925,-0.669,-0.532,-0.219
-752.553,58.801,-660.510,-0.552,-0.413,-0.212
-752.000,60.000,-662.000,0.490,-0.490,-0.210
-751.370,64.751,-661.068,0.903,-0.498,-0.075
-755.789,73.474,-661.501,0.416,-0.519,-0.244
-753.854,73.508,-662.878,0.265,-0.631,-0.447
-753.947,66.307,-661.839,-0.324,-0.612,-0.171
-757.994,62.482,-658.692,-0.967,-0.652,-0.102
-756.136,55.190,-656.581,-1.207,-0.601,-0.332
-753.999,53.243,-656.075,-0.692,-0.485,-0.417
-755.796,57.709,-658.745,0.486,-0.429,-0.232
-758.374,63.399,-660.905,1.033,-0.293,0.029
-761.436,76.797,-660.776,0.753,-0.373,0.144
-764.114,83.280,-661.646,-0.993,-0.717,0.047
-759.904,80.039,-664.003,-3.218,-1.051,-0.341
-753.683,73.374,-664.833,-3.886,-1.217,-0.583
-755.780,63.809,-662.558,-3.468,-1.174,-0.372
-759.000,62.000,-660.000,-2.520,-1.050,-0.140
-752.504,64.008,-658.971,-1.361,-0.980,-0.130
-746.137,63.066,-659.206,-0.362,-0.992,-0.196
-752.877,64.607,-657.963,0.126,-0.900,-0.219
-758.056,70.213,-658.776,0.038,-0.814,-0.198
-752.188,73.642,-659.802,-0.644,-0.857,-0.236
-750.196,70.770,-659.191,-1.856,-0.829,-0.278
-750.894,63.454,-663.318,-1.988,-0.844,-0.206
-748.138,60.791,-662.425,-1.357,-0.847,-0.268
-748.609,65.298,-657.448,-1.182,-0.722,-0.361
-748.259,65.676,-656.289,-0.744,-0.657,-0.258
-745.144,65.484,-655.937,-0.394,-0.554,-0.138
-747.995,70.771,-660.242,-0.121,-0.470,-0.019
-753.577,74.739,-661.685,0.027,-0.498,-0.014
-758.786,74.868,-661.215,-0.695,-0.490,-0.082
-761.000,73.000,-663.000,-1.260,-0.560,-0.210
-757.468,68.684,-660.593,-1.448,-0.626,-0.291
-756.603,66.485,-655.950,-1.485,-0.643,-0.167
-756.921,68.323,-649.748,-1.575,-0.499,-0.134
-753.848,66.423,-650.294,-1.838,-0.217,-0.137
-751.548,64.880,-653.875,-1.209,-0.241,-0.140
-755.122,66.605,-655.333,-0.749,-0.050,-0.031
-756.825,71.459,-654.701,-0.758,0.373,0.070
-752.292,74.184,-649.228,-0.618,0.548,0.063
-750.898,70.268,-651.497,-0.917,0.737,0.199
-751.173,72.730,-656.278,-0.380,0.815,0.155
-754.731,78.074,-658.474,0.310,0.926,0.224
-758.924,84.347,-665.752,0.066,0.935,0.417
-753.492,89.904,-672.441,0.104,0.570,0.412
-749.054,88.695,-672.567,-0.456,0.243,0.423
-755.000,86.000,-668.000,-1.960,0.070,0.420
-757.716,72.948,-665.970,-2.790,-0.158,0.374
-750.536,54.898,-666.199,-2.390,-0.501,0.138
-750.179,46.122,-664.512,-1.283,-0.549,0.034
-758.027,49.326,-660.602,0.213,-0.461,0.092
-759.249,62.575,-658.809,1.521,-0.505,0.067
-754.896,74.017,-660.087,1.559,-0.485,0.169
-753.115,78.014,-657.738,0.454,-0.488,0.209
-756.795,73.616,-655.973,-0.953,-0.362,0.208
-754.692,64.898,-657.399,-1.828,-0.325,0.217
-748.252,58.042,-660.534,-1.729,-0.392,0.197
-749.117,58.301,-663.025,-0.885,-0.228,0.247
-749.511,65.626,-662.554,-0.031,-0.098,0.307
-749.130,71.590,-663.355,0.011,-0.071,0.364
-750.016,76.724,-664.061,-0.255,-0.158,0.338
-749.000,79.000,-665.000,-0.770,-0.210,0.210
-748.125,79.803,-664.430,-1.353,-0.201,0.080
-747.198,79.308,-661.914,-1.591,-0.274,0.068
-746.394,74.529,-663.675,-1.784,-0.266,0.014
-745.606,71.712,-665.053,-1.179,-0.339,-0.153
-751.068,69.344,-662.976,-0.718,-0.461,-0.072
-758.950,73.649,-661.929,-0.945,-0.603,0.088
-755.538,76.795,-663.178,-0.659,-0.778,0.069
-754.583,71.259,-665.830,-0.051,-0.774,0.133
-761.185,72.731,-667.019,0.600,-0.762,0.112
-760.395,77.776,-665.936,0.694,-0.809,-0.088
-753.361,79.284,-662.657,-0.010,-0.912,-0.182
-750.794,73.326,-659.841,-0.816,-1.022,-0.227
-755.610,66.566,-658.605,-0.919,-1.054,-0.191
-756.734,64.861,-658.050,-0.492,-1.048,-0.231
-756.000,66.000,-659.000,-0.070,-1.050,-0.350
-759.686,72.150,-656.731,0.171,-0.950,-0.123
-758.365,75.110,-651.958,-0.323,-0.633,0.093
-754.816,73.362,-650.218,-0.568,-0.528,-0.097
-755.730,67.840,-652.486,-0.221,-0.549,-0.250
-757.517,68.809,-656.258,0.012,-0.307,-0.015
-759.333,74.780,-658.153,0.257,-0.116,0.249
-758.798,73.919,-657.982,0.190,-0.065,0.278
-754.377,75.780,-658.831,-0.063,-0.000,0.218
-751.103,76.351,-661.496,0.022,-0.100,0.092
-751.556,76.077,-662.293,0.126,-0.187,0.086
-751.423,78.171,-661.117,-0.045,-0.035,0.234
-747.834,77.050,-660.915,-0.043,-0.013,0.288
-744.180,73.967,-660.878,-0.119,0.037,0.278
-744.081,71.955,-661.171,-0.103,0.146,0.281
-743.000,74.000,-663.000,0.210,0.140,0.280
-742.555,76.691,-663.147,-0.049,0.259,0.279
-745.837,77.118,-663.148,-0.646,0.342,0.284
-743.746,71.515,-666.658,-0.806,0.359,0.246
-740.768,68.665,-667.428,-0.339,0.330,0.169
-740.912,72.170,-663.162,-0.135,0.408,0.133
-739.424,69.979,-662.269,-0.084,0.592,0.144
-736.872,66.934,-664.053,0.384,0.631,0.138
-739.404,67.861,-663.090,0.565,0.693,0.136
-748.595,69.697,-664.057,0.243,0.764,0.211
-749.563,69.839,-668.489,-0.697,0.718,0.066
-747.113,67.322,-671.265,-1.414,0.427,-0.283
-753.341,68.403,-671.768,-2.073,0.240,-0.522
-757.489,75.158,-668.636,-3.457,0.286,-0.779
-756.745,77.928,-665.932,-4.434,0.093,-0.920
-754.000,76.000,-667.000,-4.760,-0.210,-0.980
-753.404,75.882,-664.596,-4.785,-0.348,-0.994
-759.288,77.181,-662.493,-4.427,-0.330,-0.906
-762.277,80.432,-664.932,-3.478,-0.523,-0.965
-761.435,83.428,-665.559,-2.445,-0.850,-0.950
-762.150,85.965,-660.077,-2.102,-0.749,-0.906
-760.020,86.967,-652.620,-1.757,-0.538,-0.903
-754.598,87.118,-652.269,-0.828,-0.644,-0.833
-751.103,89.828,-656.733,0.034,-0.708,-0.654
-751.542,89.760,-658.738,0.163,-0.527,-0.325
-752.913,84.798,-660.103,0.205,-0.464,-0.293
-752.336,77.342,-661.843,0.621,-0.519,-0.413
-751.184,71.672,-661.046,0.839,-0.421,-0.405
-747.561,66.157,-658.207,1.241,-0.220,-0.310
-744.998,63.070,-659.664,2.083,-0.143,-0.203
-748.000,68.000,-665.000,2.450,-0.210,-0.210
-752.398,74.908,-667.613,2.018,-0.156,-0.145
-754.114,82.185,-671.996,0.888,-0.145,-0.255
-747.811,85.688,-677.023,-0.693,-0.454,-0.580
-744.535,83.037,-674.384,-2.171,-0.778,-0.792
-749.881,77.814,-666.885,-3.489,-0.838,-0.845
-747.391,73.255,-661.037,-4.194,-0.857,-0.844
-740.743,71.961,-661.242,-3.703,-0.989,-0.833
-742.576,73.539,-664.821,-2.470,-0.988,-0.646
-748.683,85.155,-666.373,-1.749,-0.899,-0.553
-753.083,100.006,-670.770,-2.091,-1.097,-0.573
-754.330,103.600,-674.225,-3.031,-1.525,-0.563
-755.906,93.463,-670.795,-4.899,-1.745,-0.718
-758.375,69.814,-666.713,-6.539,-1.880,-0.889
-755.046,46.008,-661.021,-5.726,-2.128,-1.081
-748.000,35.000,-657.000,-2.940,-2.030,-1.120
-744.884,40.589,-656.308,0.324,-1.655,-0.768
-748.162,61.388,-653.486,2.448,-1.446,-0.372
-753.575,84.233,-653.639,2.452,-1.279,-0.123
-754.914,93.899,-655.820,1.200,-1.078,-0.086
-753.077,87.173,-655.619,-0.406,-0.774,-0.327
-751.756,78.566,-654.721,-1.466,-0.424,-0.610
-750.922,74.715,-654.031,-1.200,-0.272,-0.617
-749.996,70.307,-656.654,-0.219,-0.090,-0.309
-752.050,68.560,-661.196,0.805,0.120,0.023
-755.048,72.866,-663.439,1.851,0.144,0.110
-753.242,81.417,-664.827,2.435,0.147,-0.022
-751.224,86.459,-666.261,2.152,0.103,-0.060
-750.967,87.165,-663.709,1.317,-0.049,0.017
-752.355,86.539,-659.445,0.145,-0.146,-0.007
-754.000,78.000,-657.000,-1.260,-0.140,0.000
-753.842,65.550,-658.270,-1.928,-0.192,0.008
-756.106,59.438,-664.237,-1.039,-0.283,-0.056
-758.242,66.221,-668.410,0.512,-0.230,-0.081
-759.347,80.615,-667.931,1.354,-0.231,-0.024
-757.545,87.206,-662.558,0.850,-0.301,0.124
-751.396,84.820,-659.958,-0.213,-0.381,0.121
-746.908,76.267,-661.046,-0.723,-0.572,0.072
-750.491,70.956,-661.827,-0.971,-0.569,0.137
-754.495,74.221,-664.662,-0.806,-0.487,0.137
-749.991,76.343,-664.346,-0.511,-0.505,0.190
-749.923,78.491,-663.635,-1.034,-0.446,0.190
-752.199,77.756,-661.019,-1.398,-0.403,0.115
-748.560,72.570,-657.524,-1.179,-0.318,0.163
-745.833,72.356,-660.666,-0.934,-0.284,0.216
-747.000,75.000,-663.000,-0.490,-0.280,0.280
-749.085,76.579,-664.587,-0.152,-0.153,0.349
-746.684,81.156,-666.342,-0.280,-0.139,0.306
-746.177,85.162,-663.598,-0.912,-0.076,0.233
-746.263,80.640,-660.892,-1.763,0.049,0.180
-742.730,75.753,-663.220,-1.855,-0.067,0.124
-745.050,74.906,-664.892,-1.054,-0.124,0.155
-749.202,76.302,-664.082,-0.461,0.086,0.212
-750.041,82.518,-667.724,0.071,0.087,0.212
-749.100,86.545,-667.839,1.095,-0.130,0.157
-749.440,88.893,-664.786,1.318,-0.042,0.120
-749.685,90.735,-665.997,1.177,-0.080,0.188
-748.605,88.865,-667.102,1.763,-0.440,0.222
-750.662,85.786,-664.562,1.679,-0.440,0.320
-749.444,78.703,-658.175,1.347,-0.270,0.331
-746.000,73.000,-658.000,2.310,-0.350,0.140
-745.840,74.534,-659.371,3.671,-0.317,0.233
-747.795,76.697,-656.776,3.691,-0.043,0.558
-752.060,77.905,-659.308,3.294,-0.055,0.678
-755.203,80.352,-661.807,3.608,-0.156,0.547
-755.618,80.500,-663.995,3.127,0.138,0.479
-751.806,77.162,-666.150,2.628,0.269,0.379
-750.227,74.911,-666.039,2.651,0.133,0.204
-755.706,74.073,-666.989,2.510,0.137,0.272
-754.967,73.117,-666.694,2.907,0.101,0.295
-752.760,73.344,-669.664,3.181,-0.069,0.262
-756.065,75.062,-670.143,3.254,-0.213,0.302
-756.958,73.689,-663.573,2.674,-0.170,0.234
-758.613,70.339,-658.876,1.627,-0.163,0.088
-757.334,71.195,-656.887,1.199,-0.291,-0.094
-753.000,70.000,-658.000,0.560,-0.210,-0.140
-756.237,71.066,-658.926,0.374,-0.083,-0.079
-757.530,77.742,-660.713,0.602,0.026,-0.021
-751.586,80.178,-664.764,0.317,0.135,0.045
-749.071,82.157,-666.213,-0.055,0.150,0.103
-746.234,80.582,-665.473,-0.391,0.258,0.150
-740.817,76.238,-665.103,-0.375,0.264,0.141
-737.892,73.753,-667.164,0.047,0.211,0.218
-737.909,70.152,-667.136,0.903,0.273,0.277
-739.003,71.142,-666.535,1.723,0.387,0.377
-738.090,74.462,-668.637,1.949,0.492,0.512
-738.562,74.539,-668.880,1.912,0.470,0.402
-740.802,71.375,-671.477,1.538,0.524,0.334
-742.634,69.859,-672.757,1.189,0.430,0.234
-745.282,68.618,-672.274,1.013,0.274,0.137
-744.000,67.000,-677.000,0.700,0.280,0.140
-743.368,70.388,-678.307,0.525,-0.014,0.075
-748.973,73.764,-676.749,-0.009,-0.251,0.008
-748.144,78.544,-677.990,-1.332,-0.406,-0.365
-741.555,78.917,-675.900,-2.771,-0.736,-0.683
-741.843,72.681,-669.320,-3.703,-0.861,-0.693
-744.261,71.082,-665.369,-3.785,-0.934,-0.699
-746.347,72.110,-662.780,-3.082,-0.976,-0.620
-752.626,74.726,-661.000,-2.229,-0.851,-0.437
-752.955,78.204,-661.786,-1.501,-0.726,-0.233
-749.643,82.163,-662.849,-0.778,-0.605,-0.208
-751.105,86.546,-665.958,-0.375,-0.525,-0.157
-752.219,88.554,-666.286,-0.633,-0.636,-0.001
-753.050,87.024,-662.877,-1.621,-0.812,0.096
-750.370,80.798,-660.911,-2.510,-0.835,0.138
-748.000,72.000,-663.000,-1.820,-0.770,0.070
-747.377,66.024,-666.743,-0.143,-0.597,0.061
-744.986,70.564,-667.435,0.847,-0.382,0.159
-745.558,75.816,-670.759,1.545,-0.341,0.345
-742.369,73.024,-674.076,1.858,-0.347,0.456
-739.617,71.980,-673.617,1.142,-0.377,0.357
-741.199,70.299,-674.183,0.748,-0.527,0.058
-741.046,69.160,-673.864,0.600,-0.637,-0.222
-743.728,73.681,-670.333,-0.016,-0.758,-0.277
-746.487,75.149,-668.317,-0.701,-0.888,-0.385
-748.507,76.032,-673.180,-1.059,-1.021,-0.517
-748.579,82.333,-675.169,-0.794,-1.298,-0.640
-750.391,88.312,-672.887,-1.301,-1.430,-0.727
-752.772,89.950,-671.256,-2.107,-1.521,-0.813
-745.694,86.087,-667.412,-1.996,-1.789,-1.001
-742.000,80.000,-665.000,-1.890,-1.890,-0.980
-743.015,78.661,-662.415,-1.219,-1.828,-0.965
-742.818,82.028,-660.927,-0.274,-1.777,-1.055
-743.073,83.108,-660.928,-0.033,-1.641,-0.975
-743.072,76.902,-661.388,0.377,-1.425,-0.854
-746.347,72.550,-663.694,1.416,-1.287,-0.859
-748.026,78.997,-663.880,2.206,-1.154,-0.913
-747.979,84.080,-665.224,2.231,-1.049,-0.832
-744.556,83.058,-667.898,2.176,-1.114,-0.830
-737.607,83.134,-668.105,1.879,-1.130,-0.967
-738.366,80.450,-667.673,1.363,-1.108,-0.944
-741.374,73.155,-669.090,1.210,-1.134,-0.887
-742.161,66.410,-672.202,1.404,-1.102,-0.954
-743.539,67.284,-672.941,2.032,-1.153,-1.103
-747.914,73.978,-672.976,2.387,-1.271,-1.285
-752.000,78.000,-670.000,2.100,-1.260,-1.400
-748.674,79.917,-664.447,1.444,-1.306,-1.517
-746.102,78.328,-663.312,0.816,-1.457,-1.656
-745.699,74.151,-660.716,0.496,-1.408,-1.691
-746.732,71.929,-657.589,0.226,-1.235,-1.658
-748.000,68.347,-658.928,0.430,-1.040,-1.564
-748.461,65.940,-664.569,0.971,-0.895,-1.450
-754.580,69.432,-670.227,1.497,-0.994,-1.396
-759.810,76.391,-669.250,1.082,-1.177,-1.332
-761.083,83.326,-667.030,-0.579,-1.354,-1.418
-758.297,81.482,-666.777,-1.456,-1.549,-1.664
-752.731,72.142,-662.658,-1.340,-1.675,-1.856
-754.921,67.889,-656.184,-0.806,-1.630,-1.839
-758.147,66.353,-655.377,0.358,-1.384,-1.479
-754.244,63.612,-657.184,2.117,-1.165,-1.156
-753.000,63.000,-659.000,3.920,-1.050,-0.980
-759.045,69.337,-662.727,4.971,-0.931,-0.846
-761.383,80.006,-662.295,4.760,-0.794,-0.844
-754.823,82.396,-663.171,2.974,-0.809,-0.821
-750.074,75.401,-665.746,1.109,-1.046,-0.905
-749.973,65.154,-664.425,-0.329,-1.107,-1.005
-748.164,59.128,-666.722,-1.207,-1.048,-1.073
-743.736,55.677,-666.808,-0.950,-1.042,-1.114
-743.768,52.938,-664.968,-0.838,-0.792,-0.924
-746.659,56.196,-666.013,-0.655,-0.675,-0.888
-747.824,58.268,-665.032,-0.402,-0.779,-0.940
-751.213,61.546,-665.436,-0.781,-0.715,-0.849
-753.503,64.713,-665.646,-1.242,-0.726,-0.879
-754.084,64.064,-664.836,-1.554,-0.775,-1.021
-752.450,67.568,-664.994,-1.780,-0.771,-1.039
-748.000,67.000,-664.000,-1.750,-0.770,-0.910
-746.868,66.315,-662.232,-1.047,-0.712,-0.794
-748.251,72.411,-661.150,-0.330,-0.605,-0.605
-750.928,76.046,-660.375,-0.023,-0.489,-0.568
-751.587,77.960,-659.517,0.088,-0.514,-0.672
-748.758,77.049,-660.315,-0.223,-0.437,-0.586
-748.060,73.143,-661.206,-0.424,-0.350,-0.567
-749.107,70.887,-664.354,-0.264,-0.424,-0.556
-750.857,69.182,-667.060,-0.083,-0.421,-0.555
-752.055,66.488,-665.086,0.097,-0.422,-0.579
-750.297,65.987,-666.330,0.284,-0.406,-0.487
-746.853,68.983,-665.895,0.374,-0.495,-0.545
-748.641,70.004,-662.365,-0.110,-0.562,-0.514
-754.575,68.090,-660.410,-1.049,-0.465,-0.403
-755.806,61.700,-660.366,-1.584,-0.502,-0.421
-753.000,55.000,-666.000,-1.610,-0.490,-0.350
-751.711,57.222,-669.107,-1.143,-0.365,-0.284
-755.117,61.702,-667.950,-0.749,-0.326,-0.270
-755.099,67.019,-668.415,-0.983,-0.469,-0.351
-750.594,71.718,-665.325,-1.555,-0.609,-0.480
-752.522,67.543,-658.523,-2.755,-0.507,-0.471
-756.308,62.086,-657.086,-3.714,-0.517,-0.406
-753.705,59.919,-656.948,-4.083,-0.631,-0.344
-752.771,61.593,-659.455,-3.984,-0.503,-0.221
-757.187,69.600,-667.114,-2.595,-0.417,-0.131
-758.035,80.255,-667.009,-1.569,-0.395,-0.233
-754.298,87.861,-665.458,-1.664,-0.298,-0.304
-749.549,85.949,-665.527,-1.769,-0.464,-0.251
-744.584,80.695,-663.507,-1.574,-0.664,-0.186
-743.100,77.344,-664.165,-1.036,-0.615,-0.042
-745.000,71.000,-664.000,-0.630,-0.560,0.140
-745.971,67.086,-663.923,-0.046,-0.619,0.211
-745.543,67.167,-663.993,0.525,-0.611,0.201
-742.907,66.179,-665.040,0.519,-0.434,0.255
-741.973,66.768,-669.231,0.712,-0.502,0.289
-745.243,70.708,-671.047,0.587,-0.667,0.267
-747.256,72.976,-669.467,-0.712,-0.613,0.184
-747.961,68.485,-667.964,-1.948,-0.638,0.061
-743.579,63.171,-668.040,-2.118,-0.761,-0.061
-738.546,63.506,-665.889,-1.817,-0.797,-0.098
-743.736,65.409,-661.957,-1.503,-0.590,0.083
-746.084,67.040,-659.921,-0.967,-0.388,0.156
-741.998,68.530,-660.366,-0.384,-0.310,0.152
-743.174,69.424,-662.913,0.099,-0.168,0.228
-750.120,74.077,-666.541,0.903,-0.145,0.202
-754.000,82.000,-668.000,1.260,-0.140,0.210
-753.783,84.471,-666.151,0.434,-0.122,0.278
-755.898,78.929,-666.631,-0.208,-0.337,0.202
-754.084,74.457,-666.312,-0.065,-0.540,0.012
-753.100,73.288,-663.056,0.004,-0.554,0.094
-755.449,68.982,-661.764,0.234,-0.578,0.386
-753.132,65.659,-663.673,1.045,-0.646,0.496
-750.972,66.075,-667.226,1.718,-0.703,0.491
-751.897,67.754,-668.067,2.143,-0.703,0.553
-752.291,72.630,-667.138,2.207,-0.686,0.581
-750.695,77.078,-665.904,1.484,-0.794,0.456
-752.825,74.144,-662.977,0.535,-0.865,0.412
-755.103,66.782,-661.581,-0.421,-0.808,0.404
-749.820,65.368,-662.298,-0.624,-0.755,0.332
-745.938,67.105,-664.442,0.023,-0.688,0.364
-749.000,68.000,-667.000,0.350,-0.630,0.490
-751.036,73.961,-667.086,0.826,-0.683,0.563
-750.721,78.044,-666.871,1.002,-0.768,0.505
-751.775,77.273,-667.366,0.327,-0.751,0.487
-751.111,76.499,-668.218,-0.079,-0.856,0.483
-749.166,73.539,-664.692,-0.355,-1.011,0.515
-747.626,68.779,-659.457,-0.874,-0.863,0.553
-747.018,63.737,-664.668,-0.628,-0.854,0.407
-747.054,65.455,-670.817,0.801,-1.046,0.344
-746.688,74.171,-672.486,1.524,-0.942,0.508
-748.520,80.048,-673.288,1.058,-0.953,0.694
-748.091,80.935,-668.542,0.400,-1.199,0.592
-745.984,76.041,-666.577,-0.819,-1.280,0.277
-744.466,69.097,-663.093,-1.590,-1.356,0.107
-744.175,65.763,-657.711,-1.593,-1.305,0.074
-746.000,66.000,-661.000,-1.120,-1.120,0.210
-746.755,67.666,-664.598,0.052,-1.059,0.404
-749.272,71.144,-667.409,0.697,-0.953,0.432
-750.210,77.655,-667.300,0.900,-0.846,0.406
-749.486,81.014,-664.310,0.723,-0.863,0.454
-748.099,78.323,-661.699,-0.016,-0.934,0.499
-747.169,71.130,-658.499,-0.474,-0.882,0.487
-751.433,65.884,-660.304,-0.317,-0.766,0.491
-755.807,67.774,-663.806,0.124,-0.772,0.490
-757.011,69.661,-666.347,0.091,-0.659,0.491
-756.348,72.298,-668.160,0.162,-0.644,0.455
-754.584,76.429,-666.435,0.019,-0.764,0.369
-751.389,78.963,-663.575,-0.803,-0.790,0.350
-751.541,77.998,-661.522,-1.193,-0.970,0.348
-752.923,72.190,-662.316,-1.530,-0.959,0.351
-751.000,71.000,-664.000,-1.610,-0.910,0.350
-753.307,71.196,-664.655,-1.295,-1.044,0.403
-756.233,71.615,-668.087,-1.011,-1.032,0.490
-753.744,76.640,-668.581,-0.424,-1.155,0.448
-749.783,78.452,-664.898,-0.590,-1.137,0.396
-746.741,79.341,-663.531,-1.254,-1.055,0.302
-742.995,76.941,-661.359,-1.307,-1.225,0.197
-741.119,72.835,-661.176,-1.174,-1.179,0.214
-746.473,72.048,-663.885,-0.743,-1.115,0.274
-750.900,72.859,-664.686,-0.401,-1.230,0.346
-750.017,79.757,-666.062,-0.679,-1.332,0.312
-750.747,82.507,-663.961,-1.058,-1.246,0.241
-751.923,79.840,-660.747,-1.240,-1.028,0.166
-748.805,78.479,-659.486,-1.140,-0.978,0.032
-748.326,75.554,-657.934,-1.039,-0.883,0.005
-751.000,74.000,-660.000,-0.700,-0.700,0.070
-751.839,73.805,-662.696,0.226,-0.636,0.130
-752.901,76.712,-664.562,0.611,-0.580,0.197
-753.021,80.123,-664.802,0.415,-0.543,0.192
-755.360,82.015,-662.396,0.184,-0.593,0.064
-754.915,82.841,-660.108,-0.662,-0.651,-0.024
-751.361,78.711,-658.754,-1.230,-0.714,-0.084
-751.058,73.710,-659.124,-1.030,-0.692,-0.062
-751.938,71.970,-661.765,-0.798,-0.566,0.065
-752.159,73.534,-664.449,-0.227,-0.553,0.068
-751.543,75.550,-666.912,0.286,-0.559,0.122
-752.432,81.019,-668.309,0.347,-0.612,0.093
-750.557,86.725,-664.693,-0.088,-0.758,-0.056
-748.486,83.239,-661.364,-1.197,-0.766,-0.078
-745.317,78.372,-660.979,-1.757,-0.865,-0.244
-744.000,73.000,-661.000,-1.260,-0.910,-0.350
-750.293,70.360,-662.626,-0.247,-0.722,-0.283
-750.896,77.756,-664.739,0.790,-0.649,-0.288
-748.440,82.099,-664.427,1.088,-0.540,-0.231
-747.009,81.682,-663.929,0.800,-0.512,-0.227
-747.960,79.863,-664.986,0.545,-0.697,-0.310
-752.938,76.543,-660.442,0.146,-0.671,-0.361
-752.756,77.004,-655.873,-0.613,-0.555,-0.426
-748.318,72.603,-655.945,-0.799,-0.498,-0.488
-747.109,66.972,-657.994,-0.175,-0.329,-0.449
-752.329,70.289,-661.680,0.603,-0.132,-0.313
-754.021,78.184,-661.632,1.300,0.018,-0.271
-751.769,85.774,-664.562,1.277,0.084,-0.280
-748.993,82.949,-662.018,0.589,0.070,-0.291
-748.296,76.281,-658.216,-0.142,0.159,-0.359
-751.000,73.000,-662.000,0.140,0.210,-0.350
-750.797,70.795,-656.718,0.612,0.252,-0.284
-753.651,74.126,-659.448,0.057,0.467,-0.317
-751.237,75.286,-669.328,0.763,0.388,-0.415
-748.742,79.529,-671.300,1.527,0.234,-0.386
-753.374,89.148,-672.029,0.812,0.284,-0.361
-750.883,89.288,-670.554,0.519,-0.039,-0.552
-749.075,89.334,-669.958,-0.230,-0.440,-0.862
-750.036,94.829,-666.476,-1.332,-0.556,-0.986
-748.562,91.145,-661.342,-2.418,-0.608,-0.806
-745.199,82.090,-661.862,-4.219,-0.759,-0.780
-743.564,72.170,-664.530,-5.161,-0.903,-0.914
-748.602,54.442,-666.722,-5.072,-0.734,-0.887
-750.865,46.921,-666.540,-4.084,-0.620,-0.945
-748.705,54.332,-663.386,-1.904,-0.529,-0.962
-748.000,62.000,-659.000,-0.560,-0.280,-0.700
-747.980,70.097,-655.348,-0.139,-0.164,-0.505
-748.495,72.847,-654.984,0.237,0.106,-0.431
-750.628,74.806,-659.817,0.398,0.345,-0.447
-752.644,79.331,-665.792,0.992,0.334,-0.503
-753.216,84.401,-668.711,1.100,0.370,-0.345
-755.320,90.944,-670.219,0.471,0.318,-0.291
-752.611,87.427,-669.882,-0.361,0.043,-0.351
-750.736,81.325,-667.242,-1.531,-0.265,-0.346
-755.032,75.246,-665.021,-2.192,-0.342,-0.458
-749.996,66.224,-666.035,-2.138,-0.464,-0.585
-745.024,66.273,-668.012,-1.205,-0.658,-0.674
-748.939,71.867,-669.692,0.019,-0.564,-0.522
-749.571,81.303,-671.296,0.451,-0.619,-0.312
-747.745,88.342,-670.763,-0.072,-0.868,-0.368
-746.000,84.000,-668.000,-1.260,-0.910,-0.490
-745.039,76.072,-663.651,-2.054,-0.911,-0.672
-744.367,70.244,-659.960,-2.054,-0.832,-0.782
-743.550,66.870,-656.519,-1.789,-0.603,-0.668
-743.764,66.031,-653.346,-2.007,-0.344,-0.421
-739.993,69.658,-653.537,-2.093,0.003,-0.208
-738.338,70.640,-658.284,-1.219,0.360,-0.025
-744.631,69.036,-662.098,-0.296,0.730,0.150
-750.827,71.758,-661.101,0.187,1.097,0.211
-749.116,74.320,-662.073,0.342,1.350,0.114
-745.513,77.837,-666.013,0.462,1.526,-0.057
-747.684,80.145,-667.344,1.021,1.481,-0.027
-749.023,85.085,-669.051,1.174,1.356,-0.020
-749.038,90.793,-673.307,0.107,1.302,-0.073
-748.921,85.840,-676.297,-0.506,0.977,-0.082
-750.000,81.000,-677.000,-0.560,0.490,-0.280
-753.802,80.121,-675.464,-0.926,0.236,-0.411
-752.045,79.801,-671.474,-0.290,0.022,-0.475
-750.302,80.261,-666.974,0.334,-0.266,-0.466
-750.463,79.440,-665.570,0.446,-0.397,-0.392
-746.061,78.811,-665.899,1.157,-0.428,-0.442
-745.219,79.358,-664.514,1.679,-0.409,-0.400
-746.016,82.189,-662.923,1.742,-0.345,-0.350
-747.697,81.321,-662.073,1.434,-0.284,-0.351
-751.621,76.787,-661.697,1.086,-0.275,-0.348
-751.299,73.957,-663.860,0.994,-0.257,-0.324
-751.348,72.109,-665.941,1.015,-0.136,-0.193
-754.190,74.786,-668.403,1.226,-0.196,-0.114
-754.505,77.238,-673.418,1.358,-0.297,-0.049
-750.189,77.124,-674.915,1.389,-0.372,-0.093
-746.000,79.000,-673.000,0.980,-0.560,-0.280
-742.716,76.765,-668.746,0.394,-0.625,-0.290
-737.844,72.066,-665.740,0.322,-0.683,-0.231
-737.299,68.954,-667.034,0.421,-0.681,-0.126
-740.853,67.853,-665.458,0.569,-0.562,-0.064
-744.031,69.720,-663.658,0.487,-0.442,-0.190
-746.246,69.943,-665.577,0.344,-0.330,-0.207
-745.976,71.171,-668.184,0.424,-0.276,-0.292
-747.708,72.905,-669.907,0.475,-0.213,-0.356
-751.480,75.164,-671.486,0.912,-0.253,-0.272
-752.155,77.889,-672.999,1.362,-0.374,-0.380
-751.619,78.316,-672.210,1.386,-0.513,-0.426
-752.123,81.703,-671.683,1.451,-0.746,-0.432
-751.467,81.211,-670.544,1.571,-0.967,-0.378
-748.471,80.151,-669.855,1.603,-1.054,-0.191
-746.000,80.000,-665.000,1.260,-1.050,-0.210
-747.491,75.473,-658.229,0.352,-1.053,-0.217
-749.547,73.279,-659.996,-0.264,-1.002,-0.202
-745.766,67.617,-662.775,-0.114,-0.939,-0.192
-743.521,67.546,-668.309,0.326,-0.854,-0.081
-748.071,74.216,-670.661,0.746,-0.728,-0.092
-752.657,76.315,-667.253,0.391,-0.701,-0.151
-751.696,78.053,-664.760,-0.477,-0.699,-0.217
-746.349,75.378,-662.013,-0.959,-0.698,-0.279
-744.656,71.973,-664.341,-1.036,-0.708,-0.233
-745.890,74.159,-665.568,-0.652,-0.652,-0.120
-745.605,78.794,-667.789,-0.321,-0.620,0.007
-746.233,79.668,-670.530,-0.083,-0.637,0.125
-745.306,77.247,-669.877,0.231,-0.623,0.241
-742.678,74.463,-671.173,0.551,-0.637,0.281
-742.000,72.000,-671.000,0.980,-0.700,0.280
-742.864,75.428,-672.680,0.976,-0.761,0.228
-742.683,75.524,-672.670,0.251,-0.821,0.102
-739.776,70.745,-671.661,-0.708,-0.906,-0.001
-739.024,70.295,-674.032,-0.912,-1.074,-0.160
-742.472,71.234,-670.894,-1.053,-1.091,-0.196
-745.139,70.683,-666.285,-1.634,-0.964,-0.139
-742.756,68.928,-666.088,-1.347,-1.061,-0.215
-742.704,70.678,-666.997,-0.671,-1.063,-0.152
-747.337,75.143,-666.266,-0.221,-0.866,-0.014
-748.125,78.163,-665.141,-0.027,-0.829,0.009
-747.819,79.878,-664.684,-0.173,-0.847,-0.033
-747.791,79.470,-665.122,-0.227,-0.821,-0.087
-750.338,77.351,-664.573,-0.442,-0.749,-0.059
-755.532,77.219,-664.179,-0.637,-0.789,-0.077
-755.000,79.000,-667.000,-0.560,-0.910,-0.070
-755.418,78.179,-668.851,-0.653,-0.909,-0.000
-758.886,78.455,-669.341,-1.060,-0.995,-0.052
-756.958,78.877,-666.695,-1.370,-1.160,-0.075
-752.205,73.717,-663.489,-1.394,-1.174,-0.089
-746.591,70.586,-662.400,-1.198,-1.088,-0.163
-742.472,72.605,-660.780,-0.423,-1.036,-0.116
-744.314,75.220,-663.346,0.076,-0.895,0.009
-747.878,77.895,-666.862,-0.062,-0.771,0.070
-747.467,77.386,-668.473,-0.145,-0.780,0.020
-745.355,76.706,-670.132,-0.628,-0.706,-0.053
-744.622,76.556,-668.598,-0.964,-0.764,-0.100
-744.958,73.913,-667.926,-0.650,-0.868,-0.176
-742.915,76.308,-667.455,-0.223,-0.821,-0.215
-739.790,79.152,-664.625,0.108,-0.756,-0.206
-742.000,80.000,-664.000,0.280,-0.630,-0.140
-744.191,81.974,-665.555,0.423,-0.565,-0.069
-741.535,80.642,-669.059,0.161,-0.510,-0.120
-742.226,78.802,-670.731,-0.291,-0.500,-0.149
-747.875,77.428,-671.741,-0.300,-0.658,-0.150
-747.861,81.438,-675.137,-0.216,-0.838,-0.263
-744.571,88.099,-675.841,-0.760,-1.023,-0.366
-746.197,88.922,-674.901,-1.828,-1.204,-0.426
-746.211,87.209,-671.446,-2.666,-1.388,-0.549
-743.861,83.240,-665.810,-3.637,-1.469,-0.678
-746.366,76.984,-663.465,-4.128,-1.497,-0.753
-749.274,69.795,-661.897,-3.658,-1.610,-0.779
-750.825,71.213,-662.725,-3.445,-1.556,-0.761
-755.497,79.203,-663.768,-3.056,-1.459,-0.780
-756.689,83.576,-660.425,-3.034,-1.462,-0.757
-753.000,86.000,-658.000,-4.410,-1.260,-0.630
-752.001,77.305,-655.444,-5.708,-1.119,-0.567
-750.817,63.137,-653.778,-5.850,-1.069,-0.474
-748.633,54.620,-654.948,-5.019,-0.671,-0.266
-749.797,51.110,-657.589,-3.756,-0.402,0.029
-751.430,59.911,-663.272,-2.000,-0.420,0.286
-753.482,75.471,-667.605,-0.434,-0.212,0.365
-753.868,86.549,-669.091,0.004,0.008,0.502
-750.316,88.218,-669.149,-0.232,0.005,0.503
-747.279,84.691,-665.822,-1.170,-0.063,0.308
-746.739,81.197,-663.216,-1.724,-0.040,0.234
-746.913,75.299,-662.391,-1.337,0.058,0.180
-747.132,74.801,-661.580,-1.292,0.060,0.277
-750.176,77.476,-662.473,-1.035,0.092,0.351
-753.276,78.352,-665.605,-0.408,0.136,0.363
-754.000,84.000,-669.000,-0.070,0.000,0.490
-754.930,88.775,-668.392,-0.028,-0.131,0.435
-754.411,89.040,-665.732,-0.483,-0.181,0.409
-752.892,88.816,-663.092,-0.761,-0.303,0.397
-749.732,85.854,-660.935,-0.549,-0.346,0.318
-745.813,82.085,-661.097,-0.020,-0.240,0.392
-747.864,85.244,-660.719,0.926,-0.202,0.526
-749.961,89.097,-660.019,1.562,-0.052,0.713
-747.258,88.168,-660.931,1.379,0.133,0.772
-745.067,84.493,-661.694,0.490,0.193,0.761
-745.108,77.232,-663.677,-0.089,0.269,0.785
-743.129,73.232,-666.907,0.052,0.278,0.749
-739.798,73.370,-670.815,0.305,0.276,0.808
-744.015,78.316,-675.151,1.398,0.162,0.840
-747.985,88.565,-677.099,1.970,0.062,0.840
-744.000,95.000,-676.000,0.350,-0.070,0.700
-743.536,91.502,-671.823,-1.591,-0.385,0.275
-745.962,80.040,-666.003,-2.849,-0.492,-0.029
-745.487,73.085,-659.217,-3.589,-0.468,-0.100
-746.818,71.030,-656.243,-3.112,-0.321,0.030
-745.648,72.515,-661.763,-1.158,-0.163,0.333
-741.260,82.962,-669.590,0.984,-0.028,0.624
-743.410,94.721,-674.189,2.070,0.147,0.852
-747.881,99.928,-674.109,2.003,0.083,0.852
-746.762,98.028,-674.294,1.246,-0.140,0.625
-743.069,93.037,-677.049,0.356,-0.462,0.329
-741.047,88.020,-674.765,-0.888,-0.644,0.039
-742.971,84.227,-672.470,-2.087,-0.788,-0.134
-741.921,77.427,-674.865,-2.327,-1.059,-0.246
-738.973,71.809,-675.824,-1.513,-1.201,-0.364
-743.000,77.000,-671.000,-0.560,-1.190,-0.350
-744.404,83.404,-664.514,-0.025,-1.116,-0.221
-741.886,86.852,-663.169,0.685,-1.228,-0.211
-743.918,90.548,-661.958,0.806,-1.213,-0.139
-747.931,93.304,-663.102,0.285,-1.043,-0.050
-750.732,93.615,-665.006,0.092,-1.075,-0.208
-750.450,89.986,-662.371,-0.115,-1.015,-0.175
-745.563,86.865,-663.225,0.119,-0.828,-0.070
-742.019,86.031,-665.020,0.984,-0.769,-0.077
-744.153,85.914,-664.659,1.655,-0.778,0.102
-746.768,86.224,-667.446,1.936,-0.748,0.167
-745.997,84.732,-670.372,1.914,-0.852,0.095
-744.230,81.490,-670.921,1.731,-0.918,0.056
-745.868,79.639,-668.733,1.549,-0.926,0.094
-747.977,78.858,-661.914,1.183,-0.973,0.134
-743.000,77.000,-659.000,0.700,-0.770,-0.000
-736.331,73.404,-663.829,0.973,-0.688,-0.013
-738.165,74.479,-672.883,2.245,-0.761,0.056
-744.128,85.289,-680.985,3.196,-0.824,0.138
-750.053,95.884,-681.018,2.480,-1.035,0.262
-753.209,97.133,-679.526,0.820,-1.317,0.118
-748.441,88.530,-677.006,-0.798,-1.796,-0.230
-743.806,80.691,-672.813,-2.333,-2.113,-0.661
-741.272,79.123,-672.885,-2.753,-2.291,-0.846
-738.757,77.041,-674.589,-2.281,-2.499,-0.662
-741.591,79.751,-675.401,-1.747,-2.585,-0.651
-743.410,84.633,-673.614,-1.061,-2.809,-0.755
-742.333,87.524,-671.843,-0.947,-2.849,-0.789
-741.803,92.196,-663.410,-1.229,-2.800,-0.856
-740.763,90.079,-654.362,-1.974,-2.790,-0.833
-739.000,83.000,-656.000,-2.660,-2.730,-0.840
-742.577,79.196,-657.110,-2.033,-2.694,-0.851
-752.788,79.503,-656.292,-1.357,-2.313,-0.740
-756.359,80.121,-655.109,-0.976,-1.930,-0.613
-755.428,77.133,-654.608,-0.093,-1.696,-0.516
-756.597,76.155,-650.848,0.922,-1.436,-0.467
-759.636,78.854,-648.149,1.599,-1.110,-0.301
-758.667,84.532,-653.509,2.141,-0.907,-0.131
-754.964,90.676,-659.518,2.395,-0.916,-0.011
-758.999,93.514,-666.524,1.899,-0.779,0.084
-759.559,95.198,-670.639,1.282,-0.920,-0.067
-755.589,92.716,-670.324,0.265,-1.202,-0.201
-754.535,85.025,-666.880,-1.028,-1.300,-0.219
-753.820,76.774,-663.124,-1.408,-1.449,-0.329
-753.986,74.071,-661.824,-1.136,-1.547,-0.512
-753.000,77.000,-661.000,-0.770,-1.540,-0.490
-753.702,82.035,-661.903,-0.500,-1.533,-0.355
-754.988,87.503,-661.940,-0.683,-1.561,-0.359
-754.249,86.222,-661.944,-1.193,-1.449,-0.320
-749.561,81.792,-658.043,-1.385,-1.358,-0.438
-742.980,78.774,-654.082,-1.383,-1.159,-0.450
-745.099,75.297,-653.546,-0.968,-0.949,-0.238
-749.207,73.981,-649.827,-0.316,-0.741,-0.132
-750.963,74.806,-652.572,-0.032,-0.243,-0.006
-748.940,79.438,-655.896,0.665,-0.021,-0.002
-747.486,86.037,-657.266,1.015,0.161,0.112
-754.928,89.857,-660.648,0.428,0.409,0.329
-755.852,88.916,-658.124,-0.051,0.400,0.326
-754.233,84.569,-655.145,-0.633,0.459,0.267
-757.271,80.364,-651.421,-1.160,0.668,0.293
-756.000,76.000,-651.000,-1.050,0.910,0.420
-756.614,74.573,-653.643,-0.709,1.091,0.433
-758.114,80.335,-657.760,0.053,1.285,0.351
-757.588,88.758,-663.405,0.744,1.379,0.416
-758.255,95.032,-660.624,0.183,1.442,0.556
-756.813,96.711,-660.821,-0.736,1.445,0.531
-751.545,89.864,-661.582,-1.403,1.310,0.494
-746.809,81.489,-660.069,-1.666,1.416,0.567
-746.888,76.287,-662.795,-0.925,1.541,0.688
-747.945,75.869,-665.256,0.195,1.480,0.827
-747.460,81.712,-668.217,0.944,1.501,0.842
-745.560,82.981,-670.032,1.080,1.578,0.830
-745.298,84.097,-673.058,1.212,1.460,0.677
-749.306,86.102,-670.810,1.181,1.288,0.546
-749.415,84.966,-670.188,0.701,1.168,0.554
-743.000,86.000,-668.000,0.350,1.050,0.420
-742.388,81.916,-665.465,-0.007,1.115,0.348
-745.799,79.976,-669.505,0.621,0.995,0.356
-745.637,89.375,-671.552,1.495,0.803,0.337
-746.172,96.782,-673.922,1.223,0.933,0.389
-745.634,93.914,-661.987,0.726,0.954,0.401
-745.803,87.836,-666.797,0.389,0.807,0.247
-740.474,86.028,-663.655,0.657,0.690,0.292
-739.621,87.770,-659.994,0.760,0.390,0.357
-738.594,92.989,-694.079,1.521,-0.156,0.226
-720.875,101.061,-683.947,1.995,0.113,0.205
-730.292,93.489,-676.527,-0.063,0.943,0.240
-741.348,77.026,-681.655,0.195,0.425,0.241
-724.158,82.040,-668.773,1.402,-0.194,-0.248
-731.939,80.111,-677.275,0.258,0.200,-0.285
-743.000,69.000,-672.000,0.560,0.070,0.140
-737.308,78.133,-675.021,1.039,-0.328,-0.273
-739.741,85.402,-681.066,0.460,-0.387,-0.497
-741.430,87.444,-674.636,-0.185,-0.576,-0.578
-740.547,86.998,-675.702,-0.896,-0.806,-0.782
-741.161,84.365,-671.876,-0.924,-0.821,-0.759
-742.257,83.608,-668.272,-0.831,-0.769,-0.759
-743.012,82.078,-666.012,-0.595,-0.847,-0.622
-742.969,86.605,-669.698,-0.041,-0.846,-0.689
-744.352,89.532,-670.268,0.367,-0.773,-0.723
-747.552,93.586,-671.514,0.498,-0.807,-0.670
-750.295,97.985,-672.210,0.390,-0.889,-0.756
-751.198,94.856,-666.628,-0.204,-0.908,-0.766
-752.120,89.173,-667.616,-0.793,-0.932,-0.774
-750.642,84.587,-666.618,-0.489,-1.068,-0.766
-750.000,84.000,-666.000,-0.420,-1.050,-0.700
-751.925,81.531,-666.939,-0.645,-0.976,-0.567
-750.715,79.240,-667.679,-0.401,-1.041,-0.647
-748.615,78.311,-667.698,-0.399,-1.021,-0.739
-746.578,78.338,-665.814,-0.569,-0.923,-0.664
-744.007,78.705,-664.443,-0.660,-0.780,-0.744
-742.648,76.845,-665.721,-0.582,-0.695,-0.758
-740.901,80.398,-670.281,-0.342,-0.696,-0.697
-741.764,83.017,-671.087,-0.529,-0.570,-0.637
-745.335,82.837,-669.569,-0.907,-0.540,-0.561
-746.523,82.456,-666.074,-1.225,-0.591,-0.601
-744.025,78.280,-664.692,-1.363,-0.496,-0.670
-743.113,80.046,-666.708,-0.946,-0.527,-0.717
-747.636,86.839,-666.996,-0.563,-0.547,-0.670
-751.250,89.023,-668.298,-0.671,-0.491,-0.545
-750.000,88.000,-671.000,-0.910,-0.630,-0.560
-746.306,86.886,-674.783,-0.640,-0.821,-0.690
-747.007,89.689,-672.604,-0.299,-0.893,-0.663
-748.162,92.152,-669.151,-0.635,-1.006,-0.600
-741.827,88.578,-670.764,-0.773,-1.254,-0.682
-739.002,84.490,-668.637,-0.698,-1.325,-0.684
-744.433,79.951,-666.682,-0.778,-1.239,-0.613
-746.850,78.012,-664.886,-0.690,-1.190,-0.558
-741.409,78.078,-667.468,-0.516,-1.254,-0.561
-741.388,77.536,-673.646,-0.034,-1.274,-0.458
-748.146,81.578,-672.119,0.082,-1.241,-0.377
-747.221,87.271,-669.427,-0.685,-1.280,-0.510
-742.927,86.001,-666.022,-1.554,-1.245,-0.612
-738.656,77.647,-663.652,-1.941,-1.250,-0.846
-737.089,76.195,-662.658,-1.769,-0.997,-0.897
-739.000,76.000,-660.000,-1.190,-0.770,-0.770
-742.415,78.155,-662.265,-0.089,-0.544,-0.425
-744.276,81.415,-665.922,0.505,-0.292,-0.115
-744.506,81.075,-664.486,0.403,-0.208,-0.238
-749.603,84.220,-665.036,0.482,0.042,-0.142
-749.112,81.045,-668.762,0.649,-0.187,-0.311
-750.600,89.615,-666.436,0.818,-0.070,-0.309
-747.446,88.265,-671.750,0.072,-0.177,-0.294
-747.218,91.406,-675.422,-0.044,-0.434,-0.302
-754.807,104.270,-670.182,0.037,-0.501,-0.187
-739.799,73.353,-677.349,-0.983,-1.299,-0.460
-744.231,78.305,-671.079,0.513,0.206,0.793
-758.148,102.928,-659.368,1.767,1.211,0.219
-748.766,97.227,-660.192,-0.275,-0.639,-3.535
-750.008,98.741,-657.822,-3.170,-2.072,-5.113
-753.000,82.000,-663.000,-5.320,-3.290,-3.640
-748.952,67.655,-668.562,-4.769,-3.571,-0.738
-741.699,64.052,-671.913,-2.630,-2.926,1.785
-739.813,63.856,-673.162,0.100,-1.848,3.095
-743.839,71.207,-670.597,3.548,-0.450,3.103
-745.607,82.183,-668.846,6.295,0.903,1.525
-746.595,94.668,-664.005,7.565,2.419,-1.243
-740.542,91.538,-664.163,7.460,3.344,-3.369
-740.616,89.141,-664.974,7.095,4.016,-3.092
-744.656,81.253,-667.820,6.805,4.288,-1.999
-746.376,69.740,-670.499,7.009,4.151,-0.749
-749.862,65.957,-670.054,7.517,3.774,0.900
-748.897,63.908,-675.308,8.232,2.939,2.847
-747.872,72.466,-673.763,8.592,1.881,4.903
-746.593,82.322,-674.781,6.769,0.466,5.773
-743.000,91.000,-678.000,4.690,-1.120,5.250
-741.096,94.318,-676.655,2.231,-2.889,3.711
-739.471,91.120,-679.979,-1.564,-4.277,2.013
-733.191,85.767,-677.322,-3.897,-5.014,0.965
-730.967,75.154,-675.559,-4.804,-5.414,0.454
-738.190,72.650,-673.678,-4.695,-5.269,-0.278
-745.251,78.246,-673.721,-3.568,-4.779,-1.230
-749.253,82.341,-675.790,-2.693,-4.307,-1.460
-751.868,88.506,-668.526,-2.875,-3.826,-1.208
-751.804,91.554,-665.860,-3.927,-3.196,-1.140
-745.847,87.543,-665.821,-4.455,-2.894,-1.507
-739.749,84.016,-666.567,-4.488,-2.761,-1.838
-741.662,80.080,-662.937,-4.409,-2.233,-1.720
-745.798,79.580,-655.187,-3.932,-1.517,-1.494
-744.519,82.147,-653.934,-2.982,-0.622,-1.668
-743.000,81.000,-653.000,-1.960,0.210,-2.030
-747.999,83.239,-655.714,-1.060,0.589,-2.132
-752.600,87.999,-653.101,-0.292,0.963,-2.709
-752.983,89.583,-648.920,-0.674,1.363,-3.652
-752.002,83.797,-654.707,-1.072,1.112,-3.988
-748.786,75.487,-661.479,-0.632,0.760,-3.366
-752.872,75.619,-670.015,0.068,0.898,-2.288
-760.182,78.156,-676.334,1.284,1.134,-1.650
-754.762,80.781,-679.809,2.017,1.196,-1.412
-746.877,81.057,-679.809,1.895,0.990,-1.251
-743.921,74.595,-675.430,1.622,0.538,-0.878
-741.163,68.914,-671.685,1.703,-0.176,-0.482
-738.472,65.588,-668.663,1.687,-0.618,-0.196
-735.221,63.428,-667.825,1.691,-0.629,0.441
-737.867,61.908,-666.861,2.330,-0.817,1.254
-743.000,67.000,-668.000,2.380,-1.190,2.310
-744.020,82.619,-669.328,2.035,-1.677,3.024
-742.421,93.204,-665.255,1.071,-1.974,2.330
-737.427,93.003,-663.009,-0.495,-1.808,1.301
-738.688,87.538,-665.602,-0.878,-1.535,1.144
-743.107,80.753,-669.245,-0.527,-1.163,1.464
-744.226,80.722,-670.985,0.298,-0.651,1.723
-746.131,84.069,-668.801,1.008,-0.176,1.740
-746.941,80.475,-667.956,1.353,0.191,1.434
-747.997,76.698,-667.028,2.112,0.287,0.954
-746.082,79.847,-661.349,2.322,0.296,0.459
-744.257,81.337,-660.052,2.045,0.454,0.051
-744.933,80.824,-663.597,1.379,0.467,-0.135
-743.938,78.924,-669.270,0.859,0.427,-0.228
-749.168,74.605,-678.042,1.267,0.595,-0.101
-754.000,78.000,-678.000,1.400,0.770,0.070
-753.941,85.333,-675.792,1.067,0.672,-0.268
-753.799,87.167,-676.180,0.187,0.364,-0.714
-750.135,86.105,-671.513,-1.084,0.121,-0.750
-748.342,83.272,-671.725,-1.928,-0.168,-0.716
-747.204,82.146,-670.840,-2.372,-0.432,-1.095
-745.743,84.404,-668.897,-2.548,-0.604,-1.443
-743.719,82.715,-667.711,-2.581,-0.776,-1.470
-739.264,80.045,-663.163,-2.095,-0.651,-1.476
-738.410,80.100,-663.748,-1.091,-0.394,-1.265
-742.113,79.612,-663.511,-0.044,-0.213,-0.977
-745.404,81.320,-667.045,0.574,-0.040,-0.848
-743.671,81.521,-672.910,0.422,0.008,-0.866
-743.077,79.530,-674.628,0.146,-0.014,-0.902
-741.437,78.834,-678.415,-0.132,-0.175,-0.740
-739.000,76.000,-676.000,-0.560,-0.350,-0.630
-741.802,72.389,-672.889,-0.478,-0.346,-0.573
-740.061,71.407,-674.098,-0.185,-0.512,-0.532
-738.207,74.457,-672.679,-0.523,-0.941,-0.645
-739.472,76.601,-671.254,-1.154,-1.255,-0.454
-740.385,75.573,-670.911,-1.161,-1.358,0.194
-742.273,76.401,-672.401,-0.666,-1.398,0.609
-743.149,78.094,-672.946,-0.484,-1.241,0.627
-746.749,78.937,-672.011,-0.185,-1.055,0.568
-747.364,80.397,-672.778,0.369,-1.052,0.399
-746.934,83.270,-672.211,0.265,-1.004,0.228
-749.059,83.646,-668.279,-0.212,-0.968,0.234
-748.208,80.322,-666.698,-0.131,-0.990,0.313
-748.084,79.099,-666.685,0.719,-0.953,0.373
-747.886,81.432,-664.817,1.391,-0.723,0.515
-747.000,83.000,-666.000,1.680,-0.490,0.560
-744.573,82.141,-668.535,2.119,-0.489,0.429
-740.905,81.873,-672.592,2.286,-0.442,0.463
-737.958,82.102,-675.357,2.401,-0.410,0.505
-736.322,81.740,-673.995,2.116,-0.417,0.484
-737.066,79.787,-674.158,1.180,-0.448,0.480
-733.756,73.166,-675.524,0.732,-0.592,0.401
-731.125,67.890,-681.629,0.784,-0.713,0.345
-736.545,70.631,-687.774,1.094,-1.019,0.222
-738.756,75.004,-690.181,1.192,-1.394,0.094
-733.315,80.101,-692.765,0.722,-1.769,-0.050
-728.229,82.720,-688.070,0.064,-2.277,-0.277
-728.607,79.354,-683.570,-0.878,-2.707,-0.381
-730.157,79.168,-682.571,-1.670,-3.152,-0.440
-730.059,76.229,-682.204,-2.270,-3.553,-0.500
-732.000,74.000,-684.000,-2.940,-3.920,-0.630
-733.918,75.267,-683.635,-3.385,-4.352,-0.764
-733.426,73.789,-689.173,-3.565,-4.707,-0.769
-732.350,80.623,-690.995,-3.593,-5.163,-0.756
-734.048,81.250,-687.352,-3.974,-5.622,-0.602
-734.611,73.795,-687.762,-4.540,-6.070,-0.615
-734.298,76.215,-680.814,-4.886,-6.636,-0.896
-739.507,80.156,-674.772,-4.975,-7.020,-0.898
-743.891,80.166,-670.538,-5.506,-7.201,-0.709
-744.060,76.197,-664.943,-6.970,-7.268,-0.723
-743.746,71.808,-668.275,-7.154,-7.364,-0.978
-745.130,71.034,-670.184,-5.963,-7.462,-1.034
-750.807,76.176,-667.474,-5.288,-7.363,-0.793
-754.298,84.153,-663.456,-4.726,-7.376,-0.691
-752.689,87.030,-658.351,-4.679,-7.410,-0.704
-751.000,84.000,-656.000,-5.180,-7.280,-0.770
-748.290,78.420,-656.559,-4.729,-7.273,-0.784
-748.832,80.355,-660.176,-3.319,-7.290,-0.662
-752.205,90.384,-660.884,-2.128,-7.246,-0.563
-753.159,98.552,-658.481,-2.103,-7.144,-0.374
-754.310,97.195,-655.701,-2.793,-7.052,-0.284
-753.565,89.045,-652.163,-3.325,-7.068,-0.471
-753.088,82.650,-649.954,-3.650,-6.913,-0.641
-754.036,80.887,-651.726,-3.342,-6.789,-0.824
-754.125,84.711,-654.727,-2.762,-6.805,-0.973
-760.314,90.138,-654.953,-2.973,-6.718,-0.969
-764.296,94.292,-654.164,-3.716,-6.794,-1.046
-764.172,94.204,-648.685,-5.090,-6.863,-1.164
-768.157,88.971,-642.349,-6.997,-6.752,-1.203
-767.554,80.668,-636.987,-8.073,-6.622,-1.370
-767.000,76.000,-630.000,-8.470,-6.300,-1.680
-772.186,81.752,-627.198,-8.705,-5.921,-1.873
-776.194,88.884,-625.453,-8.262,-5.725,-1.954
-778.559,97.545,-625.080,-8.170,-5.484,-1.904
-781.666,108.474,-626.397,-8.847,-5.148,-1.727
-784.827,113.057,-625.210,-9.228,-5.008,-1.671
-784.640,115.598,-623.622,-10.067,-4.840,-1.576
-784.071,114.587,-621.869,-11.025,-4.530,-1.468
-785.877,105.675,-620.968,-10.712,-4.352,-1.473
-786.863,102.673,-622.517,-9.460,-4.129,-1.366
-787.070,110.596,-622.950,-7.905,-3.824,-1.201
-786.239,114.020,-620.258,-6.859,-3.540,-0.963
-785.637,115.130,-622.753,-6.029,-3.385,-0.775
-784.473,120.564,-622.788,-5.344,-3.329,-0.640
-784.107,120.417,-616.323,-5.797,-3.016,-0.290
-783.000,113.000,-618.000,-6.300,-2.660,-0.000
-776.564,99.460,-620.910,-5.622,-2.483,0.176
-779.097,84.491,-622.003,-4.627,-2.161,0.423
-786.080,75.653,-625.776,-3.466,-1.756,0.569
-780.447,74.116,-630.578,-1.377,-1.453,0.503
-774.559,79.765,-635.710,0.388,-1.139,0.381
-773.590,87.920,-640.123,0.995,-0.966,0.345
-769.664,96.650,-646.469,1.270,-1.064,0.271
-767.078,101.923,-649.070,0.855,-1.248,0.147
-765.662,100.522,-647.371,-0.674,-1.370,0.088
-761.723,99.129,-645.158,-1.861,-1.563,-0.079
-756.904,98.542,-642.202,-1.915,-1.842,-0.421
-754.028,97.686,-642.045,-2.110,-1.862,-0.408
-755.962,98.473,-641.876,-2.159,-1.835,-0.043
-759.487,101.646,-643.348,-1.405,-1.983,-0.117
-762.000,107.000,-643.000,-0.770,-2.030,-0.420
-762.942,113.238,-638.549,-0.793,-1.966,-0.479
-764.093,115.067,-635.266,-1.045,-1.993,-0.639
-766.987,110.521,-631.224,-1.026,-2.099,-0.725
-768.670,108.290,-631.926,-1.342,-2.062,-0.468
-773.190,105.127,-632.644,-1.366,-2.031,-0.355
-778.875,100.416,-632.075,-0.801,-2.014,-0.531
-780.047,102.229,-631.806,-0.791,-1.879,-0.555
-781.816,102.245,-627.314,-1.159,-1.757,-0.550
-783.105,98.594,-625.218,-1.507,-1.688,-0.737
-782.068,97.407,-623.157,-1.468,-1.618,-0.789
-782.398,99.950,-620.075,-1.391,-1.354,-0.756
-785.417,103.328,-618.081,-1.507,-1.076,-0.782
-787.024,105.991,-618.406,-1.296,-0.816,-0.750
-787.330,109.266,-620.190,-0.831,-0.429,-0.596
-793.000,108.000,-621.000,-0.350,-0.070,-0.350
-796.322,110.879,-620.504,0.012,0.184,-0.272
-792.144,116.286,-616.048,0.310,0.345,-0.341
-790.315,112.676,-614.109,-0.065,0.663,-0.325
-790.769,106.763,-613.291,-0.133,1.016,-0.212
-787.245,101.642,-615.676,1.418,1.314,-0.110
-786.301,107.336,-620.459,2.921,1.705,-0.049
-787.968,114.031,-617.721,3.690,2.134,0.162
-783.539,109.424,-616.938,4.356,2.562,0.408
-777.600,105.054,-615.824,5.126,2.867,0.484
-777.791,100.437,-612.889,5.942,3.255,0.525
-784.195,101.916,-613.904,6.741,3.674,0.653
-786.850,104.205,-619.109,7.769,4.010,0.876
-782.812,102.998,-630.720,8.633,4.371,0.995
-784.784,106.758,-637.257,9.123,4.574,0.978
-788.000,111.000,-635.000,8.050,4.760,0.980
-783.197,111.759,-632.987,4.874,4.843,0.871
-774.626,102.046,-634.737,1.615,4.717,0.673
-767.615,90.973,-639.060,-1.885,4.684,0.559
-767.492,84.420,-642.895,-5.602,4.677,0.339
-766.861,75.407,-651.018,-7.380,4.565,-0.118
-760.047,70.954,-663.240,-6.853,4.358,-0.475
-752.582,80.253,-663.552,-5.034,4.194,-0.561
-750.090,98.815,-657.308,-3.578,4.199,-0.562
-746.601,106.912,-654.532,-2.585,4.070,-0.511
-740.323,107.096,-653.829,-1.319,3.654,-0.377
-740.925,109.598,-661.501,-0.045,3.329,-0.060
-738.953,109.737,-667.509,1.495,3.115,0.243
-733.195,110.442,-666.159,2.339,2.889,0.141
-722.514,109.248,-662.300,1.943,2.972,-0.104
-704.000,98.000,-659.000,1.890,3.080,-0.350
-703.883,85.071,-659.070,3.271,2.890,-0.560
-719.864,83.136,-658.371,5.041,2.941,-0.377
-729.895,85.558,-663.447,5.879,3.079,-0.165
-732.438,86.536,-672.444,6.506,2.867,-0.356
-731.756,89.327,-677.211,6.671,2.675,-0.675
-735.093,94.460,-677.569,6.306,2.438,-0.871
-739.226,102.652,-673.681,6.216,1.915,-0.908
-741.768,107.129,-670.260,5.546,1.369,-0.847
-745.762,100.386,-666.599,4.400,0.878,-0.772
-751.210,91.584,-665.951,3.910,0.436,-0.841
-753.836,89.497,-668.288,4.332,0.026,-0.994
-754.771,93.728,-669.188,4.942,-0.410,-0.902
-761.035,100.622,-670.292,5.234,-0.835,-0.742
-762.741,99.365,-669.651,5.026,-1.340,-0.780
-762.000,98.000,-665.000,3.990,-1.750,-0.770
-764.186,97.900,-660.268,2.587,-2.039,-0.807
-760.174,89.819,-660.063,1.334,-2.518,-1.104
-759.285,87.011,-658.630,0.165,-2.843,-1.293
-761.108,85.960,-658.285,-1.120,-2.893,-1.421
-754.854,85.540,-660.611,-2.366,-3.139,-1.736
-750.775,88.294,-661.126,-3.785,-3.508,-1.909
-753.265,85.684,-663.166,-5.283,-3.804,-1.965
-755.873,82.213,-663.156,-6.378,-4.170,-2.027
-756.959,80.612,-660.702,-6.735,-4.501,-2.081
-755.848,85.092,-656.250,-6.108,-4.654,-2.130
-754.110,92.304,-650.915,-5.713,-4.756,-2.013
-759.202,99.487,-649.435,-5.153,-4.902,-1.947
-766.724,104.897,-647.089,-4.213,-4.968,-1.825
-767.853,103.654,-645.997,-4.609,-4.893,-1.587
-766.000,101.000,-644.000,-5.180,-4.970,-1.610
-761.847,92.448,-640.050,-5.089,-4.932,-1.619
-756.799,88.405,-641.792,-4.432,-4.763,-1.600
-756.236,94.924,-639.098,-3.230,-4.744,-1.572
-759.731,98.044,-633.223,-2.944,-4.371,-1.318
-758.619,99.199,-633.418,-3.234,-4.066,-1.143
-755.794,93.976,-633.982,-3.058,-3.934,-1.012
-758.232,85.625,-636.421,-2.214,-3.543,-0.826
-759.877,86.578,-644.372,-0.448,-3.425,-0.644
-764.245,93.910,-649.202,1.672,-3.455,-0.503
-770.434,103.093,-644.979,2.453,-3.287,-0.486
-769.442,107.997,-636.674,1.648,-3.182,-0.512
-767.069,101.384,-630.779,0.905,-3.261,-0.600
-767.357,88.162,-630.170,0.450,-3.154,-0.487
-772.008,81.505,-631.174,0.649,-2.910,-0.166
-776.000,80.000,-634.000,1.190,-2.730,-0.000
-770.017,82.230,-638.588,1.183,-2.477,0.012
-769.223,86.503,-638.848,1.341,-2.395,-0.110
-779.568,88.379,-634.751,0.903,-2.271,-0.127
-783.474,94.725,-628.562,-0.405,-2.100,-0.011
-781.135,94.322,-627.525,-1.740,-2.112,-0.019
-784.443,89.609,-631.951,-2.461,-2.093,-0.081
-793.774,93.468,-635.306,-2.441,-2.104,-0.065
-800.835,101.176,-640.637,-2.322,-2.224,-0.002
-798.433,114.163,-641.235,-2.356,-2.476,-0.007
-792.822,122.118,-633.892,-3.754,-2.543,0.087
-790.934,118.922,-627.250,-5.844,-2.550,0.167
-785.316,108.711,-626.174,-6.584,-2.747,0.133
-776.955,100.430,-628.306,-6.167,-2.664,0.260
-777.676,100.102,-623.790,-5.340,-2.317,0.360
-780.000,100.000,-616.000,-4.970,-1.820,0.490
-773.263,101.791,-613.891,-4.959,-1.378,0.627
-767.943,99.849,-614.887,-4.171,-1.019,0.653
-769.927,94.997,-614.108,-3.467,-0.282,0.858
-773.774,95.587,-611.329,-3.829,0.590,0.850
-774.906,91.243,-611.928,-3.608,1.151,0.634
-775.387,83.841,-618.756,-2.539,1.479,0.649
-780.529,85.440,-623.052,-1.292,2.011,0.786
-785.850,92.466,-621.995,0.063,2.624,1.094
-784.201,98.788,-624.862,0.676,3.002,1.315
-778.864,102.545,-628.760,1.253,3.335,1.368
-778.372,104.031,-632.652,1.839,3.519,1.432
-780.403,110.919,-637.751,1.860,3.615,1.340
-777.864,116.991,-637.856,1.632,3.613,1.237
-775.845,116.976,-642.019,0.829,3.389,1.186
-773.000,117.000,-646.000,-0.070,3.150,1.260
-767.461,110.542,-646.491,-0.713,2.965,1.395
-767.278,101.656,-650.008,-0.648,2.795,1.356
-768.634,97.783,-647.771,0.192,2.585,1.263
-765.520,96.515,-647.242,0.686,2.484,1.079
-760.016,95.016,-645.104,0.931,2.420,0.958
-760.875,89.605,-640.585,0.945,2.380,0.989
-763.985,87.086,-643.219,0.851,2.377,0.976
-759.475,90.681,-642.282,1.177,2.370,0.912
-755.859,93.668,-639.322,0.835,2.648,0.955
-757.392,94.292,-638.129,0.068,2.936,1.013
-757.771,93.164,-637.861,0.133,3.146,0.912
-758.932,93.893,-637.532,0.341,3.408,0.950
-762.999,98.585,-636.933,0.493,3.652,0.968
-762.782,102.450,-636.862,0.813,3.967,1.003
-764.000,105.000,-635.000,0.980,4.200,1.190
-766.085,106.777,-634.097,1.205,4.440,1.193
-766.985,109.375,-634.053,1.644,4.652,1.234
-774.255,115.672,-639.198,2.303,4.767,1.299
-770.942,122.799,-642.277,2.975,4.919,1.395
-762.884,128.851,-638.911,2.646,5.128,1.494
-762.858,126.326,-643.859,1.658,5.247,1.572
-757.447,116.303,-651.485,1.954,5.018,1.761
-753.905,110.349,-657.542,2.575,4.897,1.816
-757.190,104.043,-662.234,2.794,4.878,1.933
-758.300,95.311,-666.414,3.680,4.595,1.915
-753.470,91.668,-671.672,4.565,4.306,1.673
-752.544,95.204,-668.078,5.010,3.981,1.579
-755.073,98.370,-663.029,4.106,3.829,1.388
-748.493,96.603,-663.249,2.628,3.663,1.074
-739.000,94.000,-667.000,2.030,3.290,0.840
-734.121,91.109,-672.489,1.806,3.048,0.770
-735.890,93.522,-673.507,2.004,2.781,0.772
-738.163,95.640,-670.517,1.415,2.746,0.770
-736.570,88.071,-664.565,0.566,2.806,0.736
-731.444,80.881,-663.593,1.024,2.691,0.544
-726.368,80.972,-667.825,2.533,2.762,0.405
-729.472,94.511,-670.202,4.538,2.877,0.424
-734.772,113.870,-673.748,5.027,2.941,0.486
-735.435,123.050,-675.753,3.733,2.757,0.462
-732.667,125.898,-676.393,1.993,2.307,0.190
-731.978,124.097,-673.588,-0.649,2.019,-0.049
-732.849,114.405,-672.378,-3.396,1.730,-0.062
-730.194,97.576,-677.136,-3.631,1.248,-0.081
-734.394,86.122,-674.034,-2.626,0.965,-0.058
-744.000,85.000,-671.000,-2.240,0.980,0.000
-744.503,85.352,-674.597,-0.693,0.702,-0.117
-742.987,94.681,-675.274,1.241,0.319,-0.176
-747.773,106.853,-674.026,1.618,0.264,-0.028
-749.775,112.664,-670.829,0.792,0.050,-0.062
-742.332,115.042,-668.615,-0.377,-0.373,-0.285
-738.144,107.585,-670.376,-1.400,-0.682,-0.244
-744.538,99.686,-669.880,-1.809,-0.773,-0.143
-746.250,98.916,-669.842,-1.063,-0.891,-0.333
-743.650,100.591,-671.934,-0.146,-1.153,-0.439
-747.221,101.281,-670.639,0.447,-1.209,-0.288
-749.835,101.794,-669.537,1.112,-1.195,-0.122
-746.945,108.479,-669.927,1.540,-1.350,-0.250
-743.470,110.552,-668.197,1.306,-1.493,-0.564
-748.103,107.750,-665.660,0.417,-1.470,-0.545
-750.000,106.000,-664.000,-0.210,-1.680,-0.630
-741.785,98.340,-662.331,-0.573,-1.795,-0.629
-741.868,91.895,-660.267,-0.709,-1.359,-0.068
-742.697,89.947,-660.287,0.084,-1.254,-0.278
-739.890,90.997,-661.128,0.923,-1.358,-0.892
-746.289,94.160,-660.886,0.873,-1.160,-0.712
-752.617,96.566,-662.352,0.595,-0.948,-0.679
-750.769,100.378,-661.808,0.462,-0.992,-0.999
-750.738,105.647,-658.272,-0.518,-1.118,-1.173
-754.017,108.120,-655.943,-1.801,-1.148,-1.561
-750.818,107.042,-658.097,-2.197,-1.457,-1.978
-747.895,107.599,-662.091,-2.618,-1.828,-2.030
-752.477,107.769,-663.481,-2.934,-2.238,-2.040
-754.804,106.673,-667.314,-2.557,-2.596,-1.854
-750.078,105.948,-667.470,-1.748,-2.660,-1.314
-746.000,107.000,-663.000,-1.050,-2.590,-0.910
-747.402,107.414,-661.377,-1.206,-2.439,-0.720
-751.344,103.292,-657.293,-1.484,-2.841,-0.671
-751.490,99.932,-654.732,-2.209,-3.558,-0.799
-751.641,98.239,-654.698,-3.099,-3.703,-0.853
-756.760,97.826,-653.570,-2.843,-3.488,-1.009
-756.305,96.948,-654.067,-2.988,-3.308,-1.304
-755.004,100.362,-652.866,-3.276,-2.905,-1.249
-750.774,99.548,-652.847,-2.654,-2.663,-1.078
-743.073,95.366,-654.352,-1.686,-2.421,-0.382
-755.366,107.213,-649.760,-0.561,-1.528,-0.371
-766.276,105.681,-643.943,-1.098,-1.837,-2.077
-760.055,91.402,-647.941,-2.380,-3.309,-1.450
-755.227,91.046,-654.181,-1.157,-3.495,1.477
-759.385,97.408,-653.730,1.408,-2.208,2.497
-770.000,111.000,-653.000,2.800,-0.840,1.330
-766.807,118.390,-653.012,2.373,-0.414,-0.204
-756.354,111.126,-653.499,0.771,-0.569,-0.595
-753.879,102.313,-655.147,-0.454,-0.690,-0.576
-750.566,98.129,-656.651,-0.358,-0.489,-0.861
-746.863,94.552,-658.998,0.134,-0.517,-1.027
-747.369,92.998,-662.828,0.138,-1.127,-1.020
-749.098,92.927,-663.884,0.631,-1.395,-0.666
-750.776,94.454,-660.340,1.738,-1.083,-0.299
-753.301,105.497,-655.985,2.489,-0.778,-0.189
-747.536,111.545,-652.220,2.127,-0.871,-0.360
-740.992,108.926,-653.126,1.286,-0.846,-0.416
-745.774,101.767,-655.576,1.438,-0.577,-0.307
-747.829,91.422,-654.609,1.601,-0.343,-0.263
-748.421,90.293,-656.660,1.960,-0.123,-0.210
-752.000,91.000,-661.000,3.290,-0.210,-0.280
-753.742,93.062,-661.232,3.638,-0.227,-0.219
-755.053,100.143,-659.600,3.126,-0.214,-0.325
-754.148,104.863,-656.721,2.710,-0.450,-0.569
-753.470,105.980,-653.099,1.537,-0.453,-0.498
-750.429,99.322,-651.082,-0.412,-0.449,-0.534
-750.826,87.340,-648.584,-1.581,-0.577,-0.642
-755.139,80.882,-651.445,-0.957,-0.475,-0.629
-754.044,85.281,-655.886,0.334,-0.291,-0.630
-757.384,96.379,-656.602,1.126,-0.161,-0.585
-763.024,105.973,-658.156,1.056,-0.150,-0.462
-764.389,108.909,-656.253,0.433,-0.320,-0.374
-765.168,106.675,-653.920,-0.255,-0.317,-0.338
-764.480,104.441,-650.930,-0.812,-0.303,-0.370
-761.422,102.710,-650.251,-0.638,-0.430,-0.419
-759.000,101.000,-653.000,-0.350,-0.350,-0.280
-761.528,99.405,-656.454,-0.031,-0.338,-0.035
-762.071,95.996,-657.708,0.686,-0.369,0.167
-757.423,93.960,-656.014,0.998,-0.326,0.264
-751.710,93.814,-657.378,1.104,-0.377,0.307
-748.360,92.480,-652.687,0.905,-0.312,0.368
-752.146,91.729,-652.583,0.260,-0.285,0.335
-753.868,88.766,-652.899,-0.228,-0.275,0.276
-750.281,90.423,-656.348,-0.157,-0.212,0.214
-747.990,99.976,-661.475,-0.095,-0.206,0.205
-749.526,106.622,-660.509,-0.294,-0.251,0.212
-751.980,108.895,-665.420,-0.541,-0.292,0.238
-748.837,106.097,-658.229,-1.012,-0.325,0.280
-747.144,101.921,-667.505,-0.515,-0.682,0.190
-750.634,99.797,-661.664,0.036,-0.745,0.305
-753.000,100.000,-653.000,0.350,-0.700,0.280
-746.807,101.072,-671.280,0.630,-0.874,0.192
-737.444,98.287,-644.376,-0.100,-0.360,0.303
-745.672,88.743,-651.477,0.104,-0.208,0.190
-751.158,86.043,-664.955,1.096,-0.380,0.296
-743.987,101.145,-645.725,1.798,0.042,0.182
-752.883,102.452,-666.473,1.319,0.096,0.104
-754.366,100.522,-662.601,0.783,-0.153,0.276
-747.835,108.061,-658.949,1.074,-0.212,0.013
-754.216,100.440,-667.198,0.275,-0.150,0.099
-752.440,100.979,-654.278,0.288,-0.201,0.055
-751.571,101.607,-656.342,0.180,-0.393,-0.158
-754.471,94.220,-658.713,-0.425,-0.405,0.030
-752.532,94.123,-660.237,0.264,-0.457,0.061
-755.805,93.036,-662.764,0.541,-0.564,0.074
-759.000,98.000,-658.000,0.140,-0.490,0.000
-754.430,98.761,-659.340,-0.488,-0.534,-0.126
-745.130,94.826,-660.965,-0.729,-0.684,-0.240
-746.863,96.800,-657.833,-1.024,-0.720,-0.311
-752.998,99.486,-657.928,-1.459,-0.858,-0.249
-746.326,103.390,-651.659,-1.737,-0.893,-0.319
-741.906,101.858,-649.907,-2.072,-0.841,-0.342
-745.333,95.651,-655.087,-1.770,-0.830,-0.274
-748.816,95.697,-652.948,-0.737,-0.517,-0.153
-750.568,100.171,-659.734,0.631,-0.297,0.031
-753.285,103.101,-665.250,1.096,-0.198,0.178
-756.658,104.463,-664.755,1.231,-0.115,0.205
-756.402,100.614,-666.336,1.055,-0.338,0.068
-755.772,97.790,-664.105,0.300,-0.537,-0.008
-753.504,97.740,-662.876,0.218,-0.738,0.001
-752.000,94.000,-661.000,-0.000,-0.910,-0.000
-754.662,93.684,-660.770,-0.047,-0.906,0.001
-755.219,95.542,-661.416,0.208,-0.970,-0.002
-754.788,97.534,-659.583,0.179,-0.943,0.003
-754.292,100.602,-657.866,0.235,-0.904,-0.004
-752.198,102.498,-654.311,-0.153,-0.885,0.004
-753.608,101.296,-651.739,-0.719,-0.739,-0.004
-754.928,96.653,-653.185,-0.678,-0.699,0.002
-752.211,94.052,-654.090,-0.368,-0.577,0.004
-750.977,94.560,-652.840,-0.183,-0.374,-0.064
-750.049,96.939,-654.846,0.011,-0.308,-0.031
-746.738,99.816,-656.872,0.154,-0.225,0.017
-746.197,104.070,-659.419,0.438,-0.233,-0.013
-748.770,106.021,-662.497,0.652,-0.286,0.010
-750.023,104.922,-661.860,0.544,-0.286,-0.009
-749.000,105.000,-662.000,0.560,-0.420,-0.070
-747.991,102.449,-661.157,0.562,-0.551,-0.072
-748.614,100.971,-661.934,0.673,-0.600,-0.067
-749.953,100.865,-664.822,0.990,-0.743,-0.075
-751.883,101.979,-663.920,0.961,-0.952,-0.062
-753.387,102.010,-662.670,0.332,-1.087,-0.090
-753.780,92.308,-663.031,-0.294,-1.128,-0.152
-750.740,85.941,-661.802,-0.105,-1.196,-0.218
-750.708,88.712,-658.270,0.149,-1.198,-0.343
-754.684,92.136,-656.098,-0.150,-1.069,-0.355
-753.788,96.311,-655.494,-0.257,-1.048,-0.414
-751.738,100.360,-653.576,-0.533,-0.980,-0.581
-750.101,102.663,-652.809,-1.350,-0.715,-0.489
-750.372,101.340,-652.804,-1.323,-0.636,-0.422
-752.291,101.296,-651.954,-0.711,-0.607,-0.404
-755.000,103.000,-653.000,-0.630,-0.350,-0.210
-757.139,100.378,-653.939,0.096,-0.276,-0.081
-755.155,100.761,-654.628,1.079,-0.210,-0.016
-756.136,104.156,-655.483,1.246,-0.009,0.034
-756.101,102.446,-657.097,1.538,-0.041,0.122
-752.697,100.970,-661.782,1.778,-0.074,0.107
-751.977,102.009,-664.125,1.403,-0.177,-0.018
-751.993,98.607,-663.982,0.641,-0.282,0.002
-751.156,94.253,-663.102,0.094,-0.336,-0.061
-748.531,90.810,-663.292,-0.123,-0.580,-0.135
-746.871,89.000,-666.448,0.019,-0.730,-0.181
-747.904,92.687,-666.550,0.445,-0.847,-0.207
-751.162,96.970,-668.138,0.315,-0.965,-0.091
-748.354,102.804,-669.945,0.439,-1.223,-0.197
-747.813,103.510,-666.177,0.238,-1.492,-0.275
-756.000,101.000,-660.000,-0.700,-1.540,-0.280
-753.914,104.727,-655.272,-1.018,-1.721,-0.475
-751.221,101.601,-654.489,-1.369,-1.787,-0.411
-753.253,93.807,-651.790,-1.424,-1.627,-0.273
-751.780,91.598,-651.323,-0.829,-1.440,-0.297
-750.300,94.321,-653.544,-0.214,-1.263,-0.256
-748.763,96.027,-654.098,-0.103,-1.078,-0.198
-750.173,96.106,-655.068,-0.282,-0.977,-0.135
-750.202,97.966,-655.893,-0.208,-0.920,-0.074
-747.337,97.056,-657.699,-0.386,-0.782,-0.053
-746.742,98.740,-657.986,-0.358,-0.783,-0.203
-746.930,100.881,-657.948,-0.201,-0.690,-0.330
-746.725,101.534,-657.553,-0.040,-0.637,-0.209
-747.425,103.182,-658.844,0.198,-0.713,-0.125
-750.546,100.370,-662.343,0.386,-0.702,-0.056
-753.000,97.000,-662.000,0.420,-0.770,-0.000
-753.167,94.330,-661.892,0.012,-0.824,-0.055
-751.371,93.601,-662.059,0.347,-0.995,-0.176
-751.938,95.126,-662.302,0.430,-1.102,-0.232
-755.465,97.500,-663.168,0.131,-1.194,-0.207
-753.705,101.490,-662.552,0.434,-1.389,-0.338
-753.301,102.913,-659.892,-0.245,-1.393,-0.326
-753.911,99.585,-652.423,-1.092,-1.399,-0.286
-752.919,93.413,-648.948,-1.456,-1.275,-0.414
-754.866,90.180,-650.644,-1.222,-1.136,-0.426
-753.898,90.188,-652.030,-0.618,-1.009,-0.387
-756.044,93.994,-654.488,-0.751,-0.781,-0.270
-759.881,101.160,-657.218,-0.131,-0.813,-0.164
-756.451,104.790,-661.154,0.471,-0.828,-0.030
-753.943,108.765,-661.608,0.163,-0.859,-0.104
-754.000,111.000,-656.000,-0.070,-0.980,-0.280
-751.450,104.435,-650.392,-0.801,-0.919,-0.159
-749.822,95.428,-650.833,-1.009,-0.913,-0.094
-750.526,88.514,-653.881,-0.370,-0.815,0.029
-751.468,87.356,-653.040,0.037,-0.576,0.046
-753.620,91.815,-653.640,0.316,-0.450,0.010
-752.232,94.352,-656.534,0.526,-0.319,0.070
-751.204,97.375,-658.118,0.551,-0.285,-0.002
-756.610,102.687,-659.868,0.244,-0.409,0.065
-758.440,104.865,-661.560,-0.196,-0.533,-0.019
-755.737,105.208,-662.961,-0.518,-0.654,-0.195
-754.353,103.655,-661.858,-0.808,-0.770,-0.207
-755.399,101.010,-660.414,-0.898,-0.917,-0.215
-754.147,101.170,-659.475,-0.598,-1.097,-0.200
-751.797,99.447,-656.461,-0.597,-1.107,-0.124
-750.000,95.000,-653.000,-0.770,-0.980,-0.070
-745.446,92.167,-650.926,-0.365,-0.860,-0.138
-745.690,92.887,-653.577,0.142,-0.729,-0.050
-750.473,97.181,-657.323,0.510,-0.661,0.063
-754.672,100.090,-657.577,0.221,-0.567,0.074
-751.660,99.262,-656.759,-0.368,-0.468,0.042
-746.342,96.453,-658.527,-0.072,-0.497,-0.102
-748.273,98.454,-658.845,0.525,-0.407,-0.137
-750.867,105.604,-656.097,0.767,-0.280,-0.075
-752.086,106.694,-657.310,0.672,-0.382,-0.010
-750.314,103.289,-659.126,0.524,-0.494,0.006
-751.781,99.519,-657.611,0.426,-0.451,-0.002
-759.218,95.010,-654.079,0.293,-0.411,-0.002
-760.301,92.344,-651.527,0.316,-0.426,0.010
-756.561,90.921,-650.747,0.618,-0.414,0.082
-757.000,93.000,-648.000,0.840,-0.350,0.140
-759.157,98.153,-652.356,0.702,-0.342,0.144
-755.389,103.578,-662.629,0.944,-0.376,0.128
-753.969,106.559,-662.433,0.924,-0.197,0.193
-760.753,104.181,-657.847,-0.111,0.010,0.174
-759.859,100.885,-658.642,-0.304,-0.195,0.000
-751.312,98.445,-660.137,0.308,-0.442,-0.064
-751.374,96.965,-659.951,0.187,-0.341,0.085
-755.910,97.017,-659.043,0.186,-0.404,0.210
-753.880,96.228,-660.181,0.424,-0.554,0.153
-750.680,95.704,-663.159,0.399,-0.586,0.138
-748.291,97.201,-660.033,0.724,-0.681,0.114
-746.070,100.475,-655.230,0.589,-0.540,0.036
-746.102,100.282,-655.011,0.141,-0.518,-0.012
-747.312,96.526,-653.761,0.402,-0.539,0.014
-750.000,96.000,-654.000,0.420,-0.280,0.140
-750.931,96.948,-654.261,0.443,-0.211,0.148
-752.339,97.025,-653.212,0.638,-0.160,0.129
-752.684,96.917,-657.523,0.219,-0.163,0.155
-748.214,97.319,-661.272,0.103,-0.234,0.106
-747.258,98.482,-662.475,0.358,-0.204,0.050
-749.205,100.652,-664.055,0.320,-0.317,-0.018
-747.793,103.052,-661.786,0.120,-0.423,-0.072
-745.122,100.373,-660.964,-0.132,-0.421,-0.071
-745.991,97.010,-659.826,-0.009,-0.420,-0.072
-750.706,97.899,-656.736,0.293,-0.390,-0.032
-752.122,97.296,-658.236,0.413,-0.284,0.028
-752.101,97.570,-658.400,0.549,-0.323,-0.045
-753.007,99.169,-656.361,0.384,-0.306,-0.053
-751.863,96.301,-654.835,-0.047,-0.037,-0.001
-753.000,92.000,-656.000,0.140,-0.070,-0.070
-754.813,91.522,-660.423,0.887,-0.152,-0.016
-756.386,97.324,-662.778,1.206,-0.065,0.024
-757.071,105.600,-662.623,1.066,-0.145,-0.058
-753.895,108.730,-661.104,0.592,-0.292,-0.066
-753.159,104.832,-663.354,-0.240,-0.517,-0.078
-753.762,98.891,-666.128,-0.451,-0.746,-0.062
-750.765,98.154,-664.949,-0.127,-0.923,-0.075
-749.912,100.023,-665.102,-0.317,-1.045,-0.140
-751.011,97.133,-660.539,-0.626,-1.105,-0.079
-749.776,92.800,-655.910,-0.474,-1.142,-0.138
-747.478,92.146,-655.966,-0.167,-1.047,-0.288
-746.948,96.539,-653.662,-0.062,-0.928,-0.243
-748.430,100.575,-655.113,-0.330,-0.801,-0.209
-748.994,98.561,-659.509,-0.755,-0.780,-0.211
-749.000,98.000,-661.000,-0.910,-0.840,-0.280
-750.591,98.942,-661.923,-0.858,-0.775,-0.351
-752.453,100.184,-660.961,-0.627,-0.814,-0.339
-748.140,101.866,-657.641,-0.128,-0.858,-0.376
-742.680,99.250,-656.658,0.191,-0.799,-0.276
-745.736,97.546,-654.502,0.201,-0.602,-0.203
-747.827,95.388,-650.326,0.220,-0.396,-0.202
-745.936,93.905,-652.402,0.293,-0.420,-0.136
-747.685,88.718,-658.528,0.946,-0.233,-0.078
-753.924,82.751,-664.653,2.821,-0.060,0.055
-761.992,96.548,-669.110,4.210,-0.157,0.007
-760.076,116.144,-670.796,3.320,-0.369,-0.191
-753.717,120.543,-672.448,0.989,-0.895,-0.366
-756.350,106.254,-669.276,-1.837,-1.266,-0.677
-757.745,91.710,-663.241,-3.637,-1.521,-1.113
-754.000,89.000,-660.000,-3.360,-1.820,-1.330
-751.164,86.860,-658.099,-2.052,-1.771,-1.215
-751.009,93.120,-658.063,-0.481,-1.692,-1.081
-749.538,106.164,-657.173,0.914,-1.605,-0.992
-746.437,118.037,-657.383,1.264,-1.521,-1.001
-747.783,121.757,-659.755,0.329,-1.688,-1.081
-747.255,113.589,-659.445,-0.577,-1.730,-1.120
-743.931,102.016,-654.568,-1.079,-1.522,-1.042
-746.688,88.848,-651.064,-0.911,-1.341,-1.041
-748.339,82.324,-650.486,0.478,-1.176,-1.136
-747.106,82.530,-647.853,1.899,-0.888,-0.977
-750.717,88.895,-650.454,3.111,-0.624,-0.843
-756.293,99.752,-656.268,3.713,-0.547,-0.683
-759.496,104.835,-660.207,3.273,-0.563,-0.674
-757.280,104.687,-663.058,1.997,-0.564,-0.945
-752.000,100.000,-659.000,0.630,-0.700,-1.050
-750.054,94.599,-655.170,0.518,-0.842,-1.177
-749.806,91.601,-654.295,0.639,-0.740,-1.116
-751.698,89.854,-654.006,0.788,-0.653,-0.941
-756.238,87.777,-655.749,1.354,-0.575,-0.863
-758.479,87.256,-656.017,1.592,-0.449,-0.727
-760.432,89.478,-658.679,1.696,-0.420,-0.811
-760.941,91.209,-657.659,1.509,-0.420,-0.991
-759.231,96.501,-654.002,0.960,-0.419,-1.112
-753.812,100.274,-656.429,0.244,-0.465,-1.187
-747.977,97.289,-657.054,-0.365,-0.593,-1.158
-753.716,94.739,-657.622,-0.259,-0.644,-1.041
-758.917,93.055,-659.423,0.173,-0.623,-0.959
-755.936,89.911,-658.497,0.323,-0.633,-0.993
-756.412,86.598,-656.651,0.811,-0.629,-0.970
-759.000,87.000,-654.000,1.470,-0.630,-0.910
-757.699,93.072,-652.974,1.568,-0.577,-0.854
-751.275,95.819,-653.959,1.221,-0.449,-0.737
-745.006,92.170,-658.905,0.707,-0.428,-0.644
-743.782,90.744,-663.875,0.696,-0.562,-0.628
-745.804,90.902,-663.442,0.731,-0.509,-0.631
-746.905,89.561,-662.654,0.531,-0.420,-0.630
-746.019,86.742,-658.632,0.564,-0.493,-0.630
-748.699,84.088,-656.896,0.559,-0.429,-0.630
-751.606,84.481,-657.437,0.659,-0.353,-0.626
-753.276,87.883,-656.297,0.836,-0.351,-0.674
-753.506,93.555,-662.243,1.026,-0.349,-0.695
-750.591,97.244,-665.027,0.975,-0.358,-0.564
-751.743,97.850,-663.872,0.681,-0.479,-0.607
-752.972,94.102,-663.726,0.357,-0.737,-0.785
-753.000,88.000,-659.000,-0.070,-0.840,-0.700
-753.988,82.960,-653.691,-0.042,-0.780,-0.510
-754.310,76.790,-650.645,0.246,-0.725,-0.462
-756.744,77.922,-654.209,0.695,-0.593,-0.590
-755.396,84.600,-658.570,1.243,-0.384,-0.600
-754.072,92.561,-659.082,1.261,-0.376,-0.422
-756.117,101.185,-659.913,0.631,-0.407,-0.338
-752.622,96.170,-656.702,-0.585,-0.273,-0.277
-749.999,86.477,-655.833,-1.265,-0.337,-0.338
-750.713,82.404,-657.891,-0.660,-0.432,-0.435
-752.973,83.855,-657.727,0.324,-0.324,-0.284
-757.881,92.377,-658.486,0.666,-0.253,-0.125
-757.895,92.429,-658.954,0.451,-0.323,-0.027
-753.860,88.344,-658.862,0.444,-0.327,-0.012
-753.033,89.125,-657.819,0.390,-0.199,-0.073
-751.000,88.000,-658.000,0.140,-0.280,-0.000
-745.459,84.692,-659.833,0.059,-0.299,0.067
-746.389,80.447,-660.062,0.250,-0.201,0.109
-750.641,81.638,-660.197,0.549,-0.239,0.205
-750.046,86.459,-661.903,0.686,-0.146,0.177
-750.880,88.262,-663.145,0.644,-0.188,0.138
-756.211,87.907,-662.821,0.250,-0.285,0.126
-757.857,89.216,-661.901,0.068,-0.285,-0.010
-753.389,91.912,-660.124,-0.167,-0.413,-0.008
-750.687,91.395,-659.739,-0.677,-0.425,0.072
-753.525,89.647,-660.667,-0.517,-0.455,0.053
-755.659,88.366,-661.598,-0.367,-0.529,0.121
-753.573,90.309,-663.830,-0.088,-0.608,0.129
-751.514,92.200,-663.688,0.246,-0.729,0.173
-750.956,92.025,-664.239,0.035,-0.781,0.286
-750.000,92.000,-664.000,-0.070,-0.910,0.210
-747.333,90.157,-661.117,-0.475,-0.977,0.145
-746.654,90.129,-661.322,-0.836,-1.028,0.091
-747.480,88.327,-658.784,-0.817,-1.040,0.056
-748.979,86.443,-658.524,-0.834,-0.915,0.079
-751.285,87.227,-659.680,-0.402,-0.921,0.074
-747.981,86.996,-656.220,0.051,-0.780,0.165
-748.301,88.078,-656.101,-0.004,-0.553,0.209
-750.198,87.193,-656.093,0.246,-0.622,0.208
-747.498,85.105,-656.288,0.462,-0.601,0.260
-752.411,85.903,-659.502,0.288,-0.439,0.373
-752.942,89.199,-658.830,0.531,-0.426,0.446
-753.467,91.877,-658.469,0.254,-0.401,0.413
-760.572,91.814,-663.606,0.066,-0.463,0.532
-758.258,92.273,-664.778,0.510,-0.655,0.455
-757.000,96.000,-664.000,-0.140,-0.770,0.280
-758.242,98.271,-665.922,-0.685,-1.004,0.400
-755.182,94.383,-664.723,-0.921,-1.234,0.440
-751.259,90.978,-662.273,-1.548,-1.292,0.349
-749.197,88.471,-658.818,-1.438,-1.384,0.193
-750.477,86.835,-656.171,-0.924,-1.369,0.148
-751.002,88.285,-654.490,-0.467,-1.227,0.232
-752.137,87.954,-654.193,-0.274,-1.112,0.362
-753.019,88.847,-658.704,-0.095,-1.051,0.426
-752.906,90.563,-660.072,0.112,-1.056,0.295
-752.222,93.904,-660.436,-0.292,-0.998,0.291
-747.872,98.037,-660.456,-0.727,-1.003,0.198
-745.192,94.305,-657.529,-1.087,-1.059,0.165
-746.745,88.634,-657.171,-1.234,-0.928,0.311
-749.151,87.020,-658.113,-0.640,-0.834,0.269
-746.000,90.000,-658.000,0.210,-0.770,0.280
-743.422,94.712,-656.214,0.459,-0.586,0.338
-749.615,93.448,-656.277,0.138,-0.487,0.457
-750.387,88.884,-659.114,0.493,-0.531,0.477
-748.477,88.841,-663.003,1.093,-0.572,0.382
-753.126,94.183,-665.272,0.895,-0.559,0.454
-757.608,95.595,-663.190,0.354,-0.667,0.381
-756.753,91.729,-659.803,-0.334,-0.771,0.199
-753.987,90.030,-658.943,-0.769,-0.765,0.079
-757.656,90.471,-659.950,-0.462,-0.935,-0.003
-760.887,94.188,-658.840,-0.189,-1.020,0.083
-756.535,97.527,-656.546,-0.544,-0.915,0.182
-752.698,95.521,-655.348,-0.703,-0.927,0.068
-753.400,92.077,-653.116,-0.466,-0.878,0.011
-753.937,91.093,-652.223,0.132,-0.755,0.166
-753.000,94.000,-656.000,1.050,-0.700,0.280
-753.635,99.266,-657.124,1.070,-0.643,0.344
-756.434,101.708,-657.842,0.429,-0.565,0.318
-756.315,97.461,-661.001,0.026,-0.621,0.184
-753.149,93.136,-659.873,-0.313,-0.770,0.123
-751.044,91.138,-660.626,-0.242,-0.739,0.164
-748.576,88.521,-660.375,0.241,-0.697,0.217
-750.214,87.973,-656.798,0.341,-0.617,0.208
-748.518,86.192,-655.117,0.270,-0.430,0.209
-743.495,85.470,-655.124,0.555,-0.362,0.214
-748.559,88.617,-659.523,0.716,-0.294,0.203
-748.776,92.207,-657.769,0.376,-0.289,0.238
-749.317,94.661,-659.608,0.253,-0.236,0.333
-753.321,93.853,-671.001,0.801,-0.261,0.435
-749.434,99.432,-671.321,0.573,-0.611,0.219
-751.000,106.000,-667.000,-0.490,-0.700,-0.210
-752.430,100.299,-663.586,-1.005,-0.793,-0.297
-748.764,93.520,-660.578,-1.353,-1.090,-0.170
-747.985,87.956,-657.826,-1.604,-1.057,-0.089
-753.460,82.483,-654.356,-1.300,-0.907,-0.082
-757.098,82.909,-655.993,-0.494,-0.804,-0.180
-753.121,88.696,-658.357,0.278,-0.767,-0.203
-755.452,96.516,-658.932,0.483,-0.688,-0.133
-759.061,99.966,-655.369,0.054,-0.562,-0.070
-755.911,99.334,-652.852,-0.648,-0.619,-0.168
-752.145,96.873,-652.734,-1.010,-0.566,-0.294
-749.276,91.338,-651.516,-0.955,-0.363,-0.209
-749.107,88.649,-656.885,-0.199,-0.234,-0.074
-750.420,92.391,-660.890,0.596,-0.211,0.139
-752.232,93.857,-667.237,0.775,-0.206,0.198
-752.000,93.000,-668.000,0.630,-0.210,0.070
-752.549,94.940,-656.904,0.027,-0.332,0.069
-753.657,92.479,-657.032,-0.384,-0.405,0.030
-745.496,89.275,-657.572,-0.531,-0.471,-0.103
-744.587,91.862,-657.400,-0.958,-0.452,-0.348
-754.141,94.984,-656.623,-1.241,-0.299,-0.383
-754.218,95.933,-652.838,-1.055,-0.283,-0.168
-753.119,93.796,-658.514,-0.825,-0.198,-0.144
-754.096,92.895,-660.187,-0.464,-0.073,-0.205
-752.737,95.320,-658.182,0.071,-0.071,-0.277
-755.189,98.130,-657.012,0.286,-0.058,-0.177
-754.597,99.508,-658.990,0.744,-0.134,0.089
-749.863,98.288,-665.596,0.805,-0.257,0.109
-751.213,98.156,-665.112,0.161,-0.283,-0.048
-755.173,97.751,-664.168,-0.086,-0.377,-0.154
-750.000,95.000,-665.000,-0.350,-0.630,-0.280
-745.560,90.874,-662.475,-0.846,-0.773,-0.360
-750.879,84.616,-659.248,-1.047,-0.671,-0.231
-751.236,81.397,-654.601,-0.648,-0.577,-0.276
-749.017,83.680,-652.340,-0.286,-0.518,-0.364
-748.650,87.419,-655.515,-0.271,-0.351,-0.236
-749.701,92.485,-659.964,-0.097,-0.283,-0.308
-755.406,100.599,-664.314,-0.161,-0.356,-0.268
-756.253,104.111,-666.091,-0.589,-0.415,-0.200
-752.522,100.779,-663.596,-1.150,-0.525,-0.392
-751.503,98.044,-661.096,-1.380,-0.667,-0.425
-752.638,95.019,-657.443,-0.913,-0.715,-0.435
-752.189,94.088,-655.509,-0.491,-0.677,-0.350
-748.852,95.126,-656.058,-0.395,-0.601,-0.175
-746.890,93.647,-656.096,-0.262,-0.468,-0.226
-747.000,91.000,-658.000,-0.280,-0.350,-0.280
-747.806,89.003,-659.807,-0.195,-0.286,-0.278
-748.895,90.856,-660.802,0.213,-0.273,-0.289
-748.421,94.251,-661.310,0.212,-0.290,-0.236
-747.426,94.681,-662.660,-0.071,-0.265,-0.217
-748.715,91.755,-662.476,-0.151,-0.308,-0.325
-751.442,91.336,-662.214,-0.123,-0.351,-0.337
-750.830,93.042,-664.069,0.094,-0.353,-0.278
-749.842,92.937,-662.283,0.346,-0.419,-0.281
-754.093,94.765,-658.687,0.157,-0.366,-0.273
-754.163,93.486,-656.141,-0.074,-0.375,-0.330
-748.616,90.746,-656.643,0.243,-0.457,-0.358
-751.226,94.368,-658.571,0.485,-0.371,-0.335
-755.667,98.897,-659.148,0.463,-0.359,-0.246
-754.699,97.420,-660.097,0.033,-0.338,-0.221
-752.000,94.000,-660.000,-0.630,-0.280,-0.350
-749.062,93.965,-660.901,-0.432,-0.344,-0.358
-750.487,93.336,-659.780,-0.072,-0.313,-0.301
-750.160,92.836,-658.653,-0.108,-0.221,-0.229
-748.050,92.764,-661.082,0.034,-0.214,-0.213
-749.819,91.603,-660.666,0.176,-0.191,-0.187
-750.905,92.429,-664.118,0.217,-0.135,-0.142
-748.781,95.223,-664.700,0.205,-0.220,-0.214
-746.984,96.162,-660.974,0.140,-0.283,-0.150
-748.564,92.011,-664.303,0.280,-0.258,-0.065
-749.160,90.007,-664.556,0.571,-0.426,-0.150
-748.865,93.323,-664.045,0.646,-0.514,-0.286
-751.165,95.776,-664.783,0.600,-0.490,-0.206
-753.361,95.672,-661.986,0.251,-0.598,-0.047
-752.810,92.244,-659.671,-0.544,-0.623,-0.165
-753.000,87.000,-657.000,-1.050,-0.560,-0.210
-755.831,84.962,-655.125,-1.069,-0.508,-0.145
-753.682,85.689,-655.250,-0.804,-0.334,-0.098
-749.612,87.562,-658.840,-0.107,-0.245,-0.015
-754.833,94.112,-662.043,0.369,-0.310,0.017
-761.675,101.215,-661.733,-0.009,-0.260,0.104
-759.923,102.925,-663.652,-0.626,-0.411,0.028
-754.612,100.775,-666.117,-1.153,-0.641,-0.146
-749.426,98.145,-666.122,-1.332,-0.758,-0.081
-744.637,96.516,-663.597,-1.361,-0.902,0.048
-742.614,93.069,-662.234,-1.417,-0.891,0.126
-740.110,87.626,-664.653,-0.844,-0.999,0.125
-738.706,86.445,-666.022,-0.489,-1.019,0.005
-740.508,91.742,-664.387,-0.601,-0.882,-0.076
-739.561,92.580,-664.107,-0.824,-0.923,0.018
-737.000,89.000,-664.000,-1.260,-0.980,0.000
-741.651,87.340,-661.371,-1.418,-0.933,-0.189
-749.147,85.925,-659.989,-0.993,-0.782,-0.266
-749.997,93.446,-660.028,0.043,-0.819,-0.306
-753.990,103.570,-659.142,0.351,-0.790,-0.186
-761.216,104.529,-657.269,-0.091,-0.685,-0.041
-762.922,102.497,-656.922,-0.350,-0.801,-0.076
-761.904,99.785,-655.934,-0.882,-0.839,0.011
-760.162,98.052,-656.846,-1.004,-0.839,0.131
-758.829,97.315,-657.333,-0.733,-0.839,0.305
-760.438,95.655,-656.871,-1.194,-0.878,0.399
-759.487,93.923,-658.969,-1.421,-0.937,0.246
-755.332,92.298,-656.449,-1.051,-0.856,0.222
-756.403,92.250,-658.016,-1.290,-0.748,0.168
-751.693,94.404,-658.862,-0.917,-0.785,-0.021
-746.000,97.000,-663.000,-0.210,-0.910,0.070
-746.420,100.398,-671.120,-0.327,-1.039,0.395
-742.197,102.696,-665.409,-0.485,-0.983,0.281
-745.010,97.969,-664.240,-1.080,-0.794,-0.145
-745.600,93.035,-660.192,-0.950,-0.979,-0.179
-740.925,93.273,-655.918,-0.287,-0.986,-0.140
-745.158,92.870,-660.476,0.253,-0.731,-0.008
-745.858,95.410,-656.712,1.159,-0.695,0.294
-744.973,100.800,-658.639,0.768,-0.505,0.227
-744.951,99.244,-660.221,0.261,-0.463,0.031
-747.328,94.541,-661.764,0.370,-0.555,-0.069
-753.323,94.379,-664.895,0.361,-0.563,-0.004
-752.844,95.209,-658.365,0.570,-0.520,0.083
-752.310,94.652,-655.964,0.295,-0.399,-0.043
-754.153,92.731,-655.945,0.249,-0.516,-0.065
-754.000,94.000,-658.000,0.490,-0.560,-0.070
-754.839,99.346,-662.501,0.369,-0.546,-0.022
-754.615,102.265,-665.698,0.241,-0.665,0.083
-752.451,104.776,-669.197,-0.298,-0.804,-0.018
-751.156,102.933,-666.029,-1.184,-1.023,-0.104
-748.968,94.331,-657.609,-1.919,-1.009,-0.162
-747.818,84.802,-652.300,-1.920,-0.894,-0.108
-746.964,77.777,-653.230,-0.638,-0.832,0.084
-749.547,82.211,-655.887,0.964,-0.648,0.264
-754.770,92.889,-657.325,1.490,-0.398,0.466
-752.528,101.219,-661.246,1.299,-0.301,0.466
-749.290,106.640,-664.187,0.887,-0.454,0.366
-748.813,103.647,-662.906,-0.049,-0.478,0.337
-750.989,98.885,-659.923,-0.658,-0.520,0.242
-752.871,95.260,-656.596,-0.703,-0.547,0.128
-749.000,90.000,-656.000,-0.630,-0.420,0.140
-748.506,89.563,-656.897,0.066,-0.423,0.263
-752.125,93.932,-658.126,0.819,-0.324,0.337
-753.924,101.276,-661.078,0.872,-0.227,0.389
-752.691,104.801,-661.694,0.381,-0.177,0.441
-747.514,101.403,-660.616,-0.332,-0.136,0.380
-742.006,98.337,-661.112,-0.645,-0.131,0.260
-742.283,94.741,-660.961,-0.387,-0.068,0.287
-746.767,93.900,-660.940,0.044,-0.073,0.351
-747.888,94.362,-662.461,0.253,0.043,0.297
-749.498,93.201,-664.520,0.410,0.052,0.202
-752.813,96.650,-664.561,0.551,-0.058,0.039
-754.255,100.406,-663.552,0.392,-0.098,0.007
-753.374,102.491,-664.281,0.246,-0.265,-0.032
-750.575,101.618,-665.153,0.019,-0.362,-0.149
-748.000,100.000,-667.000,-0.280,-0.560,-0.140
-745.973,101.072,-668.136,-0.334,-0.821,-0.201
-747.629,98.904,-665.984,-0.590,-0.883,-0.175
-746.170,96.390,-662.499,-0.819,-1.009,-0.106
-742.356,92.648,-659.187,-0.646,-1.018,-0.210
-745.846,91.636,-657.204,-0.383,-0.847,-0.311
-749.444,97.275,-653.979,-0.082,-0.745,-0.356
-751.174,98.960,-650.989,-0.081,-0.540,-0.348
-752.965,98.921,-654.585,-0.090,-0.357,-0.288
-752.862,100.438,-658.554,0.282,-0.296,-0.166
-754.187,104.085,-660.526,0.425,-0.255,-0.086
-754.981,107.735,-664.343,0.430,-0.359,-0.034
-752.256,105.099,-666.247,0.335,-0.451,0.012
-749.242,100.694,-663.578,-0.061,-0.506,-0.005
-747.710,94.856,-656.988,-0.285,-0.475,-0.001
-744.000,87.000,-654.000,-0.000,-0.350,-0.070
-741.761,84.595,-656.541,0.775,-0.184,-0.082
-744.419,89.809,-659.130,1.504,0.138,-0.005
-745.247,96.140,-662.537,1.604,0.249,-0.007
-747.444,99.516,-667.889,1.287,0.152,0.016
-748.650,101.705,-671.848,1.016,0.002,-0.037
-746.846,101.705,-670.215,0.454,-0.171,-0.170
-750.397,98.674,-667.943,-0.239,-0.293,-0.288
-753.043,93.412,-667.156,-0.104,-0.541,-0.350
-751.959,90.546,-665.036,0.157,-0.688,-0.344
-752.719,94.852,-666.289,0.054,-0.773,-0.396
-752.057,99.139,-666.098,0.112,-0.940,-0.453
-750.116,100.539,-661.659,-0.252,-0.982,-0.528
-749.973,100.674,-658.027,-0.838,-0.984,-0.560
-748.625,97.441,-655.660,-0.889,-0.972,-0.564
-746.000,95.000,-653.000,-0.700,-0.840,-0.560
-745.766,92.375,-653.169,-0.372,-0.653,-0.383
-748.015,93.022,-661.389,0.464,-0.562,-0.224
-751.338,100.480,-666.804,1.201,-0.566,-0.237
-753.747,103.827,-666.676,0.656,-0.544,-0.314
-751.353,101.885,-666.651,-0.458,-0.611,-0.221
-747.237,96.332,-662.704,-0.981,-0.806,-0.156
-745.946,88.444,-657.702,-1.120,-0.756,-0.448
-744.198,83.210,-654.282,-0.761,-0.571,-0.637
-742.744,83.802,-651.136,0.291,-0.366,-0.318
-744.794,89.987,-653.336,1.291,0.069,0.071
-747.631,94.284,-660.089,1.854,0.323,0.188
-752.354,100.519,-664.757,2.249,0.363,0.200
-757.002,107.440,-669.428,1.973,0.315,-0.027
-757.979,106.396,-670.683,0.751,0.105,-0.310
-756.000,100.000,-666.000,-0.770,-0.140,-0.350
-749.976,90.292,-663.142,-1.498,-0.452,-0.119
-744.979,86.131,-662.797,-0.769,-0.568,0.056
-742.093,91.006,-663.957,0.197,-0.550,-0.218
-743.449,96.849,-665.622,0.543,-0.562,-0.202
-748.406,99.681,-665.775,0.498,-0.578,-0.046
-747.260,99.883,-664.516,0.099,-0.626,-0.063
-746.057,97.688,-661.779,-0.386,-0.480,-0.087
-746.119,91.532,-659.173,-0.817,-0.604,-0.475
-745.428,86.944,-657.849,-0.811,-0.805,-0.085
-748.516,90.291,-659.635,-0.114,-0.519,0.618
-747.617,96.951,-662.926,0.596,-0.366,-0.144
-747.842,99.496,-666.673,0.613,-0.311,-0.866
-751.841,98.612,-669.472,0.264,-0.311,-0.193
-750.559,98.030,-668.673,0.308,-0.518,0.457
-749.000,99.000,-665.000,0.280,-0.560,0.210
-749.893,96.171,-659.673,-0.218,-0.557,-0.281
-749.513,87.178,-657.013,-0.280,-0.527,-0.658
-748.165,83.554,-657.792,0.309,-0.375,-0.547
-750.759,87.915,-659.935,0.977,-0.149,0.056
-753.431,94.651,-659.185,1.307,0.063,0.299
-752.567,99.690,-659.720,0.794,0.046,0.066
-749.736,98.765,-665.375,0.028,-0.078,-0.226
-747.895,96.072,-666.173,-0.267,-0.138,-0.224
-751.327,97.282,-664.244,-0.412,-0.143,-0.028
-750.835,99.487,-662.258,-0.336,-0.136,0.046
-746.232,96.483,-659.371,-0.264,-0.146,0.120
-746.474,92.724,-661.091,-0.199,-0.120,0.123
-746.676,93.785,-661.745,0.468,-0.046,0.049
-746.145,97.589,-662.469,1.101,0.005,-0.007
-749.000,99.000,-667.000,0.980,-0.000,-0.000
-748.703,95.562,-668.081,0.600,-0.113,0.067
-742.680,93.263,-667.936,0.380,-0.265,0.063
-738.862,92.038,-667.402,-0.084,-0.269,0.095
-739.815,89.731,-666.873,-0.513,-0.356,-0.026
-743.395,89.225,-668.531,-0.288,-0.551,-0.156
-746.420,93.367,-668.970,-0.262,-0.546,-0.044
-747.008,99.355,-668.948,-0.492,-0.569,-0.079
-746.999,101.897,-665.466,-0.411,-0.696,-0.142
-747.606,102.463,-659.797,-0.902,-0.655,-0.084
-748.974,97.407,-657.368,-1.112,-0.574,-0.024
-747.947,89.667,-656.755,-0.236,-0.513,0.034
-749.184,90.547,-659.356,0.513,-0.321,0.119
-754.568,95.240,-661.312,1.177,-0.185,0.236
-757.124,98.563,-663.505,1.273,-0.129,0.196
-756.000,102.000,-665.000,0.560,-0.070,0.140
-752.511,99.847,-661.380,-0.175,-0.126,0.088
-749.762,94.350,-661.417,-0.717,-0.199,-0.006
-746.869,90.339,-662.160,-0.684,-0.218,0.078
-745.588,88.603,-662.046,-0.422,-0.183,0.202
-745.623,91.076,-663.236,-0.201,-0.112,0.339
-743.515,92.135,-664.616,-0.013,-0.067,0.422
-744.196,95.417,-670.509,0.545,-0.152,0.343
-746.847,100.663,-673.187,0.809,-0.279,0.283
-748.054,105.159,-668.262,-0.248,-0.218,0.225
-745.816,104.562,-664.239,-1.445,-0.314,0.168
-741.374,95.511,-663.960,-1.924,-0.549,0.066
-744.439,100.263,-663.391,-1.342,-0.520,-0.014
-749.824,104.095,-663.305,-1.648,-0.504,0.127
-746.007,93.317,-666.542,-2.798,-0.562,0.205
-742.000,87.000,-668.000,-1.680,-0.490,0.070
-744.539,85.531,-667.134,-0.079,-0.366,-0.009
-745.078,92.793,-665.722,0.773,-0.288,0.143
-740.520,101.628,-663.651,1.505,-0.278,0.320
-738.455,105.614,-665.009,1.042,-0.280,0.360
-741.132,102.773,-665.474,-0.198,-0.273,0.314
-743.172,95.860,-662.185,-1.033,-0.178,0.074
-742.988,94.987,-661.051,-1.019,-0.067,-0.068
-744.667,92.313,-661.985,-0.283,-0.073,0.120
-750.658,90.454,-661.828,0.695,0.085,0.326
-753.179,95.463,-663.695,1.564,0.234,0.363
-749.230,104.944,-666.164,1.968,0.130,0.359
-750.318,107.520,-667.963,1.149,0.015,0.480
-753.334,100.742,-672.239,0.009,-0.231,0.456
-751.692,95.196,-672.702,-0.401,-0.435,0.339
-751.000,89.000,-670.000,-0.910,-0.490,0.280
-748.764,85.936,-665.897,-0.987,-0.615,0.151
-743.185,87.822,-661.122,-0.327,-0.643,0.177
-741.631,92.853,-662.731,0.151,-0.595,0.260
-744.046,99.082,-663.786,0.373,-0.498,0.313
-743.346,101.341,-662.785,0.263,-0.383,0.348
-744.718,100.750,-664.356,0.042,-0.348,0.256
-748.189,100.000,-665.019,0.073,-0.350,0.209
-749.047,100.912,-665.038,-0.051,-0.289,0.209
-746.856,101.232,-664.697,-0.214,-0.205,0.258
-744.208,99.664,-667.406,-0.123,-0.297,0.339
-747.288,98.508,-670.324,-0.005,-0.405,0.349
-748.990,99.670,-671.367,-0.081,-0.419,0.356
-747.161,99.750,-671.685,-0.485,-0.436,0.331
-741.958,98.921,-668.415,-0.817,-0.588,0.180
-737.000,97.000,-665.000,-1.260,-0.630,0.000
-737.832,92.378,-660.459,-1.450,-0.439,-0.069
-737.956,93.426,-661.813,-0.862,-0.414,-0.036
-738.797,98.471,-667.769,-0.153,-0.367,0.122
-741.465,100.818,-666.608,0.125,-0.164,0.278
-744.910,100.925,-668.455,-0.180,-0.064,0.244
-741.446,101.061,-670.709,0.119,-0.275,0.116
-739.362,100.966,-665.587,0.100,-0.335,0.152
-745.945,100.131,-663.023,-0.114,-0.016,0.341
-738.425,96.929,-663.515,0.664,-0.031,0.274
-735.472,95.337,-667.009,0.185,-0.107,-0.010
-747.955,100.246,-670.691,0.073,-0.028,-0.063
-752.410,100.040,-670.865,0.578,-0.152,0.036
-750.010,101.174,-672.567,-0.335,-0.325,-0.043
-747.915,102.371,-671.426,-0.679,-0.437,-0.148
-749.000,94.000,-666.000,-0.560,-0.560,-0.210
-746.647,95.790,-660.761,-0.645,-0.580,-0.397
-744.492,100.733,-656.050,-0.425,-0.399,-0.411
-745.966,96.433,-654.296,-0.237,-0.275,-0.174
-745.866,95.800,-659.658,0.128,-0.098,0.018
-749.954,103.636,-667.348,1.099,0.004,0.078
-753.124,111.001,-668.869,1.278,-0.084,0.074
-750.700,109.652,-669.098,0.125,-0.071,0.145
-745.477,103.565,-669.191,-0.292,-0.197,0.084
-740.433,95.670,-665.052,-0.102,-0.240,-0.067
-740.279,90.083,-661.350,0.169,-0.101,0.013
-741.519,88.077,-661.880,0.940,-0.034,0.127
-742.001,91.902,-668.357,1.721,0.018,0.139
-741.935,101.976,-674.339,1.783,-0.016,0.144
-743.362,106.144,-677.394,0.907,-0.090,0.131
-744.000,106.000,-677.000,0.350,-0.350,-0.000
-739.672,102.212,-670.802,-0.381,-0.498,-0.073
-736.601,93.817,-668.144,-1.247,-0.455,-0.093
-734.617,90.183,-667.083,-0.519,-0.611,-0.265
-737.315,90.252,-668.318,0.373,-0.563,-0.197
-744.100,94.175,-673.980,0.675,-0.504,-0.032
-744.538,101.646,-676.104,1.044,-0.667,-0.094
-742.945,106.199,-675.938,0.786,-0.780,-0.224
-742.105,107.055,-673.328,-0.201,-0.965,-0.471
-741.052,104.935,-668.371,-0.965,-1.105,-0.626
-740.462,99.667,-661.791,-1.241,-1.137,-0.594
-738.892,92.721,-659.882,-1.317,-1.051,-0.488
-739.503,88.942,-665.632,-0.253,-0.931,-0.378
-741.626,91.389,-666.700,1.055,-0.772,-0.338
-744.521,98.076,-668.796,1.265,-0.540,-0.269
-747.000,103.000,-674.000,1.470,-0.700,-0.280
-747.024,104.764,-673.366,1.191,-0.968,-0.404
-746.587,105.572,-670.892,0.131,-0.969,-0.473
-743.450,101.792,-667.777,-0.467,-1.092,-0.560
-741.121,96.122,-666.231,-0.391,-1.247,-0.697
-742.572,93.228,-663.607,-0.099,-1.109,-0.660
-742.739,93.242,-663.814,0.240,-0.971,-0.540
-742.069,95.158,-670.468,0.896,-1.059,-0.484
-745.600,96.893,-672.986,1.331,-1.119,-0.358
-749.711,97.882,-673.691,0.983,-1.162,-0.380
-748.575,98.516,-673.767,0.363,-1.324,-0.571
-743.405,99.499,-671.146,-0.223,-1.519,-0.707
-740.099,97.796,-668.651,-0.844,-1.663,-0.814
-743.203,95.470,-664.556,-1.294,-1.666,-0.839
-743.584,93.586,-661.919,-1.391,-1.601,-0.843
-740.000,91.000,-664.000,-1.120,-1.540,-0.840
-739.790,93.237,-666.803,-0.625,-1.422,-0.780
-741.896,98.069,-666.596,-0.395,-1.291,-0.717
-745.295,99.211,-664.372,-0.562,-1.207,-0.687
-745.060,96.014,-664.467,-0.587,-1.201,-0.716
-743.992,95.711,-668.789,-0.147,-1.312,-0.672
-748.247,101.637,-670.783,0.149,-1.413,-0.628
-752.070,107.228,-666.626,-0.345,-1.397,-0.629
-747.672,104.637,-663.994,-1.333,-1.395,-0.626
-740.314,94.801,-665.501,-1.752,-1.510,-0.741
-742.845,90.629,-666.495,-1.109,-1.576,-0.800
-746.230,91.995,-664.041,-0.335,-1.426,-0.690
-745.413,94.281,-663.026,0.127,-1.294,-0.609
-744.550,98.112,-665.806,0.529,-1.361,-0.643
-744.313,100.235,-665.694,0.610,-1.395,-0.622
-749.000,102.000,-663.000,0.280,-1.330,-0.630
-748.662,101.548,-661.171,-0.044,-1.325,-0.705
-745.663,96.560,-660.715,-0.101,-1.342,-0.594
-747.499,93.025,-662.067,0.093,-1.260,-0.553
-747.133,93.509,-663.403,0.545,-1.108,-0.517
-745.281,94.158,-664.646,1.007,-1.047,-0.383
-745.106,95.460,-669.127,1.421,-1.155,-0.444
-747.243,98.242,-670.866,1.519,-1.262,-0.491
-749.932,100.933,-666.407,0.723,-1.198,-0.550
-747.604,97.870,-662.409,-0.449,-1.170,-0.678
-738.873,90.045,-661.668,-0.775,-1.261,-0.757
-734.362,90.254,-661.780,-0.326,-1.176,-0.730
-740.444,92.519,-659.933,-0.026,-0.943,-0.540
-746.033,93.841,-660.658,0.335,-0.818,-0.498
-747.042,97.228,-663.301,0.476,-0.756,-0.477
-747.000,95.000,-665.000,0.420,-0.630,-0.420
-748.403,96.181,-667.751,0.851,-0.673,-0.543
-752.983,100.700,-667.534,0.930,-0.827,-0.570
-754.011,100.361,-666.121,0.619,-0.851,-0.581
-751.207,99.747,-665.191,0.326,-1.046,-0.683
-749.619,98.189,-663.197,0.073,-1.223,-0.686
-751.674,96.895,-663.075,0.203,-1.184,-0.611
-752.908,96.990,-662.934,0.509,-1.269,-0.559
-750.988,96.116,-661.192,0.570,-1.270,-0.561
-754.107,94.379,-659.047,0.419,-1.130,-0.509
-754.186,93.185,-660.590,0.591,-1.165,-0.438
-748.684,92.322,-662.755,0.714,-1.156,-0.385
-750.608,89.505,-660.803,0.195,-0.955,-0.332
-751.207,87.878,-661.780,-0.176,-0.930,-0.370
-746.354,89.333,-664.158,0.033,-0.974,-0.424
-745.000,92.000,-664.000,-0.140,-0.840,-0.420
-745.854,94.727,-664.864,-0.594,-0.825,-0.416
-746.278,95.785,-664.561,-0.724,-0.910,-0.469
-744.568,96.398,-662.293,-0.916,-0.847,-0.511
-743.716,94.129,-658.537,-0.987,-0.666,-0.433
-743.431,89.455,-655.193,-0.774,-0.510,-0.308
-740.147,89.367,-657.816,0.120,-0.382,-0.284
-740.304,91.121,-658.981,0.855,-0.117,-0.275
-746.546,93.693,-662.325,0.820,0.070,-0.149
-749.825,98.087,-672.434,1.481,-0.082,-0.121
-750.916,100.999,-674.382,1.248,-0.269,-0.200
-752.481,98.524,-670.410,-0.436,-0.280,-0.223
-748.349,89.584,-667.715,-1.078,-0.484,-0.369
-746.091,84.001,-665.161,-0.827,-0.749,-0.506
-749.622,83.015,-662.680,-0.679,-0.681,-0.394
-753.000,87.000,-663.000,-0.350,-0.700,-0.280
-754.292,97.501,-666.682,0.121,-0.836,-0.275
-750.265,104.264,-666.050,-0.249,-0.793,-0.327
-748.538,104.723,-662.467,-1.285,-0.751,-0.398
-750.733,99.566,-658.622,-1.756,-0.814,-0.436
-746.509,92.229,-654.596,-1.540,-0.801,-0.375
-742.804,85.541,-654.279,-0.836,-0.471,-0.160
-746.412,83.183,-658.514,0.466,-0.279,-0.070
-750.805,91.130,-666.463,1.820,-0.288,-0.012
-751.423,101.398,-670.074,2.044,-0.101,0.139
-748.309,105.376,-669.468,1.070,-0.114,0.014
-745.320,102.823,-670.970,0.052,-0.403,-0.142
-744.470,96.903,-669.092,-0.707,-0.646,-0.129
-742.003,88.076,-661.402,-1.583,-0.574,-0.149
-739.770,79.996,-656.863,-1.662,-0.406,-0.132
-738.000,76.000,-660.000,-0.420,-0.350,-0.070
-739.036,81.083,-663.735,0.850,-0.113,-0.012
-747.153,94.873,-664.621,1.311,0.105,0.099
-748.886,100.880,-666.892,0.838,0.171,0.181
-745.136,100.816,-670.691,-0.055,0.048,0.039
-747.345,98.743,-670.028,-0.712,-0.112,-0.107
-750.258,95.539,-667.515,-1.102,-0.153,-0.153
-748.796,94.938,-665.866,-0.951,-0.293,-0.211
-746.997,93.967,-664.941,-0.523,-0.414,-0.148
-748.482,96.288,-666.684,-0.007,-0.481,-0.077
-749.858,98.417,-666.525,0.551,-0.491,-0.033
-749.448,100.362,-665.157,0.570,-0.517,0.050
-748.315,99.783,-664.389,0.259,-0.579,0.071
-747.978,92.475,-662.281,-0.240,-0.548,0.073
-747.945,86.323,-662.317,-0.466,-0.569,0.065
-748.000,85.000,-666.000,0.140,-0.630,0.000
-749.787,90.733,-667.219,0.517,-0.637,-0.008
-749.640,97.859,-665.809,0.026,-0.571,0.021
-747.102,99.253,-667.557,-0.697,-0.612,-0.092
-744.306,96.022,-669.990,-1.008,-0.812,-0.136
-742.492,95.442,-671.257,-0.948,-0.957,-0.028
-743.125,96.985,-670.514,-1.018,-1.076,-0.006
-741.772,93.675,-667.797,-1.199,-1.118,-0.078
-738.230,91.086,-664.386,-1.138,-1.056,-0.201
-737.347,90.103,-658.883,-0.801,-0.952,-0.279
-741.815,91.263,-657.293,-0.304,-0.722,-0.243
-745.681,96.377,-658.909,0.292,-0.532,-0.142
-745.875,100.473,-661.038,0.522,-0.451,-0.006
-747.646,100.509,-663.411,0.375,-0.298,0.087
-749.191,97.602,-662.843,0.352,-0.206,0.060
-751.000,97.000,-663.000,0.350,-0.210,-0.000
-750.516,97.117,-663.915,0.570,-0.206,-0.005
-747.661,96.717,-664.605,0.924,-0.258,0.048
-750.903,97.855,-665.967,0.989,-0.323,0.113
-753.083,97.545,-668.377,0.745,-0.396,0.176
-749.380,96.810,-672.643,0.508,-0.577,0.209
-748.093,95.506,-673.580,0.451,-0.816,0.114
-749.009,94.030,-669.769,-0.043,-0.916,0.070
-745.479,95.917,-668.947,-0.280,-1.099,0.010
-740.792,94.000,-669.025,-0.495,-1.314,-0.077
-744.640,90.995,-669.380,-0.955,-1.354,-0.009
-749.669,91.094,-670.704,-0.674,-1.520,-0.033
-750.794,91.876,-670.981,-0.551,-1.660,-0.092
-746.358,98.038,-670.646,-0.466,-1.799,-0.169
-745.414,98.356,-664.528,-0.979,-1.795,-0.209
-747.000,94.000,-655.000,-1.540,-1.610,-0.280
-743.489,94.008,-656.310,-1.356,-1.734,-0.537
-740.558,93.739,-656.923,-1.887,-1.602,-0.501
-741.100,94.613,-657.225,-1.201,-1.206,-0.209
-746.433,92.814,-663.559,-0.139,-1.070,0.067
-745.576,96.511,-658.565,-0.016,-0.890,0.130
-751.741,99.436,-659.630,0.322,-0.654,0.063
-749.372,92.643,-653.128,-0.121,-0.473,0.068
-747.537,93.811,-650.401,-0.367,-0.167,0.001
-748.739,91.389,-655.518,-0.067,0.109,0.097
-745.901,89.496,-656.249,0.298,0.218,0.249
-758.286,95.926,-667.274,0.737,0.409,0.325
-751.069,97.270,-663.632,0.878,0.507,0.338
-754.422,99.661,-670.843,0.748,0.484,0.264
-749.302,97.456,-663.959,0.303,0.391,0.283
-753.000,98.000,-666.000,0.420,0.140,0.210
-752.227,98.562,-664.173,0.186,0.122,0.138
-741.847,95.857,-656.045,-0.326,0.178,0.151
-752.677,95.430,-674.759,0.480,-0.002,0.115
-733.158,94.504,-660.159,1.341,-0.057,0.228
-755.742,103.176,-673.616,1.290,0.168,0.402
-736.042,97.133,-653.574,0.931,0.286,0.410
-737.482,91.092,-664.023,1.236,0.282,0.345
-738.826,91.271,-668.038,1.730,0.345,0.282
-732.484,91.878,-653.121,1.922,0.446,0.325
-764.030,98.347,-681.230,1.941,0.656,0.410
-711.783,91.606,-639.936,1.646,0.679,0.444
-780.230,97.361,-699.562,1.779,0.619,0.517
-715.446,87.482,-637.081,1.684,0.609,0.474
-786.879,101.045,-702.168,1.901,0.375,0.591
-751.000,100.000,-674.000,1.820,0.140,0.560
-79.623,10.686,-71.630,0.192,0.012,0.057
