acc_x[mg],acc_y[mg],acc_z[mg],gyro_x[dps],gyro_y[dps],gyro_z[dps]
-1003.000,-30.000,-62.000,0.560,-0.420,-0.420
-1045.124,-30.602,-65.353,0.406,-0.377,-0.313
-951.049,-25.735,-61.019,0.199,-0.282,-0.203
-1046.923,-28.829,-66.454,0.209,-0.244,-0.236
-962.178,-27.424,-62.562,0.030,-0.219,-0.380
-1027.827,-29.731,-66.079,-0.117,-0.296,-0.512
-984.439,-25.542,-63.363,-0.240,-0.170,-0.496
-1004.657,-23.095,-65.172,-0.357,-0.066,-0.645
-1004.925,-24.928,-63.235,-0.357,-0.006,-0.825
-992.093,-26.302,-64.766,-0.274,0.018,-1.024
-1014.660,-29.426,-67.163,-0.375,-0.092,-1.024
-989.058,-30.016,-64.728,-0.434,-0.212,-0.936
-1012.516,-30.319,-64.917,-0.433,-0.340,-0.859
-993.195,-31.180,-64.214,-0.510,-0.449,-0.765
-1004.667,-30.855,-67.232,-0.581,-0.487,-0.949
-1000.000,-29.000,-63.000,-0.910,-0.350,-1.190
-996.127,-24.853,-59.913,-1.353,-0.001,-1.592
-1003.761,-19.736,-59.609,-1.460,0.490,-2.197
-994.356,-19.891,-59.160,-1.206,0.867,-2.791
-1006.967,-24.938,-63.400,-1.115,1.122,-3.413
-997.574,-29.491,-65.752,-1.243,1.462,-3.810
-1003.299,-31.052,-68.630,-1.349,1.611,-3.726
-1000.225,-31.077,-68.914,-1.318,1.453,-3.488
-1000.319,-33.735,-68.884,-1.071,1.211,-3.433
-1003.504,-37.099,-70.647,-0.786,0.874,-3.251
-999.892,-41.961,-72.305,-0.355,0.361,-2.639
-1004.014,-45.698,-73.486,-0.130,-0.190,-1.778
-999.727,-43.369,-72.182,-0.317,-0.563,-1.167
-1000.397,-40.278,-70.509,-0.434,-0.747,-0.800
-998.653,-38.792,-68.698,-0.415,-0.952,-0.437
-1001.000,-37.000,-67.000,-0.350,-1.260,-0.140
-1001.524,-33.636,-66.091,-0.119,-1.346,0.110
-999.172,-29.813,-65.367,0.131,-1.213,0.220
-998.688,-28.048,-64.189,0.054,-1.166,0.091
-1000.265,-28.333,-64.249,0.009,-1.006,-0.307
-1001.818,-29.502,-65.622,0.090,-0.750,-0.677
-999.691,-31.621,-67.286,0.063,-0.605,-0.881
-1001.088,-34.099,-66.893,0.070,-0.563,-0.980
-1001.015,-33.173,-66.011,0.007,-0.688,-0.854
-1002.055,-31.887,-65.390,-0.018,-0.733,-0.714
-999.434,-32.714,-64.361,0.090,-0.514,-0.718
-997.793,-33.724,-66.556,0.219,-0.319,-0.892
-1001.414,-36.176,-66.629,0.319,-0.266,-0.999
-1001.653,-36.989,-67.782,0.357,-0.310,-0.834
-1000.921,-37.035,-68.758,0.344,-0.530,-0.510
-1000.000,-36.000,-66.000,0.280,-0.700,-0.350
-1000.626,-34.017,-66.079,0.219,-0.646,-0.531
-1002.818,-34.841,-64.304,0.192,-0.533,-0.594
-1001.998,-34.547,-65.480,0.276,-0.390,-0.464
-999.175,-33.088,-67.286,0.201,-0.345,-0.411
-997.667,-29.206,-65.550,0.036,-0.327,-0.599
-999.414,-27.118,-67.612,0.190,-0.170,-1.008
-999.997,-30.265,-67.910,0.279,-0.067,-1.351
-1000.871,-32.827,-67.866,0.275,-0.067,-1.533
-1001.405,-34.848,-69.802,0.304,-0.125,-1.550
-999.069,-34.352,-69.589,0.133,-0.157,-1.551
-999.690,-34.277,-67.843,0.044,-0.094,-1.770
-1001.231,-35.418,-66.641,0.077,-0.080,-1.899
-1000.635,-36.439,-67.362,-0.067,-0.165,-1.676
-999.952,-36.742,-67.969,-0.314,-0.117,-1.715
-1000.000,-33.000,-67.000,-0.490,0.070,-1.960
-999.963,-32.647,-66.911,-0.676,0.133,-2.132
-1001.155,-34.653,-67.105,-0.728,0.234,-2.361
-1003.204,-36.054,-67.266,-0.662,0.318,-2.307
-1000.976,-37.548,-68.588,-0.781,0.234,-2.206
-998.263,-36.332,-67.140,-0.861,0.374,-2.307
-999.275,-34.487,-65.854,-1.045,0.706,-2.707
-1000.056,-31.874,-64.920,-1.265,1.001,-3.181
-1000.957,-33.671,-65.784,-1.196,1.245,-3.543
-1000.969,-36.254,-67.377,-1.230,1.386,-3.772
-1001.159,-34.706,-65.524,-1.353,1.377,-3.871
-998.743,-36.724,-68.084,-1.471,1.275,-4.519
-996.988,-38.487,-68.445,-1.382,1.472,-4.902
-1002.684,-41.442,-68.643,-1.147,1.860,-4.822
-1001.153,-46.553,-71.172,-1.298,2.140,-4.902
-999.000,-48.000,-72.000,-1.330,2.310,-4.620
-1004.572,-52.047,-76.423,-0.914,1.882,-3.821
-1003.258,-57.292,-78.492,-0.503,0.917,-2.453
-1000.226,-57.953,-81.042,-0.307,0.088,-1.282
-998.913,-55.092,-81.324,-0.289,-0.511,-0.515
-997.874,-49.707,-77.541,-0.408,-0.867,-0.001
-1000.606,-43.701,-74.176,-0.483,-0.896,0.078
-1000.911,-39.825,-72.011,-0.256,-0.841,0.225
-1000.024,-39.003,-73.888,-0.011,-1.024,0.347
-999.353,-38.993,-73.990,0.110,-1.402,0.365
-997.374,-39.081,-74.891,0.188,-1.560,0.169
-996.719,-38.254,-73.314,-0.038,-1.475,-0.312
-999.484,-35.826,-69.807,-0.294,-1.294,-0.729
-1002.357,-35.254,-70.343,-0.239,-0.937,-0.973
-1000.578,-38.730,-71.149,-0.030,-0.767,-1.142
-999.000,-44.000,-73.000,0.280,-0.840,-1.190
-999.705,-49.292,-75.569,0.371,-1.010,-1.078
-1001.826,-52.164,-77.401,0.182,-1.274,-0.782
-999.902,-50.025,-74.487,0.118,-1.408,-0.262
-996.867,-45.439,-72.578,0.189,-1.586,0.081
-1000.454,-42.221,-72.899,0.359,-1.844,0.269
-1000.435,-43.603,-71.849,0.627,-1.966,0.270
-1000.182,-44.986,-71.992,0.845,-1.886,0.448
-1001.223,-44.082,-71.087,0.600,-2.128,0.589
-997.171,-41.964,-69.660,0.122,-2.545,-0.124
-999.895,-37.739,-66.031,0.083,-2.078,-0.425
-1002.415,-37.064,-64.765,0.238,-1.617,-0.262
-999.461,-36.331,-64.599,0.472,-1.574,-0.317
-998.869,-36.682,-64.383,0.668,-1.187,-0.525
-997.867,-40.514,-67.372,0.702,-0.882,-1.058
-999.000,-43.000,-68.000,0.630,-0.770,-1.260
-1001.676,-47.395,-70.521,0.327,-0.816,-1.203
-1003.023,-48.686,-71.527,0.110,-0.926,-1.016
-1001.765,-46.413,-70.438,-0.044,-0.815,-0.677
-1000.294,-45.973,-71.553,-0.231,-0.779,-0.435
-1001.359,-45.873,-70.219,-0.287,-0.877,-0.193
-1001.929,-44.511,-68.698,-0.274,-0.913,-0.031
-1000.872,-41.803,-66.848,-0.201,-0.907,0.231
-999.081,-40.074,-65.995,-0.016,-0.787,0.296
-999.549,-39.780,-65.380,0.131,-0.542,-0.008
-1000.819,-41.709,-64.787,0.169,-0.345,-0.182
-1000.657,-45.246,-69.058,0.269,-0.188,-0.253
-1000.973,-47.802,-71.165,0.054,-0.130,-0.274
-1000.849,-45.947,-69.632,-0.276,-0.148,-0.164
-1001.076,-42.675,-70.134,-0.271,-0.231,0.034
-1001.000,-42.000,-70.000,-0.210,-0.350,0.210
-1000.891,-42.646,-69.871,0.079,-0.291,0.267
-1001.246,-45.987,-70.794,0.353,-0.308,0.457
-999.973,-48.033,-71.490,0.234,-0.441,0.790
-1000.158,-47.878,-72.551,0.060,-0.578,1.043
-1001.203,-48.093,-73.257,-0.032,-0.931,1.456
-1002.049,-47.812,-74.157,-0.063,-1.349,2.129
-1000.847,-45.805,-73.974,0.085,-1.709,2.851
-999.945,-44.882,-74.868,0.209,-2.134,3.337
-1000.922,-46.960,-74.818,0.162,-2.581,3.579
-1000.760,-44.759,-70.336,-0.006,-2.797,3.883
-1000.689,-40.672,-67.880,-0.393,-2.766,4.078
-998.845,-37.061,-65.799,-0.630,-2.683,3.987
-999.625,-31.157,-63.417,-0.750,-2.405,3.646
-1000.954,-27.806,-61.713,-0.927,-1.963,3.047
-1000.000,-28.000,-61.000,-0.910,-1.540,2.380
-999.376,-26.509,-62.831,-0.955,-1.057,1.829
-996.281,-23.432,-62.955,-1.142,-0.569,1.234
-997.406,-22.867,-64.013,-1.231,-0.073,0.282
-999.200,-23.590,-65.865,-1.082,0.310,-0.711
-999.123,-28.427,-68.138,-0.778,0.298,-1.283
-1001.252,-33.847,-71.693,-0.292,-0.024,-1.384
-999.852,-36.227,-73.037,0.162,-0.532,-1.173
-999.893,-39.819,-73.046,0.276,-0.961,-1.053
-1000.248,-39.554,-72.155,0.304,-1.059,-0.958
-999.415,-37.922,-71.570,0.062,-0.976,-0.743
-1000.929,-38.197,-69.302,-0.173,-0.764,-0.697
-1002.227,-37.615,-67.686,-0.090,-0.543,-0.662
-1001.284,-36.713,-67.834,-0.069,-0.488,-0.528
-998.797,-35.895,-65.659,0.020,-0.484,-0.583
-1000.000,-35.000,-65.000,0.070,-0.350,-0.770
-1000.225,-33.984,-64.214,0.060,-0.107,-1.006
-999.579,-34.812,-64.160,0.134,0.129,-1.310
-1000.419,-34.519,-67.518,0.129,0.402,-1.579
-998.702,-34.010,-70.378,0.193,0.491,-1.771
-999.856,-35.766,-72.968,0.334,0.223,-1.815
-1002.056,-37.289,-73.963,0.436,-0.046,-1.723
-999.772,-38.000,-72.914,0.414,-0.143,-1.601
-998.025,-37.101,-72.062,0.351,-0.141,-1.539
-998.609,-36.129,-71.179,0.316,-0.144,-1.638
-1000.325,-35.453,-70.466,0.061,-0.040,-1.851
-1000.710,-33.746,-68.320,-0.257,0.286,-2.183
-998.813,-30.291,-64.047,-0.586,0.705,-2.738
-997.983,-29.376,-63.455,-0.913,1.458,-3.574
-1000.629,-33.835,-66.423,-0.887,2.168,-4.447
-1004.000,-39.000,-69.000,-0.770,2.170,-4.620
-1001.688,-44.277,-74.188,-0.717,1.761,-4.022
-998.243,-47.545,-77.125,-0.618,1.168,-3.551
-998.169,-49.108,-76.709,-0.773,0.664,-3.439
-1000.038,-50.332,-76.836,-1.050,0.509,-3.202
-1002.433,-47.405,-73.413,-1.292,0.493,-2.926
-999.881,-43.034,-72.107,-1.610,0.594,-2.879
-995.854,-38.646,-71.840,-1.836,0.789,-3.114
-996.775,-35.125,-69.130,-2.084,1.154,-3.792
-1000.230,-35.423,-68.835,-2.054,1.526,-4.315
-1002.087,-39.007,-70.003,-1.558,1.349,-4.259
-1000.976,-44.290,-72.861,-1.246,1.002,-4.120
-1001.040,-49.401,-74.537,-0.963,0.807,-3.781
-1000.551,-56.382,-77.101,-0.610,0.300,-3.025
-1000.132,-62.619,-80.303,-0.482,-0.291,-2.100
-1001.000,-63.000,-81.000,-0.490,-0.770,-1.330
-999.204,-59.656,-80.380,-0.611,-1.148,-0.779
-999.467,-54.821,-77.003,-0.692,-1.394,-0.308
-1000.246,-48.268,-74.239,-0.706,-1.598,-0.115
-999.104,-41.877,-71.324,-0.680,-1.568,-0.240
-999.035,-39.563,-69.626,-0.572,-1.548,-0.539
-1000.102,-38.743,-68.738,-0.259,-1.518,-0.720
-998.828,-38.000,-69.164,0.088,-1.392,-0.779
-997.904,-38.871,-71.003,0.203,-1.214,-1.082
-999.784,-41.858,-70.578,0.327,-0.838,-1.681
-999.289,-46.864,-74.380,0.305,-0.689,-2.122
-998.563,-48.043,-76.688,0.030,-0.712,-2.207
-999.169,-45.980,-75.396,-0.080,-0.690,-2.446
-1000.117,-44.899,-74.884,0.045,-0.719,-2.610
-998.614,-46.324,-75.079,0.154,-0.869,-2.684
-998.000,-47.000,-74.000,0.210,-0.980,-2.940
-1000.074,-45.169,-71.070,-0.010,-0.869,-3.448
-997.609,-44.490,-71.557,-0.325,-0.614,-4.254
-997.642,-42.058,-67.335,-0.376,-0.138,-4.551
-998.786,-40.694,-64.328,-0.758,0.534,-5.141
-995.621,-41.044,-64.659,-1.332,1.554,-6.650
-996.761,-41.071,-61.275,-2.007,2.845,-8.294
-1001.321,-40.913,-59.883,-2.856,4.554,-9.909
-1003.084,-39.933,-57.138,-3.393,6.205,-10.872
-1000.604,-42.978,-59.430,-3.936,7.205,-11.553
-998.415,-47.498,-66.038,-4.340,8.159,-12.517
-997.118,-55.960,-71.293,-4.498,8.823,-13.379
-999.715,-66.235,-78.306,-4.519,9.123,-13.639
-1003.507,-73.400,-85.262,-4.094,8.750,-12.684
-1001.580,-84.967,-94.508,-3.381,7.837,-11.172
-1000.000,-95.000,-103.000,-2.590,6.650,-9.380
-998.133,-101.869,-110.825,-1.863,4.613,-6.925
-1000.263,-108.158,-115.941,-1.080,2.406,-4.072
-1004.004,-108.611,-114.756,-0.408,-0.153,-0.622
-999.679,-103.743,-112.976,-0.014,-2.657,2.807
-996.217,-93.610,-106.748,0.333,-4.378,5.214
-997.349,-82.694,-96.860,0.529,-5.622,6.832
-999.128,-73.256,-89.498,0.880,-6.271,7.908
-999.168,-63.677,-83.396,1.434,-6.884,8.698
-996.370,-55.686,-79.610,1.811,-7.219,9.073
-995.807,-49.258,-76.524,2.180,-7.055,8.549
-995.119,-47.720,-72.864,2.414,-6.639,7.572
-995.820,-47.395,-71.767,2.287,-5.984,6.470
-999.821,-43.897,-70.158,2.003,-5.175,5.193
-997.227,-41.692,-66.494,1.615,-4.009,3.750
-994.000,-38.000,-65.000,1.260,-2.800,1.960
-994.015,-34.973,-65.012,1.022,-1.470,-0.103
-994.874,-36.927,-65.392,0.712,-0.276,-2.054
-998.798,-41.079,-68.576,0.551,0.581,-3.666
-999.573,-48.120,-73.940,0.558,1.378,-4.827
-998.649,-55.918,-78.677,0.436,1.644,-5.410
-999.133,-63.922,-83.042,0.445,1.580,-5.507
-1001.248,-71.491,-87.263,0.564,1.135,-4.973
-1003.086,-76.674,-88.981,0.560,0.335,-3.874
-1000.444,-79.212,-88.976,0.614,-0.321,-2.616
-999.789,-76.399,-88.686,0.638,-1.122,-1.294
-998.858,-73.986,-86.254,0.668,-1.697,-0.237
-997.708,-73.687,-84.509,0.866,-2.108,0.593
-999.472,-70.992,-83.344,0.876,-2.677,1.444
-1000.010,-67.317,-79.335,0.668,-2.875,2.117
-999.000,-61.000,-76.000,0.490,-2.870,2.520
-995.331,-55.452,-72.525,0.302,-2.765,2.501
-996.480,-53.499,-70.777,0.255,-2.485,1.973
-1000.425,-52.015,-71.314,0.358,-2.118,1.299
-1000.428,-52.910,-71.038,0.541,-1.879,1.067
-999.300,-56.641,-74.819,0.932,-2.052,1.144
-997.650,-60.796,-77.103,1.116,-2.060,0.987
-998.119,-61.971,-78.210,0.890,-1.805,0.680
-999.019,-61.079,-80.105,0.769,-1.749,0.619
-998.238,-59.525,-76.615,0.827,-1.755,0.817
-996.964,-57.800,-76.777,0.880,-1.741,0.747
-997.834,-59.138,-78.792,0.981,-1.817,0.484
-1001.157,-60.042,-76.980,1.105,-2.140,0.604
-1000.086,-58.175,-75.635,1.237,-2.426,0.915
-997.826,-54.379,-73.606,1.429,-2.264,0.771
-997.000,-52.000,-71.000,1.540,-1.960,0.000
-996.715,-52.826,-69.885,1.541,-1.608,-0.870
-999.370,-53.743,-71.523,1.509,-1.162,-1.466
-1000.052,-54.264,-72.129,1.314,-0.864,-1.914
-999.498,-53.564,-72.467,1.069,-0.666,-2.289
-998.199,-54.873,-74.968,0.945,-0.510,-2.522
-998.311,-57.606,-76.124,0.908,-0.507,-2.587
-1000.043,-61.374,-77.115,0.908,-0.639,-2.431
-999.087,-64.962,-78.034,0.786,-0.696,-2.186
-998.906,-63.397,-76.463,0.542,-0.848,-2.004
-998.746,-62.912,-75.148,0.396,-1.054,-1.811
-999.747,-62.611,-74.246,0.552,-0.987,-1.666
-1000.983,-64.889,-72.217,0.782,-1.031,-1.343
-999.402,-70.032,-73.881,0.724,-1.140,-0.706
-999.037,-67.137,-74.813,0.529,-1.208,-0.231
-999.000,-63.000,-73.000,0.350,-1.330,-0.070
-999.787,-62.872,-73.086,0.335,-1.330,-0.012
-1000.267,-63.834,-71.953,0.419,-1.380,0.133
-999.462,-63.604,-73.731,0.406,-1.409,0.397
-1000.215,-62.465,-74.878,0.447,-1.398,0.546
-999.255,-61.291,-71.953,0.365,-1.388,0.562
-999.101,-58.473,-72.354,0.283,-1.306,0.553
-998.903,-59.171,-72.965,0.351,-1.181,0.484
-997.957,-60.066,-72.068,0.284,-1.179,0.483
-999.591,-59.666,-71.743,0.410,-1.363,0.644
-1000.550,-61.527,-73.923,0.783,-1.566,0.980
-1001.235,-62.627,-75.804,1.078,-2.185,1.586
-999.392,-65.626,-76.706,1.228,-2.621,2.044
-996.471,-66.809,-79.737,1.013,-2.485,2.098
-998.485,-64.638,-77.157,0.662,-2.715,2.200
-1000.000,-61.000,-72.000,0.630,-2.870,2.450
-999.145,-53.931,-69.400,0.748,-2.852,2.597
-998.134,-50.795,-67.192,0.990,-2.959,2.336
-998.604,-51.799,-67.125,1.420,-2.813,1.790
-1000.657,-51.753,-66.445,1.554,-2.640,1.464
-998.740,-50.309,-65.851,1.412,-2.255,1.064
-998.200,-48.720,-64.518,1.308,-1.712,0.407
-998.964,-47.950,-62.962,1.179,-1.375,-0.184
-998.013,-47.916,-63.004,1.056,-0.949,-0.851
-998.741,-49.650,-63.494,0.996,-0.457,-1.647
-999.474,-50.584,-66.263,0.867,0.017,-2.318
-1000.195,-52.427,-67.088,0.597,0.521,-2.799
-999.040,-54.924,-67.451,0.448,0.951,-3.157
-999.616,-56.862,-69.786,0.401,1.149,-3.308
-1002.186,-61.806,-72.389,0.349,1.107,-3.180
-1001.000,-65.000,-74.000,0.420,0.980,-2.730
-1000.771,-67.446,-75.527,0.536,0.633,-2.069
-1001.981,-70.126,-78.164,0.721,0.180,-1.309
-1001.279,-68.272,-75.640,0.798,-0.141,-0.475
-1000.322,-65.959,-73.190,0.759,-0.445,0.200
-999.360,-64.259,-72.517,0.926,-0.746,0.769
-997.525,-62.836,-70.720,1.057,-1.042,1.082
-998.264,-63.013,-71.072,0.971,-1.196,1.046
-1001.934,-62.145,-71.933,0.851,-1.315,1.167
-999.071,-59.723,-72.269,0.629,-1.517,1.494
-996.852,-55.884,-70.441,0.350,-1.515,1.477
-999.105,-51.180,-70.311,0.220,-1.395,1.045
-998.235,-50.554,-71.471,0.238,-1.274,0.701
-999.713,-55.995,-74.298,0.410,-1.312,0.406
-1001.029,-60.270,-78.317,0.485,-1.773,0.477
-1001.000,-59.000,-77.000,0.420,-2.380,1.050
-999.454,-56.330,-75.204,0.477,-2.766,1.380
-997.576,-54.919,-73.003,0.540,-2.913,1.460
-999.729,-56.139,-70.021,0.618,-2.993,1.471
-1001.580,-56.939,-67.687,0.568,-2.994,1.477
-1001.078,-53.167,-64.965,0.334,-2.892,1.437
-995.568,-49.399,-62.396,0.295,-2.652,1.168
-995.382,-49.122,-61.030,0.432,-2.206,0.496
-1000.803,-52.651,-62.863,0.555,-1.903,-0.244
-1001.106,-55.871,-63.737,0.567,-1.772,-0.431
-999.997,-55.348,-66.399,0.552,-1.757,-0.370
-997.086,-54.809,-69.321,0.567,-1.950,-0.348
-999.766,-55.480,-68.544,0.555,-2.071,-0.539
-1000.100,-57.724,-69.446,0.556,-2.247,-0.726
-998.146,-57.694,-70.023,0.473,-2.575,-0.698
-999.000,-55.000,-71.000,0.420,-3.080,-0.770
-994.923,-53.321,-70.526,0.423,-3.935,-0.935
-1000.737,-51.180,-66.648,0.442,-4.464,-1.303
-1003.068,-52.018,-65.951,0.662,-4.371,-1.456
-999.503,-53.510,-65.211,0.835,-4.164,-1.342
-1001.609,-55.039,-63.806,0.827,-4.010,-1.323
-1000.650,-60.188,-65.387,0.735,-4.009,-1.237
-1002.228,-61.921,-64.845,0.465,-4.226,-1.102
-1003.116,-59.268,-63.077,0.158,-4.773,-0.612
-1001.321,-55.707,-61.674,0.006,-5.491,-0.052
-999.536,-53.455,-58.130,0.067,-5.711,-0.071
-998.333,-52.219,-56.164,0.269,-5.592,-0.501
-999.401,-52.916,-55.712,0.372,-5.432,-0.980
-999.991,-57.094,-54.776,0.343,-5.072,-1.386
-1000.033,-55.307,-55.141,0.447,-5.080,-1.810
-1001.000,-54.000,-56.000,0.560,-5.320,-2.030
-1002.077,-60.264,-56.801,0.439,-4.987,-2.085
-1000.487,-62.007,-58.466,0.407,-4.464,-2.143
-999.594,-63.519,-59.483,0.377,-4.127,-1.848
-999.873,-64.996,-57.713,0.166,-4.103,-1.333
-999.860,-59.568,-55.004,0.192,-4.369,-0.895
-999.895,-56.968,-52.265,0.390,-4.387,-0.686
-1000.081,-58.081,-48.773,0.496,-4.260,-0.776
-1001.023,-58.947,-47.903,0.559,-4.019,-0.710
-1000.020,-58.545,-49.704,0.512,-3.674,-0.764
-1001.058,-55.723,-50.121,0.461,-3.669,-1.111
-1002.165,-54.976,-50.210,0.573,-3.746,-1.255
-1001.459,-57.414,-51.708,0.634,-3.841,-1.413
-1000.486,-60.925,-51.759,0.503,-3.903,-1.455
-998.842,-60.607,-50.987,0.231,-3.573,-1.399
-999.000,-58.000,-52.000,-0.070,-3.220,-1.400
-999.818,-58.800,-52.965,-0.145,-3.085,-1.282
-1000.906,-59.185,-52.532,-0.132,-3.156,-1.122
-1000.332,-58.523,-49.886,-0.126,-3.350,-0.865
-999.234,-57.112,-45.830,0.012,-3.256,-0.701
-998.973,-58.088,-43.201,0.087,-2.813,-0.576
-1001.701,-62.918,-41.678,0.164,-2.248,-0.470
-1001.799,-62.849,-41.024,0.207,-1.712,-0.252
-999.909,-62.810,-42.778,0.141,-1.345,0.120
-1002.641,-65.006,-45.578,0.192,-1.350,0.297
-1001.778,-63.760,-46.313,0.226,-1.569,0.629
-1000.026,-61.632,-45.334,0.170,-1.597,0.895
-999.582,-58.598,-44.909,0.139,-1.470,0.896
-1000.500,-58.411,-45.111,0.260,-1.264,0.795
-1002.122,-60.193,-46.271,0.351,-1.205,0.706
-1003.000,-61.000,-48.000,0.350,-1.470,0.980
-1004.197,-60.411,-48.055,0.528,-1.773,1.458
-1001.522,-57.397,-48.483,0.708,-2.123,1.981
-1001.309,-57.811,-49.967,0.973,-2.444,2.225
-1001.444,-60.159,-49.489,1.216,-2.579,2.276
-1001.032,-61.159,-48.854,1.135,-2.719,2.458
-1001.854,-59.201,-47.337,1.036,-2.806,2.624
-999.893,-54.627,-42.597,0.974,-2.716,2.733
-999.988,-49.419,-38.265,0.912,-2.355,2.614
-999.157,-45.295,-34.816,0.905,-1.602,2.119
-999.424,-45.092,-32.068,0.949,-0.765,1.422
-999.477,-44.306,-32.985,1.024,-0.069,0.851
-998.876,-44.235,-34.248,1.073,0.777,0.090
-1000.102,-45.578,-34.239,1.137,1.758,-0.810
-998.842,-51.305,-39.145,1.105,2.465,-1.412
-1001.000,-59.000,-47.000,0.910,2.870,-1.890
-1004.819,-60.050,-51.584,0.498,2.961,-1.881
-1003.315,-59.708,-53.605,0.067,2.709,-1.359
-999.274,-55.512,-54.659,-0.051,2.250,-0.887
-999.305,-51.381,-55.177,-0.110,1.597,-0.740
-999.732,-50.857,-54.778,-0.133,1.130,-0.949
-1000.333,-51.421,-55.335,-0.171,0.928,-1.253
-1002.072,-54.126,-57.077,-0.442,0.519,-1.403
-1002.856,-53.172,-56.192,-0.622,-0.028,-1.338
-1004.976,-51.958,-53.490,-0.700,-0.614,-1.226
-1002.462,-52.452,-52.134,-0.558,-1.304,-0.982
-999.514,-54.536,-51.414,-0.237,-1.818,-0.643
-1000.325,-56.683,-48.215,-0.268,-2.022,-0.551
-1001.137,-57.209,-45.535,-0.359,-2.000,-0.545
-1000.786,-58.000,-44.781,-0.352,-1.779,-0.388
-999.000,-56.000,-42.000,-0.350,-1.540,-0.210
-999.753,-54.020,-40.952,-0.234,-1.307,-0.251
-1000.783,-55.204,-40.525,-0.059,-0.955,-0.488
-1001.528,-57.579,-39.417,0.108,-0.589,-0.673
-1001.433,-57.899,-40.919,0.157,-0.217,-0.685
-1000.931,-58.387,-40.510,0.274,0.110,-0.596
-1001.997,-58.918,-40.135,0.460,0.327,-0.554
-999.796,-57.943,-41.046,0.645,0.584,-0.480
-998.958,-57.128,-41.881,0.769,0.949,-0.354
-999.047,-55.169,-43.642,0.758,1.373,-0.432
-999.748,-56.041,-45.595,0.842,1.766,-0.735
-1002.024,-57.945,-49.565,0.738,2.038,-0.908
-1001.160,-57.660,-51.342,0.596,2.101,-0.712
-1001.064,-56.850,-52.839,0.631,1.975,-0.403
-1000.967,-58.440,-56.428,0.449,1.700,-0.178
-1002.000,-60.000,-57.000,0.210,1.400,0.070
-1001.549,-56.614,-56.161,0.029,1.274,0.433
-998.057,-53.610,-54.645,-0.126,1.122,0.692
-999.633,-51.922,-52.599,-0.085,0.924,0.622
-1000.828,-53.206,-51.973,0.083,0.962,0.520
-999.426,-55.536,-53.781,-0.007,1.097,0.448
-1000.257,-54.624,-53.607,-0.257,1.227,0.215
-1001.026,-52.863,-51.958,-0.354,1.411,-0.009
-1001.015,-51.947,-52.038,-0.357,1.410,0.054
-1000.966,-53.627,-51.063,-0.140,1.276,0.254
-1000.401,-54.587,-51.693,0.104,1.250,0.299
-999.208,-56.468,-51.627,0.151,1.304,0.218
-1000.765,-58.621,-50.812,0.111,1.526,0.092
-1000.185,-57.321,-50.982,-0.079,1.854,0.206
-997.949,-54.569,-51.157,-0.400,2.233,0.349
-1000.000,-53.000,-53.000,-0.630,2.590,0.140
-1001.756,-53.910,-53.052,-0.644,2.724,-0.115
-1003.136,-53.910,-54.082,-0.489,2.739,-0.176
-1000.674,-54.775,-57.017,-0.294,2.686,-0.002
-997.636,-54.239,-58.924,-0.339,2.665,0.077
-998.178,-52.737,-60.538,-0.436,2.795,-0.066
-999.308,-52.844,-60.957,-0.424,2.979,-0.257
-1001.078,-50.898,-59.854,-0.491,3.084,-0.428
-1000.144,-51.869,-57.222,-0.306,3.143,-0.427
-999.632,-51.514,-55.111,-0.029,3.263,-0.312
-1000.913,-50.866,-55.925,0.071,3.376,-0.203
-999.821,-53.695,-58.821,0.299,3.543,-0.301
-998.330,-54.246,-60.697,0.463,3.694,-0.512
-999.660,-58.849,-62.718,0.374,3.699,-0.682
-1002.332,-60.614,-64.019,0.180,3.626,-0.761
-1003.000,-56.000,-64.000,0.070,3.500,-0.420
-1001.425,-54.276,-65.825,0.234,3.214,0.141
-998.451,-51.092,-65.430,0.548,2.805,0.384
-998.569,-49.223,-65.112,0.765,2.703,0.123
-1000.504,-51.344,-66.866,0.951,2.707,-0.247
-999.375,-54.197,-66.831,1.225,2.512,-0.373
-1001.948,-57.741,-67.196,1.324,2.450,-0.317
-1003.891,-58.967,-68.042,1.177,2.364,0.040
-1000.251,-57.196,-68.042,1.055,1.997,0.651
-998.974,-55.127,-67.754,0.999,1.501,1.192
-998.210,-55.601,-69.965,0.838,1.170,1.218
-998.337,-55.628,-71.248,0.399,1.099,0.706
-1000.611,-51.940,-68.697,0.004,1.174,0.434
-999.372,-48.132,-68.178,0.053,1.413,0.515
-1000.465,-48.303,-69.123,0.231,1.535,0.481
-1002.000,-51.000,-70.000,0.350,1.330,0.560
-1000.087,-52.777,-70.857,0.535,1.080,0.860
-1000.251,-53.980,-72.389,0.591,0.897,1.142
-998.261,-53.031,-73.224,0.485,0.731,1.163
-998.862,-50.942,-69.796,0.558,0.717,0.906
-1001.356,-49.319,-67.543,0.635,0.803,0.851
-1000.889,-47.828,-66.709,0.657,0.970,0.809
-1002.104,-49.190,-66.039,0.930,1.362,0.701
-1001.219,-50.974,-66.995,0.987,1.663,0.832
-999.006,-50.277,-66.134,1.003,1.941,0.799
-999.610,-49.660,-66.577,1.184,2.323,0.747
-999.433,-51.010,-67.210,1.168,2.694,0.754
-998.265,-52.752,-70.120,1.193,3.307,0.457
-995.937,-54.580,-76.808,0.798,3.574,-0.014
-994.208,-54.725,-79.214,0.313,3.307,-0.474
-1000.000,-51.000,-82.000,0.350,2.800,-0.490
-1001.586,-49.024,-83.122,0.466,1.834,-0.065
-998.107,-48.959,-83.387,0.657,1.012,0.209
-998.087,-49.972,-84.232,0.696,0.515,0.116
-997.960,-50.779,-81.315,0.514,0.254,0.126
-1000.593,-43.415,-78.560,0.264,0.364,0.313
-994.923,-39.163,-71.473,0.337,0.974,-0.176
-993.547,-44.393,-73.606,0.481,2.032,-0.879
-1001.826,-46.033,-78.150,0.103,2.566,-1.234
-998.742,-46.623,-76.193,-0.176,3.015,-1.563
-998.897,-46.932,-81.060,-0.299,3.340,-1.687
-999.371,-44.912,-77.820,-0.090,2.914,-1.956
-999.977,-48.314,-79.794,0.259,2.598,-2.287
-1003.293,-53.151,-85.644,0.294,1.883,-2.285
-1000.578,-55.236,-83.911,0.532,1.112,-2.140
-1000.000,-56.000,-85.000,0.560,0.700,-1.890
-998.998,-55.134,-82.134,0.471,0.129,-1.646
-1000.589,-54.839,-84.492,0.660,-0.116,-1.433
-999.694,-55.570,-81.589,0.711,-0.545,-1.402
-999.659,-56.253,-76.683,0.701,-0.648,-1.301
-1001.947,-55.610,-80.027,0.684,-0.334,-0.864
-998.127,-54.880,-77.064,0.614,-0.345,-0.495
-999.251,-53.884,-77.207,0.556,-0.039,-0.347
-1000.131,-52.967,-78.946,0.495,0.143,-0.411
-998.914,-53.951,-80.516,0.437,0.078,-0.489
-999.011,-52.888,-80.858,0.335,0.000,-0.482
-998.683,-50.836,-79.646,0.211,-0.170,-0.521
-998.562,-49.075,-81.957,0.268,-0.240,-0.605
-998.069,-48.131,-80.114,0.491,-0.417,-0.747
-1000.273,-51.687,-80.386,0.642,-0.576,-0.845
-999.000,-54.000,-82.000,0.630,-0.630,-0.770
-999.442,-53.806,-81.027,0.512,-0.576,-0.640
-1001.566,-56.220,-81.147,0.376,-0.498,-0.629
-999.353,-57.789,-80.598,0.339,-0.479,-0.557
-1001.076,-58.702,-82.103,0.328,-0.573,-0.179
-999.526,-60.288,-82.796,0.094,-0.897,0.319
-998.210,-56.682,-80.312,-0.198,-0.953,0.603
-1000.036,-51.785,-77.875,-0.356,-0.757,0.705
-999.072,-51.015,-77.879,-0.294,-0.638,0.706
-998.343,-50.247,-79.718,-0.137,-0.517,0.551
-996.578,-49.387,-80.524,-0.272,-0.426,0.222
-998.649,-47.892,-82.439,-0.378,-0.469,-0.127
-999.190,-46.896,-84.874,-0.140,-0.637,-0.234
-996.364,-48.616,-84.787,0.143,-0.718,-0.317
-997.227,-50.305,-85.278,0.299,-0.875,-0.433
-998.000,-54.000,-88.000,0.350,-1.120,-0.490
-999.742,-57.752,-89.715,0.073,-1.515,-0.449
-999.655,-58.185,-92.824,-0.417,-2.226,-0.172
-997.773,-56.852,-94.334,-0.936,-2.918,0.146
-998.024,-51.558,-88.005,-1.612,-3.538,0.398
-997.487,-44.546,-84.504,-1.642,-3.861,0.368
-996.796,-41.919,-83.364,-1.055,-4.040,0.165
-995.953,-44.284,-79.866,-0.598,-4.205,-0.099
-995.965,-48.618,-81.714,-0.227,-4.256,-0.589
-996.659,-53.967,-84.020,-0.270,-4.634,-1.089
-998.351,-55.294,-82.965,-0.683,-5.238,-1.457
-998.234,-46.996,-79.626,-1.019,-6.055,-1.651
-995.991,-39.347,-74.632,-0.966,-6.616,-2.057
-997.928,-37.910,-69.263,-0.556,-6.634,-2.750
-1000.125,-39.539,-64.485,-0.064,-6.557,-3.656
-1000.000,-45.000,-63.000,0.350,-6.230,-4.550
-1000.787,-47.855,-60.518,0.645,-5.864,-4.871
-1001.833,-50.700,-58.172,1.036,-5.395,-5.152
-1002.258,-59.419,-57.563,1.131,-4.596,-5.285
-1003.320,-65.493,-56.737,0.967,-3.487,-4.755
-1001.795,-67.769,-59.332,0.849,-2.156,-3.973
-999.881,-69.124,-60.954,0.568,-1.135,-3.405
-1002.251,-69.042,-60.011,0.578,-0.528,-3.126
-1004.012,-71.692,-62.669,0.888,-0.409,-2.521
-1002.632,-74.228,-66.457,1.095,-0.603,-1.452
-999.038,-71.077,-67.899,1.112,-0.637,-0.413
-997.668,-65.674,-67.894,0.916,-0.655,0.068
-1002.254,-60.826,-68.511,0.848,-0.729,0.048
-1003.382,-56.991,-70.676,1.065,-0.811,0.233
-999.528,-54.716,-72.209,1.277,-1.105,0.518
-999.000,-53.000,-74.000,1.190,-1.330,0.490
-998.292,-51.282,-74.263,0.942,-1.112,0.088
-996.909,-49.446,-72.320,0.793,-0.717,-0.458
-997.446,-48.603,-71.859,0.756,-0.547,-0.605
-998.178,-50.251,-72.670,0.776,-0.583,-0.557
-999.166,-55.415,-77.151,0.590,-0.529,-0.840
-998.631,-62.520,-81.680,0.182,-0.613,-1.066
-998.095,-66.067,-83.087,-0.246,-1.016,-0.885
-1000.804,-64.294,-83.182,-0.737,-1.499,-0.459
-1001.386,-59.909,-78.399,-0.939,-2.094,0.040
-999.316,-57.229,-73.361,-0.715,-2.687,0.397
-998.526,-56.682,-69.478,-0.568,-3.083,0.598
-999.475,-55.296,-65.151,-0.550,-3.095,0.597
-1001.377,-55.213,-61.958,-0.445,-2.759,0.450
-1000.766,-56.079,-58.701,-0.248,-2.585,0.420
-1000.000,-56.000,-60.000,-0.070,-2.590,0.350
-1000.149,-54.398,-60.419,0.104,-2.418,0.168
-998.418,-52.621,-57.939,0.389,-2.179,-0.043
-997.998,-55.711,-59.281,0.712,-1.824,-0.428
-999.667,-59.940,-60.334,0.945,-1.168,-0.799
-999.479,-61.352,-61.720,0.957,-0.726,-0.790
-999.013,-62.093,-63.197,0.793,-0.606,-0.589
-1000.080,-60.785,-64.104,0.539,-0.484,-0.484
-1000.060,-57.244,-65.011,0.354,-0.487,-0.421
-999.814,-55.782,-64.787,0.396,-0.449,-0.472
-1000.164,-57.368,-66.412,0.502,-0.346,-0.451
-998.959,-58.654,-67.414,0.684,-0.390,-0.120
-999.257,-58.973,-68.926,0.770,-0.435,0.199
-999.867,-57.292,-69.870,0.548,-0.535,0.402
-998.899,-55.971,-67.650,0.417,-0.629,0.397
-999.000,-56.000,-67.000,0.420,-0.490,0.210
-998.973,-54.244,-67.901,0.300,-0.473,0.266
-999.650,-53.762,-68.066,0.220,-0.521,0.215
-1000.109,-54.564,-68.313,0.151,-0.435,0.033
-999.195,-55.592,-69.566,-0.039,-0.636,0.170
-998.982,-55.822,-68.106,-0.189,-0.790,0.170
-1000.120,-54.848,-66.997,-0.302,-0.776,0.065
-998.830,-55.024,-66.945,-0.269,-0.841,0.147
-997.928,-55.000,-66.885,-0.081,-0.776,0.205
-998.995,-55.123,-68.219,-0.010,-0.768,0.281
-998.512,-53.670,-66.201,0.078,-0.697,0.135
-1000.037,-53.031,-67.501,0.231,-0.578,-0.195
-1000.811,-54.517,-69.032,0.295,-0.708,-0.305
-1001.340,-53.653,-67.949,0.262,-0.769,-0.381
-1001.765,-54.181,-69.023,0.207,-0.779,-0.412
-998.000,-54.000,-67.000,0.280,-0.840,-0.350
-997.527,-54.500,-67.660,0.517,-0.776,-0.523
-1001.135,-57.753,-67.893,0.742,-0.847,-0.621
-1002.436,-57.248,-65.282,0.795,-1.025,-0.313
-1000.357,-57.501,-64.587,0.958,-1.050,0.004
-998.397,-57.727,-61.789,1.191,-1.036,0.066
-999.304,-57.102,-61.157,1.282,-0.850,-0.019
-1001.174,-59.181,-60.875,1.404,-0.616,0.010
-1002.979,-60.903,-59.911,1.220,-0.437,0.195
-1001.533,-61.353,-61.885,0.878,-0.237,0.376
-999.897,-58.795,-60.236,0.791,-0.135,0.572
-999.417,-58.189,-58.528,0.725,0.064,0.664
-998.706,-58.880,-61.638,0.677,0.159,0.553
-1000.621,-56.084,-63.161,0.469,0.273,0.237
-1000.804,-54.914,-64.335,0.177,0.517,-0.014
-999.000,-53.000,-67.000,0.070,0.560,0.070
-997.976,-51.024,-68.788,0.009,0.566,-0.026
-999.278,-51.181,-69.864,-0.047,0.459,-0.267
-1000.447,-50.220,-70.046,-0.123,0.400,-0.230
-998.810,-50.270,-69.693,-0.139,0.425,-0.248
-999.517,-51.537,-68.613,-0.148,0.453,-0.424
-1001.069,-53.508,-69.398,-0.129,0.688,-0.587
-999.853,-55.052,-71.103,-0.150,0.766,-0.547
-998.079,-55.027,-72.823,-0.338,0.702,-0.360
-998.505,-54.344,-74.208,-0.415,0.664,-0.294
-999.992,-52.510,-72.827,-0.439,0.417,-0.189
-998.990,-52.079,-74.648,-0.299,0.077,-0.114
-999.232,-53.939,-76.015,-0.036,-0.194,-0.162
-999.997,-55.297,-74.789,-0.011,-0.534,-0.111
-1000.058,-56.121,-74.893,0.014,-0.892,0.024
-1000.000,-56.000,-72.000,0.140,-1.260,0.210
-999.018,-53.401,-70.066,0.262,-1.590,0.341
-999.128,-52.485,-68.878,0.381,-1.537,0.362
-998.405,-54.104,-66.235,0.511,-1.357,0.281
-999.973,-53.217,-66.485,0.584,-1.313,0.134
-1000.623,-53.588,-66.896,0.522,-1.202,0.025
-999.962,-55.018,-65.644,0.387,-1.002,-0.209
-999.929,-52.794,-63.845,0.275,-0.830,-0.511
-998.957,-51.928,-62.080,0.277,-0.712,-0.753
-1000.732,-52.942,-61.892,0.288,-0.489,-0.943
-999.785,-52.886,-62.108,0.263,-0.183,-1.143
-998.263,-53.513,-61.829,0.350,0.095,-1.448
-999.327,-54.261,-62.439,0.450,0.278,-1.552
-1000.272,-55.672,-65.141,0.387,0.384,-1.551
-1000.943,-58.282,-69.585,0.258,0.505,-1.614
-999.000,-58.000,-71.000,0.070,0.490,-1.540
-998.704,-57.849,-72.514,-0.063,0.316,-1.311
-1001.186,-57.772,-74.034,-0.141,0.033,-0.942
-1003.002,-55.212,-68.965,-0.413,-0.251,-0.709
-1001.281,-55.382,-66.525,-0.458,-0.210,-0.732
-997.754,-54.082,-66.888,-0.323,0.001,-0.784
-998.426,-53.233,-65.862,-0.464,0.089,-0.885
-1000.059,-55.045,-65.992,-0.563,0.305,-1.301
-1000.026,-53.239,-65.903,-0.623,0.614,-1.733
-999.930,-50.468,-69.060,-0.654,0.704,-1.816
-999.916,-49.392,-71.777,-0.494,0.666,-1.864
-999.707,-52.066,-72.610,-0.290,0.515,-1.905
-999.732,-55.086,-75.291,0.005,0.179,-1.856
-998.500,-56.266,-75.656,0.134,-0.158,-1.690
-999.412,-55.729,-73.830,-0.120,-0.283,-1.620
-1001.000,-54.000,-75.000,-0.350,-0.210,-1.750
-997.494,-54.860,-76.182,-0.413,-0.140,-1.644
-996.533,-54.987,-74.779,-0.436,-0.186,-1.476
-997.553,-55.918,-76.948,-0.339,-0.234,-1.552
-998.472,-58.256,-77.626,-0.240,-0.160,-1.872
-1000.542,-61.401,-75.276,-0.161,-0.182,-2.019
-1000.818,-64.430,-74.848,0.161,-0.527,-1.518
-999.960,-65.047,-72.843,0.427,-1.096,-0.791
-999.989,-65.162,-72.061,0.360,-1.586,-0.366
-999.349,-60.374,-68.548,0.284,-1.701,-0.277
-998.274,-56.727,-63.087,0.275,-1.555,-0.340
-1000.290,-57.785,-64.712,0.314,-1.279,-0.633
-1000.193,-58.142,-66.090,0.351,-0.844,-0.957
-998.735,-59.355,-66.467,0.239,-0.589,-0.955
-999.021,-58.803,-69.391,0.223,-0.551,-0.910
-999.000,-59.000,-70.000,0.350,-0.420,-0.910
-1000.710,-60.902,-69.935,0.357,-0.408,-0.855
-1001.346,-60.439,-70.078,0.337,-0.408,-0.700
-999.610,-58.828,-70.271,0.373,-0.192,-0.483
-998.257,-57.400,-71.827,0.282,-0.143,-0.393
-999.847,-59.011,-71.740,0.198,-0.100,-0.465
-1002.130,-61.272,-72.474,0.198,0.010,-0.564
-999.712,-60.940,-75.143,-0.022,-0.079,-0.319
-997.048,-60.100,-75.098,-0.205,-0.139,-0.007
-998.309,-58.342,-74.081,-0.298,-0.186,-0.093
-1000.643,-57.802,-73.935,-0.562,-0.302,-0.257
-1000.289,-57.761,-74.152,-0.651,-0.447,-0.250
-999.563,-56.551,-73.193,-0.616,-0.662,-0.005
-998.452,-57.323,-70.047,-0.501,-0.790,0.144
-998.216,-56.789,-69.031,-0.247,-0.760,-0.029
-1000.000,-57.000,-69.000,-0.140,-0.700,-0.070
-998.323,-59.757,-68.792,-0.023,-0.643,0.002
-997.654,-60.127,-71.155,0.038,-0.532,-0.088
-998.463,-59.655,-73.381,-0.138,-0.400,-0.246
-999.375,-57.594,-74.381,-0.236,-0.307,-0.266
-999.610,-55.401,-73.155,-0.187,-0.267,-0.184
-999.062,-54.928,-70.512,-0.117,-0.182,-0.237
-1001.144,-55.071,-70.012,0.091,-0.063,-0.357
-1000.237,-56.853,-69.169,0.337,-0.005,-0.416
-997.994,-57.978,-67.081,0.459,0.108,-0.480
-998.514,-57.888,-68.226,0.630,0.206,-0.464
-999.283,-58.748,-68.983,0.764,0.202,-0.357
-999.937,-61.083,-67.563,0.766,0.242,-0.366
-998.148,-62.168,-70.077,0.765,0.426,-0.319
-997.138,-63.217,-72.135,0.582,0.751,-0.298
-1000.000,-63.000,-73.000,0.210,0.980,-0.560
-1002.048,-60.171,-73.099,0.119,0.994,-0.546
-999.959,-60.762,-73.948,0.299,0.803,-0.035
-997.989,-59.733,-76.240,0.464,0.459,0.447
-1000.012,-56.450,-72.993,0.663,0.300,0.612
-998.735,-55.924,-76.557,0.683,0.247,0.650
-996.926,-54.573,-79.630,0.739,0.120,0.694
-998.048,-54.081,-77.156,0.913,0.227,0.379
-997.116,-55.892,-85.320,0.781,0.357,-0.177
-996.697,-56.150,-88.555,0.802,0.008,-0.370
-998.243,-55.872,-87.224,0.883,-0.729,-0.187
-998.899,-55.543,-89.341,0.772,-1.556,0.134
-996.300,-52.179,-90.563,0.773,-2.266,0.336
-995.153,-49.350,-90.267,0.661,-2.812,0.221
-998.634,-47.893,-84.005,0.835,-3.201,0.051
-1001.000,-51.000,-82.000,1.330,-3.570,0.000
-1000.172,-58.318,-80.781,1.475,-4.173,0.111
-999.748,-59.472,-75.245,1.454,-4.673,0.298
-1000.490,-58.328,-71.140,1.546,-4.923,0.499
-1001.158,-57.284,-63.334,1.668,-5.131,0.746
-1002.187,-57.768,-57.357,1.654,-4.849,0.561
-1001.572,-61.888,-54.165,1.488,-4.081,0.132
-999.942,-62.937,-50.826,1.161,-3.302,-0.005
-999.987,-61.182,-49.166,0.855,-2.574,-0.125
-999.973,-59.093,-47.020,0.720,-1.901,-0.361
-999.886,-60.560,-49.249,0.706,-1.263,-0.586
-999.961,-63.935,-52.990,0.895,-0.770,-0.625
-1001.725,-65.655,-55.131,0.810,-0.374,-0.482
-1001.367,-65.517,-59.360,0.453,0.067,-0.294
-1000.079,-61.260,-62.345,0.170,0.479,-0.210
-1002.000,-59.000,-65.000,0.000,0.770,-0.210
-1001.263,-59.966,-67.690,0.060,0.787,0.077
-1000.152,-58.894,-69.543,0.038,0.665,0.427
-999.142,-55.196,-70.275,-0.086,0.567,0.586
-999.084,-50.661,-69.956,-0.193,0.622,0.638
-999.877,-48.488,-71.891,-0.195,0.865,0.474
-998.676,-47.886,-73.189,-0.247,1.001,0.221
-999.126,-48.080,-75.233,-0.508,1.133,-0.099
-1000.893,-49.848,-77.033,-0.626,1.198,-0.469
-1001.329,-51.606,-75.996,-0.648,0.978,-0.582
-998.328,-53.416,-76.810,-0.460,0.680,-0.419
-995.438,-54.259,-76.470,-0.239,0.364,-0.305
-996.915,-53.942,-75.871,-0.169,0.096,-0.432
-999.705,-55.818,-73.960,0.096,-0.144,-0.600
-1001.072,-58.314,-70.841,0.298,-0.285,-0.623
-1000.000,-60.000,-73.000,0.420,-0.210,-0.490
-998.073,-60.212,-73.278,0.558,-0.199,-0.247
-999.159,-58.874,-72.531,0.465,-0.270,-0.079
-1001.043,-60.353,-73.987,0.387,-0.303,-0.088
-999.759,-60.296,-73.736,0.467,-0.458,0.043
-998.720,-56.541,-74.284,0.499,-0.733,0.430
-998.861,-54.844,-73.673,0.587,-0.841,0.539
-997.992,-55.080,-73.042,0.626,-0.764,0.255
-999.783,-56.887,-73.971,0.560,-0.763,0.068
-1001.262,-55.981,-73.389,0.619,-0.925,0.314
-998.808,-51.275,-71.109,0.598,-1.149,0.724
-997.223,-49.103,-68.545,0.533,-1.158,0.650
-998.711,-49.138,-67.748,0.600,-0.923,0.215
-1000.198,-50.613,-66.528,0.623,-0.591,-0.048
-999.872,-52.072,-66.085,0.548,-0.225,-0.066
-999.000,-51.000,-67.000,0.490,0.140,-0.140
-998.944,-49.164,-67.828,0.322,0.566,-0.492
-999.028,-49.339,-68.785,0.090,0.944,-0.930
-999.175,-51.897,-70.226,0.089,1.286,-1.263
-1000.273,-53.931,-74.146,-0.027,1.428,-1.312
-999.354,-55.745,-74.563,-0.152,1.246,-1.086
-1000.494,-57.217,-74.229,-0.051,1.088,-0.753
-1000.826,-58.105,-74.922,-0.071,0.894,-0.317
-998.053,-59.881,-73.053,0.054,0.832,-0.012
-999.566,-60.845,-73.863,0.116,0.923,0.105
-999.450,-61.708,-72.844,-0.140,0.773,0.316
-998.863,-61.807,-71.624,-0.252,0.623,0.572
-1000.114,-60.120,-71.893,-0.332,0.480,0.830
-998.217,-58.543,-70.818,-0.439,0.310,1.129
-998.272,-56.648,-72.315,-0.415,0.283,1.181
-1000.000,-54.000,-73.000,-0.490,0.350,1.120
-999.244,-51.365,-72.869,-0.682,0.475,1.021
-997.964,-49.339,-74.337,-0.676,0.542,0.670
-998.831,-49.177,-76.743,-0.529,0.612,0.376
-1000.382,-50.956,-79.195,-0.459,0.598,0.183
-999.050,-50.345,-80.145,-0.401,0.401,0.166
-997.845,-48.861,-79.926,-0.436,0.155,0.179
-998.041,-48.988,-80.027,-0.409,-0.005,-0.252
-998.910,-48.895,-80.034,-0.221,0.001,-0.620
-999.910,-52.130,-79.848,-0.148,-0.142,-0.594
-999.401,-53.748,-80.752,-0.089,-0.424,-0.420
-997.641,-52.132,-81.048,-0.092,-0.538,-0.295
-996.644,-54.484,-80.803,-0.150,-0.583,-0.463
-998.914,-56.144,-79.478,-0.022,-0.657,-0.662
-1001.104,-55.954,-77.669,-0.018,-0.796,-0.519
-1000.000,-54.000,-74.000,-0.140,-0.910,-0.210
-999.068,-49.477,-71.062,-0.031,-0.748,-0.006
-998.225,-48.544,-70.683,0.125,-0.430,-0.153
-998.464,-50.221,-68.133,0.140,-0.170,-0.602
-1001.106,-51.722,-69.049,0.135,0.261,-0.888
-999.785,-51.750,-69.900,-0.023,0.710,-1.051
-997.728,-50.878,-70.463,-0.354,1.083,-1.340
-998.087,-51.030,-73.150,-0.573,1.653,-1.790
-999.857,-51.872,-74.812,-0.755,2.014,-2.282
-1000.351,-53.777,-77.000,-0.898,2.248,-2.454
-998.350,-53.481,-75.970,-0.941,2.414,-2.432
-997.091,-53.038,-77.043,-1.070,2.298,-2.535
-997.890,-54.902,-75.325,-1.103,2.402,-2.783
-1005.436,-56.661,-73.266,-0.906,2.662,-2.812
-1004.877,-60.736,-77.568,-0.663,2.711,-2.089
-997.000,-64.000,-79.000,-0.420,2.380,-1.260
-997.897,-65.630,-84.095,-0.330,2.137,-1.076
-995.668,-66.932,-86.091,-0.601,1.474,-0.540
-996.993,-61.310,-82.953,-0.776,0.169,0.492
-1000.570,-55.841,-83.220,-0.583,0.261,0.598
-993.898,-54.012,-80.734,-0.607,0.662,-0.050
-994.123,-48.880,-80.430,-0.581,0.380,-0.483
-1000.316,-49.315,-83.167,-0.180,0.581,-0.558
-1000.245,-52.898,-84.846,0.000,0.575,-0.613
-997.191,-53.618,-87.414,-0.053,0.439,-0.965
-997.986,-55.589,-89.010,-0.125,0.261,-1.199
-998.922,-56.255,-88.999,-0.124,0.002,-1.119
-996.884,-57.860,-91.652,-0.017,-0.186,-0.998
-997.308,-57.506,-94.345,0.121,-0.772,-0.858
-998.070,-57.244,-92.619,0.401,-1.425,-0.573
-999.000,-59.000,-91.000,0.700,-2.100,-0.140
-999.198,-58.051,-89.335,0.830,-2.675,0.236
-997.462,-58.325,-87.461,0.895,-2.908,0.456
-996.037,-55.652,-85.445,0.920,-2.986,0.513
-996.201,-53.180,-82.409,0.896,-3.042,0.402
-999.104,-52.410,-79.968,0.923,-3.081,0.053
-1001.158,-49.264,-76.085,0.890,-2.975,-0.260
-1000.958,-46.822,-73.924,0.843,-2.781,-0.442
-1000.081,-45.004,-72.200,0.970,-2.415,-0.931
-999.756,-47.131,-70.723,1.043,-1.979,-1.506
-1000.383,-50.616,-72.573,1.099,-1.581,-1.901
-997.645,-54.990,-73.230,1.063,-1.091,-2.207
-995.473,-60.066,-75.107,0.756,-0.645,-2.359
-999.774,-62.719,-75.868,0.624,-0.211,-2.364
-1004.278,-65.396,-76.368,0.617,0.189,-2.103
-1001.000,-67.000,-80.000,0.420,0.350,-1.470
-996.069,-67.153,-81.746,0.234,0.299,-0.844
-999.123,-65.444,-83.765,0.062,0.137,-0.415
-1004.124,-65.228,-82.584,-0.110,-0.120,0.094
-1003.728,-66.311,-80.145,-0.156,-0.499,0.898
-999.018,-63.447,-81.776,-0.286,-0.934,1.919
-998.316,-59.011,-81.684,-0.545,-1.236,2.415
-1000.040,-54.648,-79.881,-0.629,-1.252,2.216
-999.122,-50.278,-79.004,-0.625,-1.127,1.973
-997.383,-47.519,-79.645,-0.659,-1.105,1.806
-996.713,-44.623,-82.064,-0.375,-1.209,1.456
-1000.473,-40.248,-88.673,-0.019,-1.333,0.960
-1001.293,-35.887,-98.988,0.159,-1.504,0.655
-997.905,-30.285,-110.651,0.571,-2.033,0.402
-995.779,-28.073,-119.960,1.054,-2.965,-0.013
-996.000,-30.000,-122.000,1.680,-4.270,-0.700
-999.524,-30.979,-122.910,2.418,-5.900,-1.161
-1000.034,-29.517,-119.911,3.170,-7.686,-1.361
-996.369,-23.698,-109.480,4.415,-9.950,-1.762
-1001.206,-22.892,-104.010,5.688,-11.907,-2.230
-1014.484,-33.001,-99.644,6.808,-12.608,-2.756
-1016.369,-50.284,-92.932,7.956,-12.483,-2.637
-1018.624,-67.134,-93.083,9.049,-10.960,-1.780
-1023.456,-80.954,-89.554,10.269,-8.856,0.783
-1010.027,-91.404,-85.556,11.318,-8.372,3.997
-1002.785,-88.775,-84.456,12.569,-9.047,6.213
-997.738,-81.923,-60.025,14.745,-10.190,8.455
-1000.834,-70.075,-37.994,17.135,-10.901,8.806
-1024.177,-54.361,-28.599,18.461,-10.978,9.666
-1020.856,-54.833,-0.490,18.680,-11.459,12.065
-1020.000,-56.000,11.000,18.270,-10.780,13.580
-1044.179,-48.403,9.707,17.051,-9.650,16.490
-1051.567,-37.455,19.492,15.306,-9.437,19.327
-1042.520,-22.660,15.999,13.723,-8.359,21.109
-1019.115,-12.202,14.945,12.889,-6.746,20.750
-989.372,-8.323,14.423,12.510,-4.397,16.554
-979.182,-8.950,6.175,11.766,-1.264,11.231
-992.181,-3.403,-1.688,10.933,1.126,5.728
-996.559,-1.539,-5.528,10.210,2.228,0.427
-991.861,-8.913,7.145,9.401,1.928,-3.190
-1008.696,-14.117,4.696,8.921,2.318,-3.990
-1023.076,-29.463,-2.881,8.895,2.858,-2.165
-1038.497,-30.609,-7.646,8.694,2.498,1.839
-1048.713,-17.716,-28.106,8.842,2.179,5.402
-1032.422,-27.186,-20.380,9.899,0.272,6.036
-1025.000,-29.000,-19.000,10.500,-1.050,7.280
-1006.897,-13.066,-26.778,10.981,-1.524,10.146
-994.812,-5.624,-10.951,11.972,-3.439,11.212
-1010.182,-9.833,-17.975,11.947,-4.314,9.520
-1005.301,-15.027,-22.737,11.509,-3.863,7.271
-1003.678,-15.293,-20.493,11.234,-2.729,5.554
-1009.529,-21.960,-24.419,10.007,-1.663,3.417
-1014.963,-24.850,-28.931,8.757,0.218,1.796
-1027.792,-26.237,-46.062,8.346,3.079,0.300
-1018.966,-40.947,-47.314,8.082,3.674,-1.955
-1013.782,-48.889,-47.130,7.478,3.956,-3.136
-1016.165,-53.384,-57.367,6.569,4.447,-3.200
-1007.635,-58.246,-62.911,5.930,3.727,-2.852
-1006.852,-56.764,-63.601,5.668,2.998,-2.211
-1013.331,-60.693,-62.023,5.327,1.898,-2.009
-1023.000,-60.000,-63.000,4.900,0.770,-1.470
-1023.577,-60.225,-60.944,4.428,0.522,-0.598
-1022.855,-61.769,-63.710,3.781,0.787,0.106
-1023.262,-49.904,-60.621,3.151,0.589,0.700
-1012.501,-44.923,-58.209,2.764,1.070,0.051
-1007.957,-42.109,-61.354,2.648,2.170,-0.802
-1000.309,-41.020,-59.067,2.763,2.512,-1.359
-994.169,-49.410,-67.813,2.794,2.880,-2.049
-999.902,-46.509,-70.343,2.667,2.196,-1.596
-993.467,-44.308,-68.202,2.608,1.310,-1.331
-986.923,-45.150,-71.081,2.408,1.015,-1.540
-990.732,-39.040,-66.356,1.902,-0.161,-1.358
-993.498,-38.744,-63.227,1.383,-0.534,-1.423
-990.075,-37.970,-63.070,0.880,-0.250,-0.724
-981.714,-32.102,-64.147,0.260,-0.548,0.242
-974.000,-28.000,-64.000,-0.140,-0.910,0.490
-966.707,-24.727,-67.201,-0.479,-1.919,0.230
-965.276,-18.808,-69.207,-1.062,-3.751,-0.416
-968.566,-15.207,-65.878,-1.236,-4.988,-0.744
-976.993,-17.526,-69.159,-0.986,-5.105,-0.966
-982.492,-17.437,-65.123,-1.064,-5.250,-1.084
-979.461,-15.709,-62.940,-1.288,-4.851,-1.603
-983.498,-14.983,-70.301,-1.173,-3.940,-2.743
-986.085,-16.708,-67.401,-1.048,-3.595,-3.585
-987.443,-20.451,-66.254,-1.121,-3.111,-4.205
-993.282,-22.626,-68.430,-1.006,-3.015,-4.103
-988.940,-26.664,-66.826,-0.776,-3.712,-3.394
-988.087,-27.887,-65.043,-0.655,-4.848,-2.695
-994.621,-26.779,-62.217,-0.491,-6.042,-2.217
-997.543,-25.713,-60.721,-0.154,-6.260,-2.270
-1004.000,-25.000,-57.000,0.070,-5.600,-2.450
-1007.150,-28.633,-55.675,0.062,-4.470,-2.421
-1005.130,-27.982,-57.392,0.186,-3.169,-2.016
-998.468,-25.950,-55.190,0.099,-2.111,-1.815
-986.655,-25.486,-56.773,-0.251,-1.688,-2.288
-984.377,-23.403,-61.351,-0.377,-1.841,-3.164
-987.499,-24.240,-60.316,-0.420,-2.080,-4.011
-990.349,-22.801,-57.925,-0.177,-2.162,-4.345
-994.852,-22.746,-57.995,0.254,-1.795,-4.103
-993.666,-26.517,-57.302,0.509,-1.146,-3.387
-991.790,-27.175,-56.184,0.695,-0.353,-2.806
-991.362,-26.691,-55.922,0.601,0.559,-2.413
-987.680,-24.887,-56.023,0.458,1.262,-1.987
-982.231,-22.361,-56.071,0.634,1.604,-1.780
-977.358,-22.201,-57.236,0.777,1.481,-1.761
-975.000,-25.000,-58.000,0.770,0.700,-1.960
-978.900,-26.193,-59.425,0.936,-0.401,-2.099
-984.146,-25.270,-62.966,1.233,-1.385,-2.057
-981.987,-30.212,-60.888,1.622,-2.273,-1.908
-987.738,-37.930,-61.698,2.196,-2.630,-1.475
-999.868,-42.146,-67.939,2.368,-2.699,-0.734
-1004.540,-42.978,-67.669,2.096,-2.673,0.108
-1004.810,-43.075,-70.455,1.714,-1.958,0.576
-999.379,-44.868,-74.925,1.163,-1.104,0.515
-1000.176,-45.840,-74.212,0.625,-0.517,0.011
-1007.598,-47.201,-73.141,-0.026,-0.268,-0.549
-1008.957,-48.365,-69.188,-0.590,-0.327,-0.571
-1008.665,-44.612,-65.758,-0.919,-0.398,-0.304
-1007.646,-37.901,-62.914,-1.307,-0.784,-0.185
-1009.560,-32.330,-59.681,-1.469,-1.142,-0.038
-1012.000,-30.000,-59.000,-1.330,-0.980,0.210
-1010.454,-29.232,-58.130,-1.145,-0.609,0.501
-1005.487,-26.902,-57.424,-1.012,-0.412,0.966
-997.594,-24.451,-55.233,-0.899,-0.527,1.365
-995.027,-23.898,-53.217,-0.787,-0.756,1.303
-992.879,-24.067,-52.656,-0.783,-1.006,0.846
-995.284,-23.816,-50.457,-0.860,-1.113,0.308
-1000.065,-21.821,-50.119,-0.910,-0.801,-0.017
-996.401,-21.748,-52.786,-0.846,-0.188,-0.196
-992.516,-26.830,-54.758,-0.788,0.295,-0.379
-991.489,-30.317,-55.695,-0.591,0.367,-0.535
-996.801,-32.729,-55.889,-0.100,-0.009,-0.472
-1000.549,-36.625,-54.097,0.303,-0.837,0.142
-999.861,-36.379,-54.535,0.697,-1.582,1.054
-999.748,-33.637,-56.049,1.092,-1.931,1.955
-996.000,-32.000,-55.000,1.190,-2.170,2.660
-995.772,-31.035,-54.085,1.407,-2.298,2.867
-994.743,-31.563,-54.301,1.848,-2.401,2.936
-987.807,-33.145,-57.225,2.121,-2.599,3.244
-982.576,-35.041,-57.170,2.176,-2.894,3.332
-984.766,-36.250,-53.933,1.992,-2.993,2.686
-992.618,-35.878,-52.632,1.455,-2.609,1.754
-996.138,-36.044,-48.599,0.715,-1.975,0.915
-998.741,-36.067,-45.066,0.111,-1.183,0.120
-1000.957,-34.552,-45.735,-0.394,-0.512,-0.309
-1000.630,-31.116,-45.804,-0.648,-0.279,-0.411
-1001.445,-25.370,-43.416,-0.549,-0.358,-0.420
-1001.813,-21.891,-43.847,-0.428,-0.622,-0.426
-1002.219,-20.478,-46.467,-0.063,-0.798,-0.402
-1004.413,-17.429,-44.529,0.415,-0.756,-0.353
-1006.000,-14.000,-44.000,0.910,-0.630,-0.560
-1005.122,-13.642,-48.248,1.703,-0.395,-0.987
-1004.019,-17.394,-53.239,2.278,-0.121,-1.291
-998.888,-23.061,-59.330,2.568,-0.061,-1.391
-997.534,-29.031,-64.160,2.681,-0.306,-1.616
-1006.776,-31.372,-64.668,2.524,-0.733,-1.752
-1010.929,-32.542,-62.480,2.553,-1.131,-1.446
-1008.941,-36.263,-60.876,2.659,-1.421,-1.101
-1010.736,-37.125,-57.425,2.530,-1.666,-0.980
-1014.784,-35.149,-51.861,2.549,-1.710,-1.038
-1020.205,-36.428,-49.583,2.688,-1.535,-0.949
-1022.342,-40.303,-47.118,2.502,-1.393,-0.287
-1018.687,-40.518,-43.812,2.134,-1.270,0.797
-1012.892,-38.206,-44.445,1.646,-1.167,1.688
-1004.767,-34.227,-43.500,1.031,-1.106,1.958
-1000.000,-30.000,-39.000,0.560,-0.910,1.610
-999.976,-29.181,-36.353,0.133,-0.555,0.887
-999.399,-26.761,-33.124,-0.173,-0.086,0.217
-997.674,-26.024,-31.060,-0.225,0.373,-0.126
-995.847,-27.636,-33.671,-0.168,0.515,-0.045
-993.994,-26.367,-35.511,0.011,0.319,0.252
-991.471,-26.017,-37.525,0.156,-0.011,0.462
-992.222,-24.831,-37.890,0.137,-0.292,0.642
-994.903,-23.063,-36.905,0.197,-0.228,0.701
-995.673,-22.294,-40.070,0.385,-0.015,0.698
-996.878,-21.424,-43.276,0.506,-0.063,0.615
-996.433,-24.347,-44.956,0.697,-0.308,0.230
-1001.027,-28.823,-47.292,0.930,-0.632,0.053
-1008.552,-29.895,-51.218,0.988,-0.651,0.312
-1007.434,-27.448,-54.566,1.066,-0.289,0.588
-1005.000,-23.000,-61.000,1.120,0.000,0.490
-1006.477,-19.288,-66.804,1.217,0.078,-0.162
-1011.109,-18.801,-67.176,1.578,-0.065,-0.801
-1017.118,-19.104,-71.084,1.799,-0.317,-1.012
-1022.571,-19.230,-70.811,1.858,-0.507,-0.825
-1025.510,-20.201,-68.938,2.039,-0.579,-0.226
-1026.109,-18.477,-69.868,2.204,-0.648,0.402
-1028.252,-19.293,-66.778,2.399,-0.617,0.712
-1031.768,-23.771,-66.021,2.587,-0.310,0.768
-1033.259,-24.946,-63.867,2.490,0.101,0.904
-1030.386,-25.266,-60.834,2.386,0.600,1.309
-1026.867,-23.514,-57.761,2.315,0.948,1.660
-1024.745,-21.466,-52.949,2.039,1.173,1.779
-1020.178,-22.220,-50.086,1.963,1.616,1.717
-1014.123,-20.501,-45.135,1.851,1.915,1.593
-1008.000,-17.000,-41.000,1.610,2.030,1.470
-999.289,-15.165,-39.173,1.667,2.159,1.282
-993.062,-13.738,-38.389,1.676,2.143,1.240
-988.555,-11.350,-36.159,1.827,1.952,1.279
-979.400,-11.666,-35.132,2.286,1.641,1.244
-971.286,-13.549,-37.734,2.636,1.225,1.261
-969.008,-14.200,-35.012,2.946,0.733,1.038
-972.305,-16.179,-32.987,3.237,0.486,0.679
-972.343,-17.895,-32.133,3.356,0.611,0.503
-968.054,-20.128,-32.785,3.455,0.912,0.233
-970.000,-24.373,-38.660,3.663,1.092,-0.195
-970.177,-28.232,-41.067,3.714,0.864,-0.540
-968.140,-31.545,-45.708,3.749,0.389,-0.663
-967.778,-34.950,-49.541,3.871,-0.305,-0.732
-968.404,-35.921,-50.191,3.748,-0.996,-0.958
-974.000,-36.000,-51.000,3.570,-1.330,-1.400
-980.942,-41.082,-49.866,3.451,-1.399,-1.852
-987.363,-44.836,-52.348,3.320,-1.434,-1.885
-992.462,-45.645,-52.974,3.224,-1.589,-1.649
-1000.564,-48.654,-54.393,3.012,-1.788,-1.410
-1005.857,-48.326,-58.162,2.651,-1.904,-1.191
-1006.180,-46.851,-59.181,2.189,-1.669,-1.227
-1009.252,-45.816,-61.222,1.559,-1.387,-1.493
-1010.921,-42.269,-64.709,1.009,-1.268,-1.795
-1013.179,-39.546,-67.159,0.743,-1.275,-2.118
-1015.990,-36.915,-64.946,0.582,-1.609,-2.157
-1018.935,-35.210,-63.331,0.591,-1.943,-1.715
-1023.679,-34.612,-62.634,0.605,-2.204,-1.121
-1018.916,-31.810,-63.471,0.300,-2.233,-0.549
-1008.087,-25.909,-60.960,-0.037,-2.435,-0.654
-1016.000,-19.000,-53.000,-0.140,-2.520,-1.680
-1027.443,-16.845,-53.616,-0.138,-1.744,-2.189
-1015.535,-18.121,-53.096,-0.184,-1.057,-1.864
-1006.977,-15.753,-50.916,-0.267,-0.636,-1.584
-1011.798,-9.573,-49.561,-0.247,-0.628,-1.549
-1014.584,-6.403,-41.812,-0.050,-0.789,-1.633
-1015.999,-5.635,-37.328,0.199,-0.559,-1.482
-1012.630,-2.816,-32.499,0.520,-0.171,-1.332
-1009.984,-2.854,-28.040,0.946,0.445,-1.520
-1010.371,-4.634,-29.619,1.417,0.851,-1.768
-1006.353,-7.200,-30.057,1.997,1.112,-1.927
-1000.008,-11.961,-30.988,2.624,1.185,-1.656
-996.695,-15.537,-34.881,3.177,0.908,-1.036
-993.534,-18.925,-37.693,3.496,0.747,-0.459
-987.054,-20.106,-40.546,3.574,0.781,-0.031
-985.000,-23.000,-44.000,3.570,0.770,-0.140
-988.525,-26.765,-45.778,3.516,0.632,-0.467
-989.494,-29.048,-47.451,3.358,0.736,-0.471
-987.804,-36.976,-49.147,3.170,0.701,-0.238
-988.133,-41.315,-51.063,3.168,0.384,0.128
-987.107,-43.339,-52.301,3.083,0.099,0.324
-985.921,-49.363,-53.386,2.804,-0.205,0.349
-987.146,-53.213,-55.050,2.489,-0.437,0.270
-989.761,-55.006,-54.105,1.938,-0.624,0.203
-991.423,-52.835,-54.409,1.410,-0.580,0.426
-987.827,-49.813,-56.827,1.132,-0.638,0.620
-987.619,-47.439,-56.116,0.944,-1.035,0.601
-991.240,-45.234,-54.201,0.938,-1.446,0.527
-992.088,-44.911,-52.239,1.104,-1.892,0.473
-993.144,-43.825,-49.758,1.196,-2.290,0.308
-994.000,-44.000,-50.000,1.260,-2.450,-0.140
-1000.528,-46.427,-49.268,1.341,-2.287,-0.756
-1007.157,-51.253,-49.585,1.102,-1.937,-1.075
-1004.104,-55.784,-54.429,0.726,-1.600,-0.892
-1003.063,-54.561,-53.615,0.305,-1.578,-0.918
-1006.102,-50.731,-52.015,-0.291,-1.705,-1.234
-1009.828,-50.064,-52.872,-0.605,-1.562,-1.326
-1012.034,-48.745,-49.751,-0.868,-1.387,-1.171
-1010.287,-44.322,-48.931,-1.239,-1.083,-0.862
-1005.242,-40.783,-49.187,-1.436,-0.683,-0.733
-1001.900,-37.506,-48.713,-1.547,-0.568,-1.092
-1005.771,-38.024,-49.585,-1.484,-0.525,-1.680
-1008.471,-41.227,-50.516,-1.526,-0.488,-1.769
-1009.147,-40.208,-52.689,-1.746,-0.612,-1.303
-1007.369,-36.327,-52.730,-1.914,-0.796,-0.864
-1003.000,-32.000,-50.000,-2.030,-0.910,-0.840
-1003.713,-30.034,-48.959,-1.976,-0.916,-1.039
-1004.220,-30.123,-49.192,-1.899,-0.863,-0.971
-1003.754,-28.766,-47.905,-1.884,-0.791,-0.756
-1003.005,-24.174,-46.217,-1.901,-0.753,-0.467
-999.250,-19.585,-46.173,-1.866,-0.628,-0.362
-996.503,-17.598,-47.331,-1.814,-0.360,-0.641
-996.093,-15.944,-49.164,-1.736,-0.202,-1.009
-998.776,-17.732,-51.767,-1.485,-0.081,-1.261
-1000.152,-20.046,-54.593,-1.450,-0.035,-0.917
-998.957,-19.542,-55.259,-1.433,-0.293,-0.365
-999.692,-21.923,-54.726,-1.123,-0.589,-0.288
-1004.196,-25.600,-55.443,-0.895,-0.775,-0.386
-1007.248,-29.103,-56.104,-0.711,-0.847,-0.288
-1005.760,-30.996,-55.920,-0.638,-0.843,0.057
-1006.000,-29.000,-55.000,-0.840,-0.910,0.280
-1006.928,-27.955,-54.095,-1.089,-0.868,0.275
-1006.737,-28.168,-53.357,-1.275,-0.631,0.409
-1002.064,-27.059,-52.181,-1.438,-0.456,0.679
-996.014,-24.268,-52.306,-1.442,-0.385,0.813
-994.412,-20.710,-53.243,-1.239,-0.348,0.704
-992.590,-18.687,-52.840,-0.989,-0.454,0.533
-994.293,-17.980,-53.089,-0.674,-0.566,0.571
-996.132,-18.013,-54.031,-0.429,-0.684,0.756
-993.305,-16.700,-51.851,-0.370,-0.932,0.901
-993.743,-13.200,-48.605,-0.220,-1.056,0.789
-996.809,-10.913,-47.734,-0.030,-0.995,0.307
-1000.319,-11.815,-48.551,0.192,-0.819,-0.032
-1000.384,-15.076,-50.729,0.504,-0.670,0.068
-997.676,-17.086,-52.039,0.546,-0.724,0.408
-997.000,-16.000,-51.000,0.420,-0.980,0.700
-998.582,-14.246,-48.449,0.304,-1.128,0.765
-999.899,-12.535,-46.185,0.157,-0.973,0.857
-994.626,-11.135,-46.124,0.167,-0.805,1.016
-990.127,-11.255,-45.374,0.277,-0.782,1.040
-992.474,-12.746,-45.412,0.565,-1.051,0.947
-999.761,-15.789,-47.235,0.999,-1.507,1.154
-1004.045,-18.051,-45.815,1.195,-1.999,1.964
-1002.180,-16.297,-44.099,1.194,-2.373,2.822
-1000.373,-11.320,-41.804,1.132,-2.154,3.126
-998.765,-6.132,-39.101,1.113,-1.561,2.603
-999.993,-4.811,-39.254,1.133,-0.995,1.659
-1003.982,-7.381,-38.444,1.323,-0.655,1.022
-1011.416,-9.459,-37.933,1.868,-0.665,0.835
-1016.377,-11.520,-36.727,2.474,-0.874,1.107
-1019.000,-18.000,-37.000,3.150,-0.980,1.330
-1022.888,-27.612,-42.125,3.615,-0.815,1.326
-1021.465,-35.702,-47.421,3.656,-0.402,1.319
-1020.565,-43.465,-52.326,3.532,0.277,1.014
-1017.919,-50.124,-55.564,3.085,0.792,0.689
-1017.426,-52.620,-59.961,2.655,1.099,0.484
-1016.902,-54.462,-63.303,2.170,1.376,0.445
-1008.464,-54.893,-63.002,1.575,1.394,0.723
-1006.912,-52.221,-63.952,1.282,1.275,0.903
-1005.812,-50.203,-63.305,0.881,0.985,0.975
-1002.714,-49.846,-62.760,0.469,0.795,0.940
-998.900,-50.215,-63.166,0.123,0.996,0.901
-991.413,-49.348,-62.724,-0.382,1.168,0.861
-986.567,-47.488,-61.465,-0.815,1.057,0.489
-981.265,-47.041,-59.848,-1.081,0.699,0.090
-981.000,-47.000,-59.000,-1.260,0.070,-0.140
-986.283,-44.511,-54.901,-1.501,-0.736,-0.103
-989.046,-41.258,-49.331,-1.740,-1.167,0.109
-987.368,-35.361,-45.836,-2.035,-1.160,0.127
-983.901,-26.033,-44.283,-2.269,-1.046,-0.061
-980.467,-20.097,-41.679,-2.322,-0.825,-0.606
-977.395,-14.778,-38.557,-2.277,-0.790,-1.361
-977.122,-13.123,-39.126,-1.926,-1.003,-2.002
-980.602,-15.006,-40.826,-1.560,-1.486,-2.369
-987.092,-13.450,-44.692,-1.314,-2.235,-2.351
-995.700,-11.029,-49.880,-1.164,-2.673,-2.105
-1002.031,-4.436,-51.690,-1.298,-2.772,-1.707
-1002.914,0.706,-52.432,-1.488,-2.823,-1.477
-1006.909,4.797,-52.820,-1.791,-2.897,-1.462
-1015.258,13.360,-49.189,-2.045,-2.933,-1.286
-1021.000,21.000,-44.000,-1.890,-2.730,-0.840
-1021.210,28.059,-39.788,-1.480,-2.421,-0.173
-1022.138,32.485,-34.283,-0.859,-2.179,0.415
-1028.292,32.550,-31.935,-0.110,-1.890,0.882
-1025.856,28.854,-31.532,0.545,-1.638,1.407
-1018.586,28.691,-29.081,1.158,-1.618,1.786
-1016.691,29.668,-29.435,1.948,-1.468,1.793
-1014.861,24.520,-32.224,2.791,-0.930,1.593
-1013.195,18.509,-34.840,3.577,-0.260,1.409
-1009.149,10.786,-36.547,4.386,0.278,1.425
-1004.401,4.578,-39.433,4.989,0.434,1.665
-1000.273,-0.009,-43.002,5.526,0.402,1.825
-998.721,-8.545,-44.789,6.185,0.452,1.760
-1000.231,-21.178,-48.385,6.729,0.501,1.548
-998.615,-35.147,-54.002,7.117,0.580,1.464
-997.000,-49.000,-62.000,7.140,0.700,1.330
-996.191,-59.098,-67.673,6.508,0.588,1.139
-994.124,-63.613,-69.207,5.591,0.522,0.950
-989.612,-67.439,-71.863,4.705,0.595,0.608
-986.805,-64.230,-70.746,3.768,0.263,0.589
-987.075,-59.998,-68.188,3.066,-0.150,0.488
-990.136,-56.627,-64.906,2.644,-0.725,0.574
-996.345,-48.506,-59.678,2.367,-1.361,1.076
-996.192,-46.923,-56.327,2.252,-1.531,1.123
-997.342,-45.900,-50.444,1.934,-1.723,1.226
-1004.237,-42.045,-45.797,1.432,-1.573,1.133
-1002.456,-39.458,-43.881,0.988,-0.878,0.455
-999.056,-36.817,-42.555,0.408,-0.392,-0.228
-1002.263,-33.904,-41.409,-0.122,-0.253,-0.781
-1005.211,-29.329,-38.689,-0.202,-0.113,-1.072
-1004.000,-27.000,-39.000,-0.210,-0.070,-0.980
-1001.158,-27.034,-39.173,-0.285,-0.427,-0.610
-1001.628,-25.371,-38.670,-0.217,-0.693,-0.392
-1001.345,-20.369,-39.804,-0.228,-0.638,-0.241
-997.296,-19.556,-40.363,-0.121,-0.450,-0.317
-994.185,-23.327,-43.557,0.037,-0.333,-0.848
-997.019,-23.831,-46.259,-0.022,-0.464,-1.151
-1000.028,-22.936,-45.984,-0.071,-0.641,-1.194
-998.165,-22.047,-46.874,-0.069,-0.702,-1.256
-997.143,-22.518,-48.559,-0.116,-0.640,-1.269
-995.092,-25.093,-50.917,-0.237,-0.656,-1.184
-992.861,-26.566,-53.101,-0.344,-0.811,-1.000
-995.258,-25.070,-52.246,-0.496,-1.190,-0.871
-997.421,-23.831,-50.605,-0.553,-1.665,-0.966
-1000.844,-24.099,-49.952,-0.486,-1.823,-1.233
-1007.000,-26.000,-51.000,-0.560,-1.750,-1.400
-1007.489,-28.843,-54.534,-0.782,-1.623,-1.189
-1004.331,-27.957,-56.034,-1.259,-1.603,-0.690
-1003.985,-24.213,-56.323,-1.575,-1.582,-0.390
-1002.583,-19.749,-57.520,-1.673,-1.516,-0.336
-1000.392,-19.636,-56.206,-1.902,-1.550,-0.378
-1002.694,-20.909,-54.887,-1.844,-1.426,-0.408
-1003.961,-18.881,-55.007,-1.675,-1.333,-0.188
-1003.020,-18.976,-54.993,-1.680,-1.461,-0.004
-1003.673,-17.640,-55.068,-1.628,-1.448,-0.040
-1004.700,-15.802,-54.395,-1.590,-1.141,-0.234
-1004.419,-16.703,-53.396,-1.679,-0.734,-0.548
-1003.531,-16.833,-52.686,-1.796,-0.447,-0.808
-1004.166,-15.452,-51.436,-1.816,-0.348,-0.916
-1003.881,-13.851,-48.530,-1.722,-0.531,-0.727
-1003.000,-14.000,-47.000,-1.400,-0.770,-0.490
-999.691,-14.124,-47.120,-1.132,-0.948,-0.365
-997.257,-12.661,-45.597,-1.123,-1.117,-0.391
-1000.633,-10.576,-43.462,-1.081,-1.019,-0.855
-1002.129,-9.807,-40.064,-1.008,-0.780,-1.367
-1003.883,-10.221,-39.370,-0.818,-0.537,-1.591
-1006.204,-11.301,-41.177,-0.585,-0.415,-1.486
-1007.193,-11.996,-39.886,-0.404,-0.497,-1.164
-1010.802,-11.935,-39.944,-0.218,-0.556,-0.802
-1011.183,-13.614,-39.402,-0.202,-0.618,-0.409
-1011.218,-14.276,-38.956,-0.212,-0.613,-0.280
-1012.447,-13.717,-41.754,-0.234,-0.406,-0.269
-1013.580,-14.585,-41.358,-0.321,-0.022,-0.354
-1017.073,-16.881,-41.414,-0.341,0.279,-0.642
-1019.092,-20.590,-43.166,-0.174,0.448,-0.581
-1017.000,-23.000,-44.000,0.000,0.630,-0.000
-1010.129,-21.458,-46.602,-0.008,0.636,0.529
-1004.648,-19.128,-48.451,0.147,0.662,0.458
-1002.972,-19.514,-51.453,0.277,0.789,0.111
-999.055,-20.470,-56.903,0.301,0.907,-0.081
-992.649,-21.218,-59.538,0.357,0.994,-0.174
-992.557,-20.875,-60.217,0.254,0.867,-0.325
-993.869,-22.240,-62.198,0.290,0.686,-0.496
-989.382,-24.954,-64.825,0.355,0.443,-0.430
-986.189,-24.110,-66.111,0.237,0.184,-0.430
-986.493,-25.152,-64.698,0.129,-0.026,-0.812
-991.303,-26.393,-63.427,-0.071,-0.324,-1.172
-997.425,-25.961,-61.730,-0.301,-0.449,-1.306
-1002.481,-27.552,-56.324,-0.346,-0.528,-1.296
-1006.380,-27.916,-55.273,-0.365,-0.636,-0.898
-1007.000,-27.000,-56.000,-0.560,-0.560,-0.490
-1007.030,-25.337,-52.344,-0.693,-0.389,-0.481
-1005.837,-23.353,-52.489,-0.778,-0.084,-0.496
-1002.126,-22.796,-53.165,-0.993,0.084,-0.470
-997.004,-23.251,-53.575,-1.070,0.039,-0.302
-994.357,-22.330,-55.402,-1.193,-0.048,-0.059
-995.230,-19.173,-53.251,-1.335,-0.254,0.115
-996.052,-15.762,-50.880,-1.176,-0.274,0.370
-996.083,-13.170,-49.155,-1.120,-0.271,0.551
-994.360,-10.714,-47.908,-0.983,-0.407,0.628
-993.094,-7.678,-48.817,-0.717,-0.417,0.565
-992.475,-6.823,-48.338,-0.710,-0.437,0.324
-993.759,-6.941,-45.777,-0.479,-0.365,-0.037
-996.966,-7.454,-45.244,-0.252,-0.265,-0.357
-1000.532,-10.443,-47.298,-0.275,-0.283,-0.406
-1001.000,-11.000,-48.000,-0.070,-0.280,-0.140
-995.686,-9.970,-48.728,0.120,-0.389,0.242
-993.750,-10.753,-50.587,0.317,-0.620,0.318
-994.629,-11.438,-51.632,0.659,-0.878,0.203
-998.231,-13.027,-52.230,0.845,-1.066,0.300
-1001.126,-14.063,-51.701,0.958,-1.134,0.628
-998.206,-12.603,-52.467,1.066,-1.107,0.868
-996.942,-12.027,-55.163,1.046,-1.046,0.748
-994.274,-12.896,-55.978,1.043,-0.986,0.321
-993.838,-15.172,-56.779,1.169,-0.951,-0.235
-999.912,-18.870,-56.711,1.198,-1.199,-0.603
-1003.290,-21.248,-55.016,1.214,-1.475,-0.530
-1004.184,-22.349,-55.277,1.271,-1.603,-0.197
-1005.353,-21.573,-54.493,1.136,-1.809,-0.057
-1007.346,-21.129,-52.813,1.046,-1.798,-0.074
-1009.000,-23.000,-52.000,0.980,-1.610,-0.140
-1010.672,-23.947,-51.904,0.796,-1.380,-0.164
-1011.097,-24.150,-52.248,0.630,-1.049,0.077
-1006.225,-22.941,-51.164,0.373,-0.921,0.148
-1005.179,-21.254,-51.183,0.251,-0.866,-0.040
-1007.364,-20.854,-50.387,0.283,-0.709,-0.176
-1006.714,-19.665,-48.748,0.181,-0.615,-0.092
-1005.916,-19.008,-47.896,0.142,-0.556,0.237
-1004.106,-19.054,-46.111,0.144,-0.556,0.480
-1005.086,-17.498,-45.201,0.077,-0.621,0.510
-1008.553,-15.544,-44.138,0.075,-0.607,0.391
-1007.305,-14.307,-44.496,0.012,-0.450,0.316
-1002.650,-14.134,-44.821,-0.114,-0.281,0.213
-1000.917,-15.428,-43.895,-0.020,-0.184,0.014
-1002.125,-16.038,-45.264,0.070,-0.141,-0.079
-1001.000,-17.000,-46.000,0.070,-0.210,-0.140
-999.905,-18.821,-46.786,0.257,-0.169,-0.196
-1000.780,-19.670,-47.847,0.223,0.034,-0.385
-1001.629,-20.850,-48.519,-0.028,0.082,-0.734
-1004.294,-20.366,-49.040,-0.084,0.069,-0.862
-1004.400,-18.162,-47.065,-0.194,0.057,-0.679
-1004.241,-16.802,-45.945,-0.172,-0.017,-0.436
-1006.075,-17.097,-46.001,0.087,-0.074,-0.190
-1005.982,-18.869,-46.830,0.205,-0.137,0.053
-1006.988,-20.507,-50.068,0.319,-0.101,0.287
-1004.180,-23.092,-54.287,0.355,0.041,0.557
-998.843,-24.501,-58.460,0.093,0.056,0.687
-997.241,-23.235,-60.745,-0.186,-0.057,0.704
-995.555,-21.434,-60.737,-0.430,-0.183,0.695
-997.472,-19.804,-58.653,-0.655,-0.385,0.707
-997.000,-19.000,-58.000,-0.700,-0.560,0.770
-993.049,-18.120,-58.248,-0.697,-0.617,0.826
-994.673,-17.444,-55.699,-0.706,-0.766,0.943
-993.733,-14.602,-54.284,-0.693,-1.038,1.035
-992.649,-8.799,-53.228,-0.697,-1.374,1.043
-992.372,-4.797,-51.365,-0.547,-1.595,0.907
-990.812,-2.559,-51.108,-0.298,-1.606,0.623
-992.137,-2.081,-52.066,-0.128,-1.610,0.167
-992.976,-4.730,-52.053,0.056,-1.548,-0.384
-993.708,-7.658,-51.832,0.194,-1.516,-0.759
-994.917,-8.166,-52.324,0.277,-1.651,-1.162
-998.189,-8.107,-51.167,0.530,-1.658,-1.531
-1002.913,-10.364,-51.232,0.800,-1.580,-1.617
-1007.293,-14.158,-50.471,0.833,-1.509,-1.470
-1010.160,-15.977,-48.840,0.849,-1.387,-1.136
-1010.000,-13.000,-47.000,0.910,-1.400,-0.910
-1014.091,-10.010,-43.263,0.962,-1.303,-1.065
-1017.887,-11.899,-44.071,1.098,-0.956,-1.419
-1018.047,-15.465,-46.831,1.071,-0.584,-1.383
-1019.255,-18.455,-49.570,0.854,-0.258,-0.900
-1016.214,-18.463,-51.155,0.589,-0.092,-0.371
-1013.613,-15.191,-49.526,0.288,0.029,-0.126
-1011.833,-12.907,-47.902,0.132,0.152,-0.298
-1010.947,-12.908,-47.851,0.011,0.457,-0.422
-1010.716,-14.653,-51.190,-0.078,0.811,-0.324
-1006.288,-15.235,-53.221,0.020,0.813,-0.060
-1003.464,-14.814,-52.028,0.122,0.667,0.225
-1002.529,-15.097,-50.228,0.153,0.279,0.321
-1002.981,-15.083,-50.342,0.258,-0.071,0.603
-999.024,-16.097,-52.330,0.442,-0.145,0.854
-995.000,-14.000,-55.000,0.420,-0.140,0.770
-995.416,-11.747,-57.061,0.289,-0.073,0.490
-990.730,-15.113,-55.884,0.243,-0.043,-0.052
-992.059,-16.307,-57.907,0.108,0.132,-0.413
-996.551,-16.196,-58.385,0.086,-0.007,-0.343
-997.328,-17.271,-54.795,0.165,-0.419,-0.134
-1000.515,-16.943,-53.749,0.234,-0.587,-0.082
-998.715,-18.149,-50.739,0.356,-0.706,-0.221
-996.935,-19.050,-49.878,0.353,-0.643,-0.339
-998.559,-18.035,-51.106,0.349,-0.460,-0.562
-1000.676,-18.746,-50.157,0.284,-0.281,-0.784
-1002.870,-18.028,-50.309,0.103,-0.102,-0.596
-999.288,-14.466,-51.788,0.076,0.097,-0.150
-993.693,-14.260,-53.283,0.051,0.224,-0.005
-994.452,-13.734,-52.901,-0.003,0.116,-0.165
-996.000,-13.000,-53.000,0.000,-0.000,-0.210
-994.896,-14.140,-51.531,-0.060,-0.059,-0.095
-997.110,-11.711,-48.379,-0.047,-0.165,0.082
-999.137,-10.783,-47.979,0.139,-0.282,0.287
-1000.387,-10.675,-47.875,0.236,-0.239,0.616
-998.645,-9.940,-48.155,0.186,-0.216,0.932
-997.143,-9.625,-47.843,0.117,-0.186,0.841
-1000.202,-5.692,-48.087,-0.090,0.018,0.216
-1000.133,-4.831,-48.970,-0.277,0.319,-0.704
-999.023,-7.506,-50.806,-0.186,0.722,-1.294
-998.742,-9.354,-56.695,0.034,0.639,-1.180
-999.622,-10.750,-57.709,0.352,-0.023,-0.568
-1001.562,-11.168,-57.609,0.722,-0.745,0.028
-1001.924,-12.633,-60.657,0.977,-1.354,0.229
-1002.081,-15.520,-59.769,1.133,-1.622,0.105
-1004.000,-19.000,-60.000,1.050,-1.470,-0.280
-1009.139,-20.065,-59.359,0.802,-1.109,-0.883
-1013.390,-20.307,-57.838,0.622,-0.736,-1.433
-1014.176,-23.066,-58.384,0.386,-0.434,-1.637
-1012.900,-24.232,-57.223,0.224,-0.282,-1.525
-1011.377,-24.028,-57.252,0.357,-0.174,-1.315
-1010.749,-25.473,-58.312,0.503,-0.257,-1.053
-1008.813,-27.028,-61.295,0.407,-0.504,-0.748
-1006.199,-25.257,-63.108,0.225,-0.561,-0.562
-1004.710,-22.342,-60.456,-0.050,-0.519,-0.700
-1007.439,-21.401,-59.468,-0.445,-0.314,-0.991
-1009.553,-19.982,-57.035,-0.666,-0.096,-1.047
-1008.057,-18.196,-54.015,-0.699,-0.085,-0.906
-1008.004,-16.537,-54.045,-0.573,-0.175,-0.690
-1006.644,-15.986,-52.682,-0.405,-0.294,-0.375
-1005.000,-15.000,-51.000,-0.420,-0.280,-0.280
-1004.336,-13.081,-50.058,-0.476,0.000,-0.464
-1000.523,-13.205,-50.566,-0.669,0.499,-0.553
-995.993,-11.334,-51.394,-0.958,0.804,-0.616
-993.983,-9.151,-50.495,-0.885,0.839,-0.805
-994.150,-8.848,-51.839,-0.592,0.669,-0.779
-994.878,-7.774,-52.940,-0.366,0.244,-0.383
-992.857,-8.087,-51.982,-0.042,-0.170,0.027
-992.943,-8.990,-52.932,0.205,-0.538,0.331
-991.119,-8.308,-52.387,0.163,-0.654,0.405
-987.733,-7.525,-51.589,0.089,-0.523,-0.028
-992.380,-9.635,-52.446,0.029,-0.457,-0.664
-995.719,-11.422,-51.329,0.005,-0.393,-1.016
-997.646,-10.788,-51.016,0.114,-0.464,-0.904
-997.701,-11.125,-49.638,0.322,-0.663,-0.580
-997.000,-12.000,-49.000,0.700,-0.910,-0.280
-1000.773,-12.930,-52.575,1.026,-1.111,-0.026
-999.004,-12.918,-53.327,1.069,-1.080,0.071
-997.630,-14.344,-52.720,1.005,-0.978,0.015
-1000.073,-17.819,-53.423,0.950,-0.804,-0.192
-1001.165,-19.358,-54.423,0.892,-0.673,-0.279
-1002.166,-20.207,-54.985,0.929,-0.717,-0.197
-1004.291,-21.084,-55.091,0.977,-0.773,-0.210
-1007.924,-22.854,-57.764,0.852,-0.774,-0.087
-1005.801,-23.374,-59.790,0.732,-0.708,0.115
-1003.791,-21.470,-60.710,0.494,-0.733,0.161
-1003.036,-20.314,-60.761,0.175,-0.818,0.057
-1001.643,-17.426,-59.432,0.161,-0.860,-0.207
-1005.264,-16.076,-58.608,0.103,-0.931,-0.508
-1007.017,-17.010,-55.431,0.089,-0.888,-0.724
-1007.000,-16.000,-54.000,0.280,-0.630,-0.770
-1006.341,-16.832,-55.776,0.340,-0.376,-0.707
-1003.189,-16.499,-57.234,0.460,-0.243,-0.694
-999.140,-15.986,-60.109,0.445,-0.174,-0.725
-997.255,-18.068,-60.901,0.254,-0.308,-0.863
-998.213,-17.519,-59.516,0.197,-0.456,-1.018
-997.681,-16.939,-58.777,0.122,-0.513,-0.958
-998.213,-15.906,-56.819,0.149,-0.717,-0.991
-1002.647,-16.770,-55.076,0.273,-0.838,-1.058
-1005.732,-18.490,-54.231,0.339,-0.881,-0.828
-1006.346,-14.965,-53.217,0.365,-1.024,-0.630
-1007.993,-13.956,-52.933,0.306,-1.007,-0.403
-1008.668,-13.228,-52.965,0.289,-0.818,-0.263
-1005.878,-12.113,-53.171,0.383,-0.649,-0.524
-1003.948,-14.262,-54.084,0.413,-0.461,-0.807
-1005.000,-14.000,-53.000,0.280,-0.350,-1.050
-1005.900,-14.695,-51.123,0.206,-0.355,-1.135
-1006.700,-16.028,-50.476,0.226,-0.259,-1.003
-1007.047,-15.832,-48.213,0.149,-0.113,-0.979
-1006.514,-16.402,-46.086,0.189,-0.035,-0.956
-1007.246,-17.526,-46.508,0.328,0.023,-0.877
-1006.194,-19.459,-49.993,0.460,0.083,-0.724
-1000.597,-21.121,-53.098,0.637,0.146,-0.554
-998.890,-22.875,-52.997,0.511,0.269,-0.617
-1000.135,-23.878,-54.422,0.302,0.396,-0.796
-998.426,-25.015,-56.102,0.176,0.510,-0.989
-997.551,-27.552,-55.601,-0.119,0.602,-1.090
-998.028,-27.475,-57.091,-0.217,0.468,-0.967
-997.567,-25.470,-59.426,-0.226,0.183,-0.660
-995.806,-25.017,-58.901,-0.282,-0.203,-0.304
-996.000,-25.000,-61.000,-0.280,-0.490,-0.140
-995.234,-24.213,-64.080,-0.448,-0.553,-0.072
-995.682,-22.499,-61.697,-0.778,-0.548,-0.191
-999.617,-21.369,-60.551,-1.228,-0.266,-0.410
-998.434,-19.747,-58.089,-1.511,-0.099,-0.161
-996.229,-15.256,-56.088,-1.531,-0.160,-0.007
-994.438,-14.186,-59.613,-1.437,-0.261,-0.147
-994.157,-13.790,-56.552,-1.245,-0.744,0.177
-996.041,-10.165,-53.867,-1.065,-1.111,0.485
-993.608,-9.974,-56.047,-0.870,-1.122,0.481
-991.501,-8.322,-54.475,-0.824,-1.127,0.529
-989.938,-6.120,-54.319,-0.830,-1.085,0.281
-992.958,-7.982,-55.413,-0.716,-1.034,-0.228
-996.293,-7.452,-56.168,-0.714,-1.074,-0.431
-996.193,-5.859,-54.496,-0.675,-1.215,-0.240
-999.000,-5.000,-52.000,-0.350,-1.330,-0.070
-998.233,-3.937,-53.723,-0.032,-1.333,-0.073
-998.395,-5.962,-54.171,0.150,-1.328,-0.014
-999.850,-8.629,-54.286,0.324,-1.330,-0.030
-1003.021,-9.443,-55.901,0.341,-1.334,-0.075
-1006.447,-12.385,-57.765,0.381,-1.305,0.064
-1004.421,-13.911,-59.125,0.410,-1.150,0.142
-1005.210,-13.062,-59.017,0.350,-1.047,0.058
-1007.821,-16.661,-59.943,0.418,-0.989,-0.189
-1010.470,-18.437,-59.407,0.324,-0.861,-0.314
-1010.750,-16.274,-58.037,0.197,-0.799,-0.049
-1008.689,-16.148,-58.123,0.261,-0.693,0.203
-1009.122,-15.515,-57.617,0.263,-0.612,0.344
-1008.733,-15.003,-56.844,0.188,-0.632,0.433
-1009.108,-14.904,-57.073,0.129,-0.536,0.418
-1008.000,-14.000,-57.000,0.000,-0.350,0.420
-1006.004,-13.968,-56.822,-0.077,-0.111,0.254
-1006.284,-14.020,-58.611,-0.004,0.147,0.018
-1004.121,-13.995,-58.708,-0.045,0.289,0.065
-1001.572,-13.995,-57.327,-0.053,0.220,0.201
-1000.935,-13.896,-56.787,0.017,0.109,0.197
-1003.741,-12.550,-55.668,-0.006,0.052,0.236
-1004.954,-10.949,-53.847,0.085,-0.080,0.437
-1004.882,-11.830,-52.919,0.333,-0.140,0.616
-1005.678,-14.476,-55.407,0.432,-0.139,0.849
-1000.066,-15.128,-56.399,0.364,-0.111,0.993
-996.738,-11.397,-55.923,0.310,0.008,0.613
-998.596,-10.217,-58.157,0.095,0.133,0.017
-997.063,-12.666,-58.987,0.008,0.353,-0.370
-994.894,-12.929,-59.096,0.072,0.398,-0.493
-997.000,-13.000,-60.000,0.070,0.070,-0.420
-999.994,-13.851,-60.875,0.196,-0.243,-0.244
-997.834,-14.832,-61.178,0.211,-0.484,-0.038
-996.743,-14.667,-60.702,0.261,-0.684,0.019
-998.798,-13.271,-61.639,0.202,-0.652,-0.029
-998.604,-13.061,-61.802,-0.118,-0.506,-0.106
-999.207,-12.846,-60.726,-0.210,-0.394,-0.248
-1000.074,-11.951,-58.798,-0.211,-0.272,-0.433
-1001.841,-11.967,-56.981,-0.153,-0.272,-0.497
-1002.415,-12.117,-58.680,0.038,-0.400,-0.324
-1000.124,-11.326,-58.074,0.092,-0.433,-0.203
-1000.287,-10.768,-56.467,0.048,-0.389,-0.269
-1000.719,-11.459,-59.843,0.100,-0.311,-0.423
-999.567,-11.943,-60.635,0.011,-0.283,-0.496
-998.936,-10.850,-58.857,-0.243,-0.268,-0.494
-998.000,-11.000,-59.000,-0.350,-0.140,-0.560
-996.951,-10.289,-58.953,-0.362,-0.241,-0.566
-998.332,-9.476,-59.788,-0.166,-0.461,-0.517
-999.729,-11.240,-59.599,0.075,-0.524,-0.377
-999.529,-9.802,-58.696,-0.004,-0.597,-0.201
-998.132,-9.139,-59.020,-0.073,-0.481,-0.265
-996.825,-8.500,-57.633,-0.091,-0.231,-0.467
-996.981,-5.893,-58.157,-0.295,-0.140,-0.641
-995.175,-5.984,-59.112,-0.296,-0.261,-0.702
-995.189,-5.836,-56.499,-0.047,-0.602,-0.602
-998.511,-7.504,-55.328,0.129,-1.037,-0.383
-997.839,-7.267,-53.587,0.372,-1.359,-0.131
-996.458,-5.746,-51.124,0.540,-1.367,-0.110
-997.447,-7.493,-51.090,0.571,-1.199,-0.510
-1000.584,-6.800,-50.989,0.641,-0.936,-1.053
-1003.000,-8.000,-52.000,0.700,-0.770,-1.330
-1003.647,-11.687,-53.798,0.872,-0.883,-1.234
-1006.508,-12.195,-54.810,1.089,-1.062,-0.875
-1006.665,-12.133,-55.087,1.106,-1.212,-0.661
-1008.116,-14.714,-55.121,0.974,-1.058,-0.807
-1009.997,-18.253,-56.790,0.877,-0.711,-0.937
-1008.813,-20.341,-58.131,0.723,-0.426,-0.888
-1010.107,-21.007,-57.981,0.554,-0.198,-0.759
-1009.196,-20.972,-57.990,0.559,-0.141,-0.578
-1007.273,-21.821,-58.018,0.511,-0.133,-0.284
-1004.709,-21.682,-57.969,0.444,-0.194,-0.035
-999.981,-19.751,-58.013,0.314,-0.183,0.028
-998.525,-18.628,-57.960,-0.025,-0.129,0.114
-997.332,-17.483,-58.034,-0.267,-0.126,0.135
-994.519,-14.423,-57.964,-0.450,0.025,0.147
-991.000,-11.000,-58.000,-0.560,0.070,0.140
-988.293,-9.971,-58.921,-0.441,0.013,0.016
-985.897,-10.143,-58.437,-0.359,-0.171,-0.089
-983.889,-9.334,-57.598,-0.290,-0.549,-0.281
-986.836,-9.147,-58.445,-0.114,-0.841,-0.385
-989.581,-10.572,-57.232,-0.088,-1.051,-0.464
-991.351,-10.954,-55.830,-0.137,-1.125,-0.578
-992.025,-11.050,-54.878,0.016,-1.202,-0.636
-994.594,-11.939,-53.932,0.199,-1.390,-0.703
-998.962,-12.768,-55.784,0.327,-1.458,-0.545
-996.601,-13.345,-54.899,0.371,-1.559,-0.341
-996.826,-12.104,-53.550,0.326,-1.639,-0.186
-999.810,-12.739,-53.995,0.381,-1.587,-0.152
-999.943,-14.071,-52.730,0.302,-1.628,-0.220
-1001.324,-12.860,-54.341,0.216,-1.595,-0.217
-1004.000,-14.000,-54.000,0.350,-1.540,-0.350
-1006.811,-15.846,-53.513,0.302,-1.604,-0.250
-1006.418,-16.742,-57.409,0.209,-1.576,-0.072
-1005.561,-17.184,-57.848,0.196,-1.426,-0.058
-1005.769,-16.861,-59.273,0.040,-1.217,0.060
-1003.837,-16.972,-61.395,-0.122,-1.083,-0.104
-1001.595,-15.546,-60.908,-0.239,-1.051,-0.298
-1002.159,-13.892,-60.963,-0.356,-1.129,-0.279
-1003.961,-12.141,-59.170,-0.296,-1.191,-0.283
-1003.887,-11.617,-57.987,-0.046,-1.178,-0.175
-1004.627,-13.585,-58.047,0.066,-1.253,-0.038
-1004.867,-14.292,-57.968,0.096,-1.220,0.028
-1007.730,-16.011,-57.924,0.161,-1.194,-0.060
-1011.571,-17.001,-58.251,0.126,-1.154,-0.147
-1009.439,-17.189,-58.960,0.148,-0.953,-0.048
-1007.000,-19.000,-57.000,0.140,-0.910,0.070
-1008.509,-18.994,-55.978,0.075,-0.917,0.076
-1011.005,-19.824,-55.488,-0.001,-0.827,0.057
-1009.281,-18.751,-54.466,-0.291,-0.575,0.095
-1006.056,-15.399,-55.834,-0.491,-0.263,-0.013
-1002.387,-15.033,-55.750,-0.482,-0.081,-0.217
-1000.978,-13.415,-56.323,-0.491,0.002,-0.377
-1000.904,-12.014,-56.962,-0.408,-0.160,-0.337
-999.089,-12.954,-56.881,-0.221,-0.405,-0.090
-998.319,-12.990,-58.912,-0.186,-0.587,0.155
-996.623,-13.215,-57.257,-0.313,-0.746,0.342
-998.565,-11.624,-54.939,-0.386,-0.754,0.288
-999.351,-9.257,-55.081,-0.447,-0.628,0.143
-995.967,-10.717,-55.181,-0.370,-0.435,-0.080
-995.022,-12.060,-57.390,-0.194,-0.444,-0.205
-996.000,-12.000,-58.000,-0.210,-0.700,-0.070
-997.097,-11.198,-56.205,-0.161,-0.890,-0.064
-995.832,-10.654,-55.280,-0.065,-0.983,-0.103
-998.127,-11.913,-54.245,-0.113,-0.884,-0.305
-1000.115,-11.745,-54.216,-0.166,-0.643,-0.482
-998.277,-12.512,-55.580,-0.243,-0.543,-0.515
-999.177,-12.879,-57.507,-0.276,-0.576,-0.652
-997.831,-13.135,-58.997,-0.203,-0.714,-0.544
-997.793,-14.995,-56.324,-0.142,-0.899,-0.420
-1001.284,-13.351,-53.768,-0.140,-0.980,-0.433
-1003.001,-13.845,-56.113,-0.134,-0.940,-0.304
-1001.733,-16.191,-57.301,-0.174,-0.884,-0.025
-1000.708,-15.281,-56.856,-0.220,-0.965,0.251
-1002.565,-13.401,-57.045,-0.221,-1.070,0.379
-1002.884,-11.873,-56.997,-0.381,-1.037,0.416
-1002.000,-12.000,-57.000,-0.490,-0.910,0.280
-1001.216,-11.250,-56.935,-0.538,-0.729,0.206
-999.409,-10.015,-57.745,-0.686,-0.579,0.185
-998.942,-10.509,-58.145,-0.660,-0.576,0.027
-1000.946,-11.348,-57.656,-0.629,-0.723,0.023
-1002.283,-10.338,-56.456,-0.601,-0.903,0.108
-1004.491,-8.838,-56.199,-0.461,-0.990,0.364
-1003.712,-8.981,-58.129,-0.420,-0.977,0.718
-999.206,-7.196,-58.108,-0.421,-0.915,0.717
-999.421,-5.857,-56.987,-0.417,-0.853,0.380
-1000.970,-6.780,-57.644,-0.426,-0.793,-0.031
-999.886,-7.308,-58.153,-0.388,-0.732,-0.238
-998.011,-8.876,-57.881,-0.331,-0.680,-0.309
-998.381,-10.246,-58.013,-0.372,-0.739,-0.367
-1000.214,-9.819,-56.622,-0.426,-0.940,-0.430
-1001.000,-8.000,-54.000,-0.490,-1.050,-0.420
-1001.916,-6.997,-53.043,-0.454,-1.109,-0.293
-1001.952,-7.063,-52.901,-0.154,-1.138,-0.271
-1002.368,-7.191,-53.574,0.033,-1.089,-0.308
-1003.109,-9.498,-54.156,0.131,-1.200,-0.425
-1004.789,-11.416,-53.899,0.236,-1.252,-0.491
-1007.146,-10.647,-54.048,0.191,-1.177,-0.396
-1004.749,-8.894,-53.983,0.140,-1.109,-0.351
-1003.868,-8.900,-53.970,0.202,-0.860,-0.471
-1005.791,-10.018,-54.751,0.280,-0.750,-0.737
-1005.820,-9.305,-55.372,0.266,-0.845,-0.713
-1006.396,-8.877,-53.500,0.331,-0.771,-0.545
-1009.605,-9.367,-51.300,0.326,-0.652,-0.593
-1012.000,-12.078,-52.810,0.273,-0.491,-0.500
-1006.909,-13.961,-55.246,0.176,-0.155,-0.245
-1002.000,-12.000,-56.000,-0.140,0.070,-0.140
-1000.385,-12.641,-58.405,-0.217,0.020,-0.147
-997.557,-14.193,-61.695,-0.242,-0.140,-0.009
-995.919,-12.480,-61.483,-0.316,-0.415,0.256
-992.945,-9.274,-60.696,-0.240,-0.691,0.396
-992.332,-7.771,-58.909,-0.341,-0.797,0.276
-995.561,-7.998,-55.310,-0.423,-0.848,0.004
-995.988,-6.868,-53.905,-0.422,-0.838,-0.221
-996.876,-5.126,-51.256,-0.427,-0.838,-0.278
-997.930,-3.968,-49.685,-0.212,-0.845,-0.375
-997.923,-5.168,-51.564,0.071,-0.860,-0.517
-996.981,-6.831,-52.070,0.196,-1.025,-0.368
-995.302,-7.173,-51.817,0.212,-1.186,-0.262
-998.439,-8.435,-50.511,0.202,-1.273,-0.281
-1002.216,-9.030,-50.085,0.125,-1.159,-0.286
-1000.000,-10.000,-51.000,0.070,-0.980,-0.350
-998.620,-11.126,-52.596,0.077,-0.971,-0.402
-1002.234,-9.340,-54.854,0.006,-1.072,-0.546
-1002.305,-9.857,-54.699,0.067,-1.218,-0.439
-999.044,-11.545,-56.255,0.192,-1.308,-0.114
-997.493,-10.814,-58.770,0.243,-1.461,0.067
-998.357,-12.405,-60.401,0.482,-1.571,0.486
-1000.058,-10.669,-60.896,0.551,-2.011,1.166
-999.121,-7.104,-58.183,0.363,-2.515,1.354
-999.262,-6.358,-57.125,0.238,-2.215,0.697
-1003.240,-4.829,-55.711,0.109,-1.808,-0.099
-1006.418,-5.992,-54.980,0.031,-1.415,-0.407
-1006.529,-5.004,-56.596,-0.021,-1.105,-0.423
-1005.895,-4.355,-55.454,0.035,-1.257,-0.541
-1007.304,-6.015,-55.091,0.153,-1.322,-0.628
-1008.000,-4.000,-55.000,0.210,-1.190,-0.560
-1006.944,-3.851,-53.203,0.327,-1.007,-0.666
-1008.939,-4.604,-52.780,0.498,-0.865,-0.872
-1011.504,-6.827,-53.667,0.675,-0.821,-0.912
-1011.525,-8.111,-54.054,0.689,-0.869,-0.701
-1010.233,-6.637,-54.155,0.735,-0.767,-0.532
-1008.599,-8.662,-55.201,0.748,-0.501,-0.683
-1008.034,-10.013,-54.944,0.546,-0.259,-0.930
-1008.948,-10.831,-54.947,0.489,0.050,-1.236
-1009.022,-13.503,-55.159,0.490,0.202,-1.455
-1009.301,-14.828,-54.719,0.532,0.218,-1.424
-1010.322,-15.457,-55.411,0.555,0.156,-1.032
-1008.535,-15.982,-54.106,0.422,-0.004,-0.250
-1004.733,-12.458,-52.734,0.323,-0.074,0.336
-1001.650,-8.805,-51.838,0.184,0.026,0.398
-1000.000,-10.000,-52.000,0.070,0.210,0.070
-996.691,-9.332,-53.893,0.071,0.337,-0.197
-993.121,-7.975,-53.408,0.025,0.341,-0.247
-994.299,-7.779,-51.978,-0.025,0.036,-0.386
-996.974,-5.842,-49.684,0.062,-0.281,-0.382
-995.868,-4.735,-49.212,0.183,-0.366,-0.218
-992.082,-3.673,-50.094,0.319,-0.329,-0.132
-989.935,-3.048,-51.214,0.502,-0.204,-0.226
-989.111,-4.845,-55.659,0.561,-0.265,-0.473
-987.896,-5.967,-58.069,0.549,-0.544,-0.618
-989.561,-6.405,-56.824,0.648,-0.930,-0.608
-992.612,-8.183,-54.735,0.752,-1.155,-0.464
-994.629,-9.571,-53.566,0.800,-1.220,-0.432
-996.633,-12.000,-52.880,0.965,-1.249,-0.511
-999.404,-15.405,-54.383,0.956,-1.097,-0.571
-1000.000,-16.000,-55.000,0.770,-1.120,-0.630
-999.608,-15.026,-52.156,0.717,-1.199,-0.626
-1003.779,-15.690,-52.862,0.499,-1.120,-0.688
-1005.826,-15.816,-51.433,0.340,-1.170,-0.649
-1005.945,-14.105,-49.651,0.347,-1.168,-0.430
-1005.041,-14.234,-51.793,0.233,-1.096,-0.203
-1002.701,-13.693,-51.937,0.214,-1.028,-0.148
-1004.135,-13.026,-53.169,0.125,-0.900,-0.212
-1003.234,-13.097,-54.923,-0.062,-0.781,-0.209
-1001.038,-11.268,-55.797,-0.118,-0.644,-0.266
-1000.934,-10.614,-56.257,-0.281,-0.690,-0.289
-1000.967,-7.864,-55.064,-0.367,-0.899,-0.257
-1002.408,-5.569,-53.067,-0.180,-1.033,-0.144
-1001.406,-7.844,-51.671,-0.030,-1.157,-0.077
-1002.600,-9.055,-50.899,0.180,-1.181,-0.236
-1007.000,-10.000,-51.000,0.350,-1.050,-0.280
-1006.445,-11.893,-52.729,0.236,-0.926,-0.158
-1003.062,-10.879,-53.921,0.100,-0.811,-0.142
-1000.302,-8.670,-53.608,0.013,-0.681,-0.510
-1002.823,-10.368,-52.449,0.022,-0.571,-1.048
-1004.803,-12.718,-53.901,0.088,-0.432,-1.321
-1002.623,-14.413,-54.795,0.055,-0.349,-1.196
-1004.174,-14.917,-52.932,-0.003,-0.509,-0.812
-1003.294,-13.092,-53.905,-0.002,-0.754,-0.569
-1000.687,-12.953,-53.461,0.007,-0.943,-0.535
-1003.569,-12.480,-52.052,-0.015,-1.028,-0.740
-1005.700,-11.378,-51.671,0.044,-0.821,-0.903
-1005.808,-10.773,-50.623,0.080,-0.678,-0.756
-1006.040,-11.355,-51.249,0.197,-0.816,-0.704
-1007.304,-11.934,-50.856,0.360,-0.832,-0.690
-1009.000,-11.000,-51.000,0.280,-0.770,-0.630
-1008.274,-11.832,-52.739,0.218,-0.550,-0.632
-1006.389,-12.162,-54.492,0.043,-0.153,-0.617
-1005.627,-11.533,-55.383,-0.323,0.028,-0.710
-1005.485,-10.195,-54.585,-0.447,0.123,-0.802
-1002.442,-10.616,-55.423,-0.399,0.101,-0.719
-1000.923,-11.909,-54.492,-0.328,-0.129,-0.501
-1000.970,-8.735,-52.991,-0.200,-0.367,-0.268
-1000.929,-7.910,-53.079,-0.138,-0.552,-0.269
-1001.929,-8.272,-51.293,-0.197,-0.532,-0.491
-1002.105,-7.539,-50.950,-0.217,-0.273,-0.807
-1004.398,-8.957,-50.500,-0.212,0.050,-0.976
-1004.034,-8.463,-50.061,-0.168,0.143,-0.795
-1002.967,-8.162,-51.434,0.096,0.031,-0.580
-1002.698,-9.115,-52.019,0.292,-0.091,-0.476
-1000.000,-10.000,-52.000,0.280,-0.210,-0.420
-1002.497,-11.773,-52.745,0.232,-0.108,-0.424
-1002.387,-12.768,-54.571,-0.030,0.149,-0.362
-998.230,-13.670,-55.636,-0.316,0.284,-0.405
-997.687,-13.872,-56.065,-0.344,0.215,-0.569
-996.240,-12.250,-53.765,-0.365,-0.036,-0.503
-997.522,-10.804,-51.963,-0.326,-0.246,-0.303
-997.850,-11.058,-53.056,-0.204,-0.359,-0.046
-995.988,-11.093,-52.989,-0.206,-0.483,0.263
-997.101,-9.319,-53.845,-0.263,-0.505,0.360
-993.877,-8.843,-53.465,-0.342,-0.437,0.275
-990.128,-8.764,-53.040,-0.297,-0.390,0.046
-991.972,-7.471,-54.944,-0.154,-0.331,-0.279
-993.025,-8.763,-56.357,-0.142,-0.521,-0.319
-994.418,-11.234,-56.993,-0.044,-0.982,-0.109
-998.000,-11.000,-56.000,0.070,-1.330,-0.000
-1000.779,-10.061,-55.853,-0.045,-1.413,0.006
-1000.568,-9.930,-56.840,-0.179,-1.217,-0.117
-999.513,-10.471,-57.041,-0.292,-0.894,-0.499
-1002.903,-11.570,-57.139,-0.388,-0.686,-0.866
-1003.331,-12.254,-58.844,-0.285,-0.767,-0.857
-1003.498,-13.196,-59.914,-0.111,-1.048,-0.545
-1007.212,-12.917,-57.831,-0.068,-1.271,-0.185
-1007.981,-12.026,-56.997,-0.004,-1.271,0.058
-1008.876,-11.416,-56.374,-0.083,-1.049,0.140
-1007.730,-8.960,-55.033,-0.317,-0.711,0.081
-1006.318,-7.101,-55.171,-0.344,-0.337,-0.207
-1006.921,-7.310,-54.519,-0.375,-0.161,-0.564
-1005.455,-8.096,-54.053,-0.291,-0.135,-0.600
-1006.368,-6.711,-55.209,-0.041,-0.148,-0.382
-1008.000,-7.000,-56.000,0.000,-0.210,-0.140
-1007.153,-9.108,-55.999,-0.004,-0.211,0.050
-1005.810,-6.662,-56.026,0.007,-0.215,0.136
-1002.247,-6.263,-55.915,-0.013,-0.168,0.090
-1000.413,-7.240,-56.162,0.048,-0.133,-0.155
-1003.137,-7.161,-55.472,0.200,-0.129,-0.452
-1005.056,-8.031,-53.696,0.292,-0.052,-0.564
-1003.886,-6.958,-54.101,0.357,0.004,-0.481
-1003.018,-8.776,-54.993,0.421,0.068,-0.421
-1002.992,-9.555,-54.944,0.362,0.022,-0.381
-1002.403,-7.152,-55.163,0.349,-0.022,-0.229
-1000.600,-7.567,-54.367,0.320,0.042,-0.290
-999.472,-8.215,-54.133,0.265,0.111,-0.501
-998.340,-9.516,-55.409,0.288,0.240,-0.442
-995.669,-9.830,-56.017,0.276,0.094,-0.255
-995.000,-8.000,-56.000,0.280,-0.210,-0.140
-993.404,-7.133,-56.796,0.345,-0.334,-0.075
-991.771,-6.111,-57.902,0.313,-0.455,-0.097
-992.650,-6.548,-57.913,0.245,-0.539,-0.295
-992.834,-6.834,-58.411,0.342,-0.589,-0.557
-995.007,-5.787,-59.162,0.315,-0.656,-0.792
-997.054,-7.585,-58.874,0.299,-0.708,-1.028
-995.939,-9.040,-57.882,0.425,-0.699,-1.120
-996.845,-9.876,-56.091,0.417,-0.758,-1.057
-998.645,-11.637,-56.501,0.576,-0.942,-0.946
-1000.133,-13.324,-58.200,0.717,-1.107,-0.741
-1001.585,-14.210,-56.772,0.652,-1.331,-0.435
-1001.801,-11.567,-56.138,0.616,-1.393,-0.186
-1002.072,-11.618,-57.082,0.521,-1.307,-0.156
-1003.314,-14.279,-55.792,0.407,-1.249,-0.308
-1006.000,-15.000,-56.000,0.350,-1.190,-0.420
-1007.037,-15.157,-55.402,0.236,-1.199,-0.307
-1006.865,-13.436,-53.070,0.090,-1.013,-0.201
-1006.721,-12.867,-54.003,0.046,-0.682,-0.259
-1003.902,-12.763,-56.070,-0.099,-0.445,-0.298
-1001.203,-11.421,-57.108,-0.246,-0.318,-0.396
-1002.410,-9.455,-55.551,-0.302,-0.387,-0.391
-1002.921,-6.795,-55.011,-0.423,-0.653,-0.116
-1001.114,-4.183,-53.299,-0.238,-0.898,0.126
-1000.759,-2.884,-50.115,0.092,-1.025,0.266
-1002.045,-3.769,-50.308,0.270,-1.058,0.225
-1003.891,-4.546,-49.237,0.489,-0.757,-0.023
-1002.394,-7.714,-51.827,0.557,-0.450,-0.217
-997.644,-8.757,-54.136,0.461,-0.305,-0.432
-997.251,-8.186,-54.210,0.414,-0.211,-0.745
-998.000,-11.000,-56.000,0.350,-0.350,-0.910
-996.176,-11.902,-55.053,0.338,-0.417,-0.913
-995.854,-13.449,-55.841,0.456,-0.538,-0.873
-996.578,-14.242,-55.291,0.536,-0.858,-0.720
-999.639,-14.177,-55.579,0.612,-1.090,-0.546
-1000.646,-15.353,-55.218,0.748,-1.228,-0.473
-1000.097,-14.721,-52.937,0.758,-1.147,-0.515
-1002.133,-14.012,-56.286,0.697,-0.891,-0.716
-1002.065,-15.763,-57.088,0.641,-0.768,-0.780
-1002.513,-18.081,-56.824,0.413,-0.920,-0.509
-1003.934,-16.086,-56.697,0.195,-1.178,-0.125
-1003.145,-13.925,-55.116,0.019,-1.361,0.129
-1002.921,-11.577,-54.846,-0.270,-1.370,0.069
-1004.678,-8.228,-53.640,-0.339,-1.073,-0.250
-1007.306,-8.136,-54.254,-0.274,-0.730,-0.510
-1007.000,-9.000,-56.000,-0.210,-0.630,-0.420
-1005.138,-9.140,-57.007,-0.024,-0.741,-0.171
-1004.351,-7.543,-55.754,0.060,-0.937,-0.017
-1003.290,-6.259,-53.591,0.113,-0.989,-0.068
-1005.092,-5.795,-52.363,0.131,-0.739,-0.425
-1005.232,-6.417,-52.316,0.029,-0.343,-0.714
-1002.500,-6.913,-54.386,0.006,-0.106,-0.878
-1003.141,-5.964,-53.906,0.079,-0.073,-0.981
-1004.032,-6.850,-54.756,0.261,-0.196,-0.918
-1003.205,-9.317,-57.730,0.517,-0.382,-0.765
-1002.060,-11.801,-57.993,0.599,-0.552,-0.438
-1002.330,-11.421,-58.132,0.468,-0.741,-0.362
-1005.154,-11.222,-57.611,0.416,-0.719,-0.605
-1005.642,-12.185,-56.672,0.401,-0.486,-0.721
-1003.736,-11.886,-54.604,0.255,-0.336,-0.777
-1003.000,-10.000,-53.000,0.140,-0.280,-0.770
-1003.851,-7.900,-53.016,0.130,-0.218,-0.766
-1003.631,-10.286,-53.433,0.242,-0.200,-0.744
-1001.298,-10.854,-55.182,0.309,-0.243,-0.541
-1000.699,-9.334,-53.822,0.234,-0.360,-0.299
-1001.077,-8.629,-53.350,0.213,-0.556,-0.187
-1001.912,-8.154,-55.351,0.200,-0.532,-0.231
-997.488,-10.104,-56.060,0.137,-0.414,-0.362
-993.877,-9.156,-56.965,0.199,-0.295,-0.543
-997.484,-8.661,-57.520,0.338,-0.138,-0.785
-996.903,-9.876,-60.764,0.341,-0.263,-0.966
-994.787,-10.633,-62.494,0.440,-0.483,-0.947
-995.571,-13.057,-61.778,0.629,-0.798,-0.899
-1001.140,-12.483,-61.860,0.615,-1.125,-0.913
-1006.370,-12.206,-59.577,0.638,-1.186,-0.913
-1007.000,-14.000,-58.000,0.560,-1.050,-0.980
-1010.478,-14.007,-57.172,0.359,-0.691,-1.044
-1011.476,-14.650,-56.677,0.402,-0.354,-1.095
-1010.028,-15.287,-58.252,0.391,-0.141,-1.175
-1009.159,-14.448,-59.312,0.333,-0.018,-1.175
-1007.091,-13.909,-58.609,0.349,-0.009,-1.074
-1007.232,-14.030,-57.903,0.250,-0.092,-0.951
-1009.138,-13.986,-58.048,0.132,-0.057,-0.747
-1008.333,-13.156,-58.956,0.009,0.193,-0.377
-1002.848,-9.905,-58.377,-0.070,0.329,-0.197
-1001.534,-7.096,-57.528,-0.031,0.446,-0.307
-1000.802,-7.268,-58.638,0.046,0.511,-0.410
-997.654,-6.241,-56.788,0.083,0.468,-0.572
-998.212,-4.617,-56.300,0.196,0.378,-0.611
-996.544,-3.928,-56.877,0.459,0.181,-0.474
-995.000,-4.000,-56.000,0.630,0.070,-0.490
-995.990,-4.839,-57.870,0.755,0.006,-0.558
-994.671,-6.348,-56.709,0.748,0.000,-0.556
-993.178,-8.016,-55.597,0.615,-0.060,-0.616
-995.222,-7.690,-56.169,0.700,-0.224,-0.835
-997.568,-8.657,-56.119,0.800,-0.311,-1.029
-999.345,-10.262,-57.175,0.963,-0.460,-0.929
-999.982,-11.039,-56.976,1.121,-0.562,-0.603
-999.931,-10.183,-57.023,0.992,-0.562,-0.355
-1001.011,-8.102,-56.094,0.956,-0.472,-0.442
-999.549,-8.196,-57.140,1.076,-0.210,-0.635
-998.710,-7.460,-58.074,1.190,-0.138,-0.836
-1001.137,-9.512,-56.524,1.322,-0.263,-1.069
-1003.311,-12.702,-58.993,1.420,-0.280,-0.986
-1001.423,-14.264,-59.912,1.384,-0.373,-0.737
-998.000,-15.000,-60.000,1.260,-0.490,-0.630
-999.476,-13.128,-60.232,1.145,-0.495,-0.740
-1001.935,-13.688,-58.860,0.955,-0.407,-0.862
-1001.119,-13.977,-59.896,0.887,-0.230,-0.736
-1001.296,-14.746,-59.410,0.923,-0.262,-0.726
-1003.673,-16.508,-59.128,0.912,-0.386,-0.765
-1003.756,-17.136,-58.579,1.007,-0.431,-0.683
-1004.143,-16.900,-55.818,1.049,-0.494,-0.622
-1005.129,-15.933,-54.955,1.047,-0.493,-0.436
-1001.714,-17.840,-56.499,1.068,-0.440,-0.334
-1000.325,-16.318,-57.609,0.915,-0.329,-0.477
-1001.557,-13.958,-55.749,0.773,-0.207,-0.686
-1001.690,-13.857,-57.315,0.777,-0.077,-0.811
-1000.370,-12.790,-59.092,0.769,0.017,-0.854
-998.866,-14.436,-59.212,0.864,-0.011,-0.919
-998.000,-17.000,-61.000,0.980,-0.140,-0.910
-996.955,-17.164,-59.222,0.919,-0.328,-0.846
-997.378,-16.618,-60.133,0.909,-0.411,-0.834
-994.750,-18.137,-61.593,0.850,-0.455,-0.851
-994.299,-16.597,-60.549,0.686,-0.528,-0.805
-996.126,-14.750,-61.172,0.597,-0.580,-0.774
-994.576,-14.818,-59.414,0.456,-0.643,-0.863
-995.141,-12.890,-57.957,0.425,-0.623,-0.911
-996.059,-12.970,-57.101,0.489,-0.497,-0.913
-993.851,-12.278,-56.661,0.481,-0.522,-0.808
-989.791,-12.243,-58.605,0.578,-0.703,-0.717
-989.033,-14.225,-58.363,0.667,-0.898,-0.931
-992.557,-15.579,-55.861,0.554,-1.176,-1.074
-993.789,-15.684,-54.846,0.377,-1.256,-0.919
-991.748,-12.398,-53.706,0.356,-1.275,-0.852
-994.000,-10.000,-52.000,0.420,-1.400,-1.120
-1001.162,-10.710,-53.559,0.699,-1.449,-1.337
-1003.828,-13.120,-55.762,1.127,-1.708,-1.107
-1005.200,-15.893,-56.385,1.200,-2.026,-0.677
-1008.062,-18.062,-57.988,1.222,-2.099,-0.331
-1007.120,-19.567,-59.490,1.254,-1.817,-0.299
-1005.638,-21.389,-61.679,1.297,-1.616,-0.103
-1003.905,-20.804,-64.049,1.552,-1.998,0.608
-1005.630,-18.912,-62.214,1.367,-2.248,0.610
-1010.424,-22.916,-60.921,0.870,-1.843,-0.241
-1010.950,-24.582,-60.258,0.420,-1.067,-0.780
-1011.309,-19.513,-57.085,-0.115,-0.375,-0.834
-1011.338,-15.541,-57.785,-0.300,-0.034,-0.703
-1007.620,-13.404,-57.381,-0.166,-0.158,-0.607
-1004.715,-11.796,-56.078,-0.050,-0.543,-0.454
-1003.000,-11.000,-57.000,0.140,-0.700,-0.210
-1001.146,-10.991,-54.303,0.221,-0.593,-0.248
-1000.880,-10.982,-55.056,0.103,-0.343,-0.487
-1000.932,-11.084,-56.718,0.024,-0.239,-0.706
-1000.394,-10.609,-55.132,-0.024,-0.334,-0.778
-999.713,-9.664,-54.958,0.064,-0.342,-0.634
-1001.628,-8.745,-53.612,0.350,-0.366,-0.561
-1004.124,-8.014,-53.006,0.572,-0.503,-0.637
-1004.957,-9.782,-52.984,0.691,-0.630,-0.698
-1005.169,-12.471,-54.413,0.817,-0.483,-0.701
-1003.553,-14.897,-56.059,0.860,-0.253,-0.706
-1001.819,-17.516,-56.363,0.797,-0.147,-0.645
-999.596,-17.686,-59.583,0.738,-0.021,-0.510
-997.581,-17.080,-59.362,0.563,-0.135,-0.624
-998.184,-19.443,-58.050,0.408,-0.287,-0.775
-999.000,-20.000,-59.000,0.350,-0.280,-0.630
-999.114,-16.503,-58.149,0.217,-0.398,-0.326
-997.041,-14.348,-57.332,0.332,-0.483,-0.129
-994.049,-13.218,-56.483,0.580,-0.520,-0.285
-994.175,-13.538,-58.427,0.676,-0.606,-0.565
-995.324,-15.914,-60.590,0.835,-0.628,-0.762
-997.413,-17.145,-62.664,0.792,-0.643,-0.733
-996.787,-16.915,-65.076,0.468,-0.783,-0.472
-994.063,-15.113,-64.991,0.349,-0.906,-0.412
-995.356,-15.433,-65.250,0.356,-0.959,-0.580
-997.742,-17.729,-62.932,0.369,-1.071,-0.789
-1001.506,-17.635,-61.471,0.520,-1.215,-0.840
-1007.676,-16.441,-59.613,0.552,-1.416,-0.699
-1011.754,-16.181,-56.529,0.594,-1.319,-0.613
-1011.770,-18.372,-58.334,0.703,-0.917,-0.550
-1009.000,-19.000,-58.000,0.560,-0.490,-0.560
-1006.280,-18.842,-58.519,0.380,0.013,-0.740
-1004.586,-18.938,-61.069,0.102,0.171,-0.887
-1002.399,-15.035,-59.714,-0.116,0.051,-0.932
-1001.689,-14.349,-58.786,0.046,-0.077,-0.817
-1001.646,-14.616,-59.006,0.164,-0.297,-0.507
-1000.883,-12.827,-57.329,0.232,-0.442,-0.327
-1002.142,-14.099,-53.795,0.278,-0.491,-0.194
-1002.176,-13.193,-53.845,0.212,-0.430,0.055
-999.413,-11.194,-55.106,0.256,-0.257,0.105
-998.144,-10.782,-54.655,0.370,-0.060,-0.171
-997.365,-12.237,-55.812,0.502,0.060,-0.637
-998.856,-15.291,-55.784,0.596,0.043,-0.736
-999.599,-15.975,-56.389,0.633,-0.144,-0.358
-996.613,-16.049,-56.919,0.536,-0.376,-0.029
-996.000,-16.000,-56.000,0.420,-0.420,0.210
-993.639,-15.160,-56.011,0.425,-0.360,0.295
-990.319,-14.122,-55.897,0.359,-0.294,0.091
-989.414,-14.787,-56.249,0.409,-0.292,-0.189
-987.981,-17.145,-55.307,0.574,-0.464,-0.339
-988.184,-16.224,-55.286,0.651,-0.734,-0.335
-988.962,-15.001,-56.026,0.718,-0.953,-0.262
-987.897,-16.068,-56.052,0.769,-1.135,-0.208
-987.010,-16.036,-56.981,0.646,-1.320,-0.208
-987.676,-15.934,-56.832,0.494,-1.392,-0.258
-988.611,-16.066,-58.471,0.507,-1.472,-0.374
-989.486,-15.941,-58.380,0.430,-1.663,-0.471
-992.185,-16.021,-56.177,0.471,-1.805,-0.493
-994.580,-16.079,-55.931,0.571,-1.940,-0.489
-997.563,-17.266,-54.833,0.568,-2.126,-0.489
-1000.000,-19.000,-55.000,0.700,-2.240,-0.420
-999.847,-19.922,-55.119,0.708,-2.304,-0.288
-1002.145,-20.563,-54.721,0.699,-2.283,-0.326
-1003.705,-22.650,-56.141,0.612,-2.109,-0.314
-1004.099,-25.268,-57.930,0.358,-1.959,-0.074
-1005.336,-26.156,-59.567,0.242,-1.849,-0.004
-1007.659,-25.770,-59.841,-0.007,-1.831,0.031
-1010.037,-23.845,-57.802,-0.295,-1.889,0.302
-1007.338,-23.001,-56.029,-0.412,-1.763,0.485
-1004.757,-21.818,-56.690,-0.534,-1.675,0.503
-1006.890,-17.909,-57.791,-0.613,-1.668,0.372
-1008.300,-16.776,-58.071,-0.666,-1.459,0.160
-1007.003,-16.999,-57.921,-0.704,-1.254,0.174
-1005.672,-17.123,-58.066,-0.577,-1.169,0.198
-1006.204,-16.790,-57.928,-0.495,-1.115,0.140
-1007.000,-15.000,-57.000,-0.630,-1.120,0.280
-1004.521,-15.005,-55.233,-0.644,-1.179,0.527
-1002.139,-13.766,-54.790,-0.600,-1.246,0.716
-1001.495,-11.599,-54.510,-0.734,-1.273,0.883
-999.907,-10.369,-50.917,-0.750,-1.211,0.825
-1000.273,-10.306,-50.311,-0.688,-1.060,0.350
-1000.895,-12.482,-50.951,-0.697,-0.969,-0.073
-1001.148,-12.975,-51.093,-0.625,-0.986,-0.294
-1004.717,-12.986,-52.057,-0.628,-1.169,-0.357
-1006.901,-12.350,-50.268,-0.504,-1.432,-0.189
-1006.435,-11.557,-50.464,-0.106,-1.527,0.039
-1004.461,-12.850,-51.519,0.063,-1.558,0.253
-1004.332,-12.959,-52.583,0.079,-1.469,0.058
-1008.231,-14.934,-52.834,0.037,-1.144,-0.287
-1009.927,-17.120,-53.337,-0.176,-0.796,-0.351
-1007.000,-17.000,-56.000,-0.350,-0.630,-0.350
-1004.051,-17.129,-55.110,-0.416,-0.623,-0.292
-1004.909,-15.465,-56.330,-0.425,-0.719,-0.194
-1002.999,-14.863,-56.542,-0.387,-0.874,0.009
-998.892,-14.669,-53.696,-0.321,-0.919,0.061
-999.612,-13.980,-54.483,-0.400,-0.889,-0.020
-1000.934,-15.235,-53.493,-0.504,-0.721,0.011
-998.779,-13.766,-51.955,-0.569,-0.635,0.079
-996.175,-11.113,-51.136,-0.697,-0.765,0.206
-994.220,-10.201,-49.216,-0.600,-0.721,0.117
-994.214,-9.250,-49.384,-0.495,-0.689,-0.045
-995.080,-8.877,-51.060,-0.443,-0.681,-0.101
-992.078,-9.271,-52.813,-0.284,-0.599,-0.172
-991.394,-10.364,-54.406,-0.298,-0.676,-0.230
-994.394,-11.038,-55.047,-0.264,-0.970,-0.280
-996.000,-11.000,-55.000,-0.210,-1.400,-0.140
-998.612,-10.964,-53.346,-0.222,-1.659,0.056
-999.893,-11.628,-52.394,-0.096,-1.750,0.044
-1000.733,-12.735,-54.828,-0.090,-1.661,-0.130
-1002.656,-13.102,-53.450,-0.202,-1.389,-0.280
-1003.009,-12.747,-50.113,-0.342,-1.204,-0.402
-1005.748,-11.858,-49.989,-0.532,-1.101,-0.494
-1006.906,-12.005,-48.929,-0.631,-1.046,-0.330
-1004.211,-10.259,-49.838,-0.508,-0.983,-0.084
-1002.812,-7.872,-51.018,-0.255,-1.019,0.050
-1004.289,-9.931,-51.753,-0.110,-1.154,0.117
-1004.042,-12.189,-55.170,-0.011,-1.249,0.204
-999.976,-13.511,-55.875,-0.040,-1.398,0.314
-1000.890,-12.157,-56.493,-0.173,-1.347,0.098
-1002.982,-9.940,-58.107,-0.218,-1.080,-0.339
-1001.000,-12.000,-58.000,-0.350,-0.910,-0.560
-1000.819,-13.074,-58.897,-0.484,-0.893,-0.627
-1002.286,-12.340,-58.445,-0.452,-1.101,-0.560
-1004.791,-10.795,-57.635,-0.334,-1.349,-0.280
-1006.063,-9.858,-58.186,-0.234,-1.412,-0.014
-1006.152,-11.971,-55.516,-0.206,-1.387,0.093
-1010.072,-12.962,-52.780,-0.215,-1.295,0.047
-1013.070,-11.910,-54.111,-0.290,-1.024,-0.079
-1012.136,-11.050,-53.216,-0.475,-0.718,-0.138
-1010.975,-10.255,-51.077,-0.575,-0.529,-0.146
-1011.102,-9.191,-51.103,-0.428,-0.375,-0.066
-1009.148,-9.011,-51.040,-0.258,-0.375,0.102
-1004.809,-8.724,-53.171,-0.179,-0.426,0.127
-1002.538,-7.689,-53.890,-0.131,-0.296,0.041
-1001.881,-6.893,-54.218,-0.144,-0.111,-0.101
-1000.000,-7.000,-55.000,-0.140,0.070,-0.350
-997.944,-9.563,-53.112,-0.025,0.092,-0.489
-1000.127,-11.149,-53.784,0.120,-0.126,-0.412
-1000.945,-10.304,-53.064,0.142,-0.389,-0.150
-998.689,-9.875,-51.475,0.163,-0.579,0.140
-999.132,-10.353,-52.432,0.230,-0.631,0.208
-997.043,-12.621,-53.174,0.190,-0.521,0.108
-993.948,-13.986,-54.040,0.058,-0.340,-0.087
-995.788,-13.036,-53.997,-0.065,-0.343,-0.271
-997.771,-13.718,-54.738,-0.070,-0.414,-0.302
-997.694,-13.823,-55.247,-0.140,-0.482,-0.117
-994.464,-11.526,-54.425,-0.292,-0.718,0.161
-992.748,-11.243,-53.635,-0.229,-0.933,0.187
-996.087,-12.205,-52.613,-0.250,-1.220,0.138
-998.221,-11.842,-50.644,-0.440,-1.402,0.130
-1000.000,-10.000,-49.000,-0.420,-1.260,-0.000
-999.497,-8.132,-49.001,-0.411,-1.138,-0.010
-995.773,-7.930,-48.894,-0.402,-1.004,-0.011
-994.309,-8.036,-49.600,-0.202,-1.032,-0.303
-996.215,-7.958,-50.333,-0.112,-1.192,-0.672
-1000.457,-8.164,-51.562,-0.018,-1.171,-0.760
-1001.818,-9.315,-51.803,0.071,-1.210,-0.580
-1001.058,-10.001,-51.027,-0.004,-1.260,-0.411
-1003.742,-9.976,-52.009,0.062,-1.257,-0.351
-1006.470,-10.144,-49.824,0.044,-1.324,-0.349
-1008.439,-9.208,-47.216,-0.133,-1.266,-0.352
-1008.435,-9.055,-46.947,-0.070,-1.041,-0.346
-1007.827,-8.742,-47.232,0.032,-0.809,-0.369
-1009.333,-9.657,-48.402,0.109,-0.672,-0.434
-1008.825,-12.242,-50.450,0.309,-0.622,-0.312
-1008.000,-12.000,-54.000,0.350,-0.560,-0.000
-1005.502,-12.787,-55.085,0.174,-0.613,0.142
-1004.183,-12.691,-54.808,-0.063,-0.660,0.049
-1006.872,-10.891,-55.310,-0.291,-0.533,-0.077
-1005.016,-11.139,-54.100,-0.369,-0.462,-0.006
-1002.297,-8.816,-52.496,-0.331,-0.393,0.078
-1003.182,-8.435,-51.885,-0.258,-0.453,-0.030
-1002.938,-11.107,-50.895,-0.130,-0.560,-0.066
-1002.065,-10.158,-49.993,-0.068,-0.494,-0.001
-1001.754,-8.974,-50.775,-0.128,-0.452,-0.089
-1002.925,-9.156,-51.561,-0.142,-0.197,-0.338
-1000.761,-8.423,-53.120,-0.186,0.033,-0.490
-995.596,-8.046,-54.035,-0.353,-0.074,-0.464
-993.574,-9.608,-52.508,-0.302,-0.290,-0.409
-993.075,-11.176,-51.935,-0.118,-0.705,-0.426
-996.000,-12.000,-50.000,-0.000,-1.120,-0.420
-998.191,-11.307,-47.945,0.134,-1.207,-0.298
-995.608,-9.774,-49.510,0.056,-1.002,-0.285
-995.208,-11.764,-50.166,-0.074,-0.715,-0.641
-999.523,-13.722,-50.201,-0.053,-0.609,-1.196
-1004.328,-14.286,-51.358,-0.090,-0.806,-1.267
-1004.565,-15.036,-50.685,-0.042,-1.116,-0.787
-1003.000,-13.880,-50.026,0.073,-1.345,-0.401
-1004.821,-13.012,-50.942,0.009,-1.470,-0.280
-1006.041,-12.995,-51.079,-0.064,-1.329,-0.381
-1005.267,-13.044,-50.902,-0.134,-1.014,-0.496
-1003.778,-12.613,-51.109,-0.352,-0.782,-0.462
-1002.467,-11.460,-50.681,-0.411,-0.653,-0.587
-1005.292,-11.015,-49.675,-0.337,-0.635,-0.965
-1009.351,-12.311,-48.933,-0.349,-0.619,-1.196
-1008.000,-14.000,-49.000,-0.280,-0.490,-0.980
-1005.918,-12.487,-49.828,-0.325,-0.424,-0.717
-1007.022,-9.536,-50.841,-0.472,-0.340,-0.658
-1005.331,-8.390,-51.010,-0.517,-0.157,-0.511
-1002.001,-7.186,-51.255,-0.620,-0.180,-0.336
-998.408,-5.419,-52.496,-0.589,-0.189,-0.270
-997.140,-4.990,-52.955,-0.478,-0.149,-0.406
-1000.275,-5.020,-51.878,-0.489,-0.290,-0.721
-1002.026,-5.924,-50.121,-0.366,-0.287,-0.842
-1000.508,-5.512,-49.088,-0.176,-0.263,-0.782
-998.682,-4.115,-48.881,-0.008,-0.312,-0.758
-999.932,-7.869,-49.751,0.175,-0.184,-0.812
-1000.751,-10.557,-51.942,0.194,-0.178,-0.821
-999.808,-9.785,-51.456,0.124,-0.441,-0.630
-1001.314,-10.098,-49.955,0.151,-0.650,-0.474
-1002.000,-11.000,-51.000,0.210,-0.700,-0.350
-1001.139,-12.054,-50.333,0.155,-0.646,-0.160
-999.654,-10.538,-48.782,0.080,-0.526,-0.119
-997.820,-9.783,-50.685,0.037,-0.413,-0.217
-997.801,-9.763,-52.848,-0.030,-0.255,-0.353
-995.813,-8.850,-53.161,0.050,-0.086,-0.458
-995.161,-10.515,-55.893,0.155,-0.091,-0.598
-995.951,-12.096,-59.149,0.217,-0.302,-0.701
-994.078,-13.846,-59.964,0.284,-0.668,-0.635
-996.456,-14.998,-60.201,0.118,-1.056,-0.667
-1003.172,-15.350,-58.217,-0.002,-1.209,-0.783
-1005.376,-17.045,-55.205,-0.036,-1.119,-0.665
-1004.670,-16.053,-53.231,-0.236,-0.983,-0.530
-1006.653,-13.137,-53.356,-0.260,-0.761,-0.702
-1006.793,-10.622,-55.215,-0.211,-0.533,-0.852
-1006.000,-9.000,-55.000,-0.210,-0.420,-0.980
-1007.763,-10.566,-54.059,-0.030,-0.407,-1.182
-1008.643,-12.815,-53.918,0.078,-0.531,-1.066
-1010.201,-12.857,-54.539,0.027,-0.546,-0.775
-1010.089,-13.825,-55.017,-0.030,-0.417,-0.448
-1006.636,-15.233,-53.052,-0.097,-0.308,-0.234
-1007.575,-13.410,-52.055,-0.151,-0.180,-0.315
-1008.939,-11.976,-53.052,-0.216,-0.060,-0.507
-1006.255,-12.007,-53.007,-0.279,0.124,-0.695
-1003.478,-11.981,-53.684,-0.231,0.276,-0.605
-1001.364,-11.572,-54.766,-0.157,0.234,-0.481
-1000.532,-10.379,-55.493,-0.104,0.204,-0.489
-1000.915,-12.172,-55.996,-0.067,0.198,-0.328
-998.949,-12.543,-54.471,-0.184,0.107,-0.171
-995.680,-9.636,-54.010,-0.195,-0.025,-0.054
-996.000,-9.000,-53.000,-0.070,-0.210,-0.070
-996.275,-8.254,-51.919,-0.069,-0.282,-0.257
-993.663,-6.498,-52.335,-0.026,-0.277,-0.345
-992.425,-5.149,-50.947,0.044,-0.252,-0.350
-993.156,-5.338,-51.929,0.121,-0.195,-0.364
-992.324,-6.326,-53.324,0.269,-0.365,-0.471
-992.107,-7.332,-54.263,0.360,-0.515,-0.577
-993.049,-9.100,-53.837,0.349,-0.724,-0.635
-993.847,-9.069,-51.994,0.409,-0.975,-0.697
-997.162,-8.770,-53.010,0.548,-0.922,-0.746
-998.994,-10.293,-51.593,0.552,-0.948,-0.875
-999.101,-12.043,-51.266,0.629,-0.991,-0.901
-1002.670,-13.895,-52.130,0.711,-0.981,-0.769
-1003.608,-15.153,-52.286,0.587,-0.966,-0.552
-1001.876,-13.621,-54.223,0.568,-0.905,-0.326
-1002.000,-12.000,-54.000,0.560,-0.910,-0.280
-1000.341,-12.859,-53.899,0.429,-0.906,-0.220
-998.939,-13.132,-54.666,0.468,-0.964,-0.238
-999.631,-12.522,-55.832,0.444,-0.984,-0.352
-1002.754,-11.456,-55.507,0.269,-0.971,-0.329
-1005.391,-13.246,-55.193,0.303,-0.835,-0.386
-1004.719,-16.274,-55.926,0.146,-0.686,-0.410
-1005.106,-13.720,-53.846,0.006,-0.699,-0.348
-1006.001,-12.827,-53.896,0.199,-0.632,-0.352
-1005.884,-15.579,-54.275,0.216,-0.729,-0.250
-1006.509,-16.743,-53.113,0.255,-0.840,-0.070
-1007.045,-16.977,-52.991,0.240,-0.843,0.115
-1006.020,-14.617,-53.177,0.063,-0.779,0.269
-1002.887,-12.762,-54.403,-0.025,-0.449,0.248
-1000.882,-13.044,-55.061,-0.162,-0.274,0.032
-1001.000,-13.000,-56.000,-0.210,-0.280,-0.140
-1001.082,-13.030,-57.006,-0.146,-0.325,-0.144
-999.625,-12.389,-55.873,-0.136,-0.556,-0.132
-998.567,-10.869,-52.463,-0.121,-0.716,-0.197
-1001.798,-9.162,-50.322,0.012,-0.623,-0.412
-1002.405,-9.438,-51.626,0.064,-0.395,-0.627
-1000.684,-11.441,-51.894,-0.013,-0.166,-0.711
-999.924,-11.937,-52.079,0.002,-0.151,-0.694
-999.012,-10.147,-53.000,0.001,-0.400,-0.570
-999.152,-9.064,-52.229,0.046,-0.556,-0.449
-997.080,-8.442,-51.764,0.130,-0.553,-0.312
-993.958,-7.950,-52.598,0.161,-0.592,-0.331
-992.465,-10.152,-52.896,0.261,-0.671,-0.661
-995.218,-11.107,-51.541,0.254,-0.828,-0.862
-998.089,-12.209,-50.979,0.127,-0.999,-0.742
-996.000,-11.000,-50.000,0.210,-1.050,-0.630
-995.590,-8.662,-48.861,0.457,-1.105,-0.738
-999.603,-13.487,-51.115,0.645,-1.188,-0.945
-1002.402,-16.512,-53.392,0.813,-1.151,-0.966
-1000.274,-18.053,-54.573,0.784,-1.109,-0.865
-1000.931,-18.819,-55.049,0.523,-1.118,-0.984
-1006.019,-18.158,-54.998,0.305,-1.012,-1.135
-1008.036,-20.048,-55.007,0.045,-0.828,-1.034
-1007.170,-17.335,-55.876,-0.262,-0.765,-0.731
-1005.025,-14.353,-56.492,-0.403,-0.927,-0.301
-1006.648,-12.171,-53.107,-0.477,-1.106,0.007
-1008.183,-10.196,-51.694,-0.445,-1.088,0.148
-1005.357,-11.917,-51.578,-0.282,-1.028,0.245
-1005.569,-11.607,-49.531,-0.308,-0.933,0.153
-1008.251,-11.040,-50.181,-0.349,-0.648,-0.107
-1007.000,-11.000,-50.000,-0.420,-0.350,-0.210
-1005.026,-9.292,-49.829,-0.623,-0.162,-0.204
-1004.642,-7.537,-50.878,-0.495,-0.066,-0.232
-1001.762,-5.740,-51.369,-0.318,-0.141,-0.091
-1000.117,-4.365,-52.741,-0.185,-0.282,0.065
-997.698,-4.018,-52.889,0.099,-0.395,0.043
-997.330,-5.566,-53.133,0.124,-0.510,-0.115
-999.014,-8.127,-52.914,0.150,-0.481,-0.289
-998.036,-8.057,-51.986,0.277,-0.357,-0.345
-998.687,-9.107,-52.868,0.269,-0.291,-0.496
-1000.321,-13.140,-52.486,0.379,-0.263,-0.777
-1004.758,-14.438,-51.654,0.392,-0.349,-0.822
-1004.537,-15.962,-52.471,0.172,-0.462,-0.568
-999.736,-16.849,-53.092,0.049,-0.501,-0.385
-999.132,-14.661,-52.952,-0.015,-0.573,-0.349
-1001.000,-14.000,-53.000,-0.140,-0.630,-0.350
-1003.107,-14.937,-54.647,-0.153,-0.629,-0.193
-999.604,-13.937,-56.654,-0.071,-0.670,0.196
-995.749,-11.152,-57.203,-0.116,-0.785,0.302
-996.620,-11.704,-56.519,-0.123,-0.885,0.067
-998.475,-11.423,-55.833,-0.050,-0.916,-0.128
-998.828,-9.922,-56.089,-0.080,-0.901,-0.238
-999.174,-11.084,-55.951,-0.067,-0.835,-0.439
-1002.762,-11.041,-55.070,-0.066,-0.835,-0.623
-1004.605,-10.949,-54.188,-0.088,-0.902,-0.684
-1006.928,-10.974,-53.725,0.030,-0.912,-0.728
-1007.806,-11.423,-54.979,0.101,-0.911,-0.609
-1006.256,-12.281,-56.600,0.204,-0.897,-0.573
-1007.550,-11.607,-57.079,0.266,-0.797,-0.646
-1009.176,-9.708,-56.867,0.032,-0.594,-0.722
-1009.000,-9.000,-55.000,-0.000,-0.350,-0.910
-1006.378,-9.154,-54.726,0.137,-0.100,-0.922
-1004.924,-7.956,-56.236,0.120,-0.026,-0.857
-1006.005,-9.200,-54.165,0.263,-0.237,-0.768
-1010.330,-9.999,-52.581,0.403,-0.446,-0.628
-1011.353,-8.350,-53.168,0.436,-0.469,-0.513
-1008.380,-8.194,-52.986,0.501,-0.192,-0.404
-1006.856,-10.170,-54.143,0.486,0.159,-0.425
-1004.159,-11.049,-55.892,0.425,0.278,-0.487
-1003.861,-10.717,-56.932,0.360,0.241,-0.460
-1002.489,-12.141,-56.500,0.342,0.064,-0.188
-998.414,-10.709,-55.316,0.377,-0.052,0.003
-998.214,-10.349,-54.679,0.464,-0.094,-0.174
-998.825,-10.698,-53.775,0.475,-0.145,-0.305
-996.570,-8.886,-54.110,0.420,-0.047,-0.456
-995.000,-10.000,-54.000,0.490,0.070,-0.700
-995.128,-9.260,-53.790,0.436,0.075,-0.769
-993.393,-8.719,-55.667,0.435,0.030,-0.810
-993.463,-9.222,-55.637,0.609,-0.138,-0.876
-996.212,-9.083,-54.413,0.615,-0.445,-0.744
-996.802,-10.636,-53.673,0.666,-0.589,-0.585
-997.115,-10.878,-52.896,0.687,-0.650,-0.563
-998.085,-9.912,-53.012,0.632,-0.697,-0.641
-998.974,-9.001,-52.976,0.760,-0.572,-0.829
-998.377,-10.384,-54.398,0.785,-0.486,-0.856
-996.700,-12.656,-56.662,0.752,-0.566,-0.850
-998.742,-13.053,-56.992,0.790,-0.729,-1.019
-1004.310,-13.126,-57.235,0.736,-0.770,-1.014
-1005.687,-14.648,-58.392,0.689,-0.780,-0.859
-1003.798,-15.986,-58.942,0.615,-0.754,-0.670
-1004.000,-14.000,-57.000,0.560,-0.630,-0.560
-1006.446,-13.718,-55.069,0.621,-0.687,-0.623
-1009.130,-15.162,-55.089,0.641,-0.678,-0.594
-1006.933,-13.787,-54.352,0.592,-0.502,-0.477
-1005.607,-12.433,-54.100,0.521,-0.322,-0.362
-1005.285,-11.793,-55.767,0.483,-0.157,-0.387
-1002.404,-12.256,-57.104,0.493,-0.158,-0.503
-1003.221,-12.970,-55.847,0.489,-0.290,-0.409
-1005.895,-11.174,-54.944,0.488,-0.352,-0.348
-1005.584,-9.923,-55.985,0.541,-0.250,-0.361
-1001.642,-10.692,-55.221,0.615,-0.062,-0.323
-997.862,-11.180,-55.708,0.635,0.040,-0.455
-998.664,-10.626,-57.657,0.627,-0.065,-0.617
-1000.001,-9.843,-56.264,0.637,-0.156,-0.618
-998.872,-10.083,-55.083,0.721,-0.226,-0.546
-1000.000,-11.000,-58.000,0.910,-0.280,-0.420
-1001.070,-15.000,-61.612,1.050,-0.208,-0.294
-1001.173,-21.578,-63.570,0.924,-0.346,-0.192
-1004.507,-24.531,-64.409,0.654,-0.536,0.024
-1006.331,-25.977,-62.948,0.468,-0.551,0.238
-1007.534,-29.472,-61.941,0.270,-0.414,0.281
-1009.000,-32.520,-63.396,0.106,-0.154,0.286
-1007.957,-32.910,-63.947,-0.174,0.010,0.359
-1008.087,-30.280,-62.165,-0.729,0.193,0.541
-1003.704,-26.138,-60.929,-1.127,0.389,0.796
-997.091,-20.887,-61.694,-1.420,0.484,0.908
-994.444,-16.675,-62.172,-1.665,0.446,0.908
-991.007,-13.255,-61.319,-1.663,0.232,0.899
-988.525,-8.636,-57.595,-1.702,-0.126,0.802
-989.299,-5.597,-53.462,-1.653,-0.545,0.681
-992.000,-2.000,-50.000,-1.400,-0.700,0.490
-993.122,0.147,-47.156,-1.165,-0.694,0.188
-991.970,-1.682,-47.019,-0.780,-0.718,-0.148
-993.235,-1.867,-46.749,-0.316,-0.634,-0.624
-996.457,-3.083,-47.905,0.052,-0.705,-1.019
-998.637,-6.089,-49.359,0.420,-0.908,-1.150
-1001.728,-8.673,-50.347,0.666,-0.996,-1.197
-1004.129,-12.277,-52.101,0.698,-1.049,-1.188
-1005.847,-14.887,-52.929,0.637,-0.864,-1.189
-1007.111,-15.281,-53.908,0.525,-0.638,-1.149
-1005.507,-13.161,-53.897,0.352,-0.653,-1.012
-1004.176,-10.266,-54.569,0.183,-0.516,-0.972
-1003.373,-8.205,-55.009,0.143,-0.396,-0.971
-1002.922,-8.320,-55.128,0.252,-0.418,-0.866
-1002.944,-8.866,-54.779,0.359,-0.342,-0.665
-1002.000,-6.000,-53.000,0.350,-0.420,-0.490
-1001.156,-4.087,-53.029,0.344,-0.391,-0.538
-999.552,-3.341,-52.139,0.400,-0.069,-0.672
-998.319,-2.722,-52.969,0.486,0.033,-0.772
-999.850,-3.217,-54.397,0.665,-0.039,-0.898
-1000.935,-3.063,-54.056,0.817,-0.098,-0.713
-999.439,-5.954,-56.809,0.947,-0.258,-0.252
-998.020,-9.139,-59.091,1.132,-0.510,-0.070
-1000.675,-10.796,-59.946,1.191,-0.694,-0.195
-1004.431,-14.199,-60.114,1.183,-0.665,-0.429
-1006.123,-17.518,-59.804,1.210,-0.461,-0.659
-1008.349,-21.768,-60.509,1.096,-0.153,-0.692
-1010.648,-25.390,-61.400,0.886,0.090,-0.546
-1010.812,-27.819,-62.208,0.718,0.137,-0.231
-1011.217,-31.721,-63.271,0.533,0.051,0.204
-1013.000,-37.000,-66.000,0.420,-0.070,0.560
-1012.324,-40.769,-67.821,0.205,-0.024,0.927
-1010.319,-41.136,-69.871,-0.352,0.151,1.164
-1009.388,-40.280,-73.340,-1.051,0.369,1.253
-1007.145,-36.493,-73.571,-1.819,0.603,1.422
-1001.389,-30.766,-70.667,-2.435,0.593,1.472
-997.560,-24.451,-67.327,-2.698,0.466,1.464
-998.078,-18.670,-64.773,-2.807,0.335,1.313
-998.068,-15.307,-61.226,-2.867,0.086,1.247
-997.172,-9.611,-60.071,-2.876,-0.006,1.501
-996.115,-3.474,-57.523,-2.834,0.010,1.501
-995.945,-0.570,-51.570,-2.694,-0.009,1.164
-997.883,0.127,-51.671,-2.322,0.006,0.700
-1000.954,-0.065,-51.745,-1.931,0.005,0.443
-1003.035,0.097,-52.196,-1.723,0.084,0.328
-1000.000,2.000,-51.000,-1.540,0.140,0.140
-997.814,4.732,-48.739,-1.418,0.307,-0.259
-999.213,6.273,-50.623,-1.226,0.534,-0.847
-996.989,8.788,-47.135,-0.830,0.616,-1.200
-995.111,7.736,-49.544,-0.417,0.785,-1.410
-994.787,5.921,-51.497,-0.096,0.535,-1.053
-996.605,8.639,-49.041,0.223,0.169,-0.778
-997.923,8.934,-52.101,0.668,0.214,-0.984
-995.198,8.953,-49.238,1.155,0.145,-0.843
-994.001,7.900,-50.764,1.547,0.229,-1.181
-994.123,3.793,-53.709,1.729,0.372,-1.658
-996.748,3.211,-52.191,1.777,0.274,-1.615
-997.060,4.520,-53.820,1.871,0.154,-1.462
-992.640,5.234,-54.175,2.009,0.049,-1.289
-990.844,6.132,-57.669,2.198,0.076,-1.257
-989.000,7.000,-59.000,2.310,-0.000,-1.190
-988.777,7.230,-58.673,2.471,-0.184,-1.190
-989.342,4.233,-60.894,2.840,-0.395,-1.068
-988.621,0.958,-60.607,3.104,-0.718,-0.815
-991.960,-1.697,-62.356,3.410,-0.946,-0.747
-994.443,-7.322,-64.675,3.727,-1.110,-0.672
-996.608,-11.919,-66.551,3.676,-1.201,-0.731
-999.147,-17.551,-69.175,3.563,-1.184,-0.843
-1000.869,-23.734,-70.900,3.325,-0.998,-0.781
-1001.371,-25.020,-71.313,2.776,-0.883,-0.600
-999.873,-24.639,-69.035,2.400,-1.068,-0.491
-1004.775,-22.529,-66.765,2.137,-1.128,-0.465
-1011.014,-22.612,-65.260,1.847,-1.140,-0.165
-1011.843,-24.128,-63.491,1.849,-1.205,0.388
-1010.741,-22.815,-63.116,1.881,-1.279,0.910
-1009.000,-23.000,-65.000,1.750,-1.400,1.190
-1009.809,-22.284,-65.289,1.582,-1.238,1.092
-1009.120,-20.983,-63.215,1.195,-0.926,0.784
-1005.038,-21.198,-63.529,0.793,-0.661,0.559
-1003.094,-20.282,-63.904,0.639,-0.490,0.416
-1002.810,-18.022,-62.230,0.497,-0.525,0.332
-1002.849,-15.504,-60.815,0.430,-0.663,0.359
-1000.799,-15.092,-61.032,0.652,-0.777,0.345
-999.878,-17.750,-60.165,0.837,-0.838,0.224
-1002.508,-19.938,-58.786,0.797,-0.801,-0.014
-1002.702,-19.772,-60.540,0.643,-0.631,-0.185
-1000.336,-21.086,-60.902,0.433,-0.451,-0.299
-1000.052,-22.213,-61.712,0.284,-0.268,-0.700
-1001.031,-22.079,-63.211,0.063,-0.218,-0.925
-998.326,-23.115,-62.991,-0.074,-0.291,-0.828
-995.000,-22.000,-63.000,-0.070,-0.420,-0.840
-997.459,-19.346,-61.243,-0.194,-0.731,-0.782
-998.206,-17.442,-60.842,-0.217,-0.815,-0.794
-993.372,-16.324,-60.676,-0.284,-0.638,-0.940
-991.002,-15.369,-59.301,-0.613,-0.482,-1.024
-990.984,-12.907,-58.921,-0.805,-0.413,-1.200
-992.110,-10.624,-59.140,-0.752,-0.528,-1.349
-989.679,-9.987,-60.046,-0.694,-0.716,-1.323
-987.840,-9.984,-60.014,-0.509,-0.958,-1.199
-990.809,-10.685,-60.069,-0.348,-1.256,-1.123
-989.783,-11.927,-58.856,-0.379,-1.576,-1.121
-992.161,-11.505,-57.063,-0.252,-1.783,-1.119
-995.649,-10.894,-57.136,-0.249,-1.842,-1.118
-994.910,-10.879,-56.757,-0.371,-1.907,-1.136
-998.842,-9.900,-55.899,-0.345,-1.878,-1.290
-1003.000,-11.000,-56.000,-0.350,-1.820,-1.400
-1006.414,-12.884,-57.700,-0.292,-1.820,-1.293
-1008.452,-13.070,-58.997,-0.261,-1.820,-0.981
-1006.147,-12.579,-58.467,-0.361,-1.798,-0.533
-1006.533,-11.282,-57.667,-0.456,-1.659,-0.427
-1008.358,-11.189,-58.574,-0.376,-1.469,-0.662
-1009.103,-12.306,-60.334,-0.367,-1.283,-0.885
-1010.116,-14.160,-61.022,-0.418,-1.028,-0.978
-1011.902,-15.070,-61.020,-0.410,-0.783,-0.793
-1010.991,-13.321,-60.889,-0.651,-0.702,-0.481
-1005.525,-12.869,-61.710,-0.725,-0.668,-0.292
-1002.720,-12.724,-62.025,-0.734,-0.573,-0.316
-1002.603,-11.254,-62.274,-0.915,-0.568,-0.343
-999.790,-9.347,-63.089,-0.881,-0.545,-0.252
-996.691,-7.964,-61.703,-0.840,-0.580,-0.202
-996.000,-9.000,-61.000,-0.770,-0.770,-0.070
-995.291,-8.309,-61.965,-0.524,-0.891,0.117
-992.231,-6.962,-61.341,-0.411,-1.066,0.220
-988.820,-7.151,-60.740,-0.440,-1.156,0.035
-990.046,-7.016,-61.269,-0.378,-1.084,-0.548
-992.464,-8.935,-60.440,-0.344,-1.179,-0.923
-993.160,-9.958,-58.577,-0.239,-1.384,-0.886
-995.170,-8.904,-56.874,-0.061,-1.707,-0.758
-995.203,-7.173,-55.960,-0.006,-1.896,-0.572
-991.686,-5.789,-58.139,0.114,-1.666,-0.532
-989.374,-7.602,-61.441,0.156,-1.564,-0.697
-987.949,-7.193,-62.007,0.145,-1.695,-0.883
-988.490,-5.728,-62.636,0.306,-1.807,-1.050
-990.013,-7.763,-66.287,0.576,-2.045,-1.146
-987.663,-9.105,-69.276,0.797,-2.268,-1.286
-991.000,-10.000,-70.000,0.980,-2.520,-1.330
-1000.872,-11.651,-70.040,1.183,-3.005,-0.929
-1004.250,-14.325,-69.871,1.028,-3.347,-0.420
-1003.325,-15.055,-70.359,0.625,-3.237,-0.426
-1005.262,-12.479,-68.272,0.135,-2.878,-0.939
-1009.664,-9.954,-62.894,-0.366,-2.524,-1.396
-1013.566,-6.120,-59.435,-0.383,-2.162,-1.440
-1013.971,-5.087,-56.735,-0.198,-2.036,-1.083
-1014.814,-6.040,-53.202,0.041,-2.227,-0.595
-1016.985,-5.028,-51.978,0.433,-2.267,-0.163
-1015.002,-5.718,-52.057,0.520,-2.111,0.169
-1013.165,-5.726,-51.926,0.475,-1.861,0.160
-1014.135,-4.243,-52.021,0.481,-1.523,0.020
-1011.946,-2.564,-52.083,0.409,-1.263,-0.009
-1009.849,-3.373,-53.224,0.612,-1.101,-0.081
-1009.000,-6.000,-54.000,0.910,-1.050,-0.070
-1008.821,-6.851,-53.971,0.975,-1.059,-0.058
-1009.413,-8.415,-53.620,1.035,-0.915,-0.172
-1007.661,-10.189,-50.979,1.026,-0.667,-0.290
-1008.708,-11.792,-49.747,0.946,-0.430,-0.426
-1007.926,-11.904,-49.866,1.039,-0.213,-0.499
-1005.686,-13.832,-48.858,1.231,-0.239,-0.369
-1004.869,-17.097,-50.182,1.332,-0.355,-0.041
-1002.201,-16.118,-51.949,1.272,-0.411,0.326
-999.721,-15.244,-52.032,1.044,-0.546,0.546
-996.311,-13.487,-51.966,0.811,-0.494,0.469
-996.640,-13.691,-52.045,0.741,-0.319,0.112
-998.161,-15.326,-51.731,0.638,-0.282,-0.158
-997.812,-13.321,-50.592,0.556,-0.409,-0.081
-996.706,-13.062,-48.565,0.645,-0.670,0.171
-996.000,-12.000,-45.000,0.700,-0.840,0.140
-1001.138,-11.597,-43.868,0.817,-0.852,-0.120
-1003.630,-15.154,-44.339,0.875,-0.701,-0.072
-1000.769,-16.739,-43.038,0.736,-0.481,0.148
-999.204,-17.767,-43.508,0.698,-0.397,0.256
-998.471,-19.538,-44.115,0.694,-0.445,0.273
-996.259,-20.232,-45.550,0.713,-0.500,0.189
-993.937,-23.337,-48.170,0.772,-0.568,0.137
-994.031,-26.871,-50.717,0.711,-0.691,0.076
-993.016,-27.191,-54.526,0.491,-0.805,0.055
-994.150,-25.488,-54.625,0.174,-0.988,0.103
-994.336,-21.248,-53.660,-0.057,-1.078,-0.062
-991.980,-20.424,-54.125,-0.189,-1.041,-0.329
-993.854,-22.155,-54.173,-0.205,-1.180,-0.558
-996.265,-19.465,-56.387,-0.216,-1.354,-0.715
-997.000,-18.000,-57.000,-0.210,-1.540,-0.770
-996.672,-18.890,-55.963,-0.138,-1.731,-0.894
-1001.055,-19.215,-56.852,-0.201,-1.842,-0.858
-1005.589,-17.500,-56.182,-0.164,-2.004,-0.523
-1005.505,-14.611,-53.695,-0.194,-1.972,-0.452
-1004.652,-13.814,-52.950,-0.449,-1.706,-0.929
-1005.349,-12.750,-52.961,-0.576,-1.400,-1.520
-1007.177,-13.087,-53.041,-0.634,-1.182,-1.831
-1009.774,-13.103,-53.110,-0.634,-1.245,-1.769
-1011.008,-12.568,-49.964,-0.574,-1.483,-1.466
-1012.178,-14.883,-46.635,-0.512,-1.674,-1.244
-1015.839,-13.559,-45.034,-0.475,-1.580,-1.091
-1013.316,-11.358,-43.291,-0.519,-1.210,-0.890
-1013.235,-10.595,-43.000,-0.566,-0.782,-0.865
-1010.474,-8.891,-43.145,-0.459,-0.450,-1.089
-1012.000,-11.000,-47.000,-0.210,-0.280,-1.190
-1008.769,-13.850,-51.725,-0.135,-0.212,-0.899
-1001.471,-13.974,-52.038,-0.150,-0.249,-0.631
-1006.276,-14.866,-52.145,-0.148,-0.346,-0.741
-1003.611,-17.297,-51.466,-0.321,-0.284,-0.914
-1010.307,-18.006,-50.928,-0.449,-0.054,-0.860
-999.285,-18.101,-51.070,-0.509,-0.016,-0.652
-999.927,-17.910,-52.110,-0.557,-0.152,-0.562
-1000.001,-16.941,-52.971,-0.428,-0.333,-0.687
-997.790,-19.397,-53.755,-0.457,-0.532,-0.783
-1008.256,-19.990,-53.705,-0.526,-0.614,-0.638
-993.958,-17.496,-52.701,-0.445,-0.626,-0.506
-1010.285,-16.955,-55.174,-0.567,-0.457,-0.651
-994.865,-17.136,-54.601,-0.633,-0.209,-0.801
-1007.701,-18.112,-56.573,-0.733,-0.059,-0.844
-1004.000,-17.000,-57.000,-0.980,-0.140,-0.840
-998.296,-14.358,-54.053,-1.102,-0.218,-0.780
-1016.182,-11.845,-53.223,-1.237,-0.185,-0.748
-989.420,-9.851,-49.517,-1.236,-0.258,-0.891
-1030.124,-10.455,-51.587,-1.151,-0.091,-0.996
-990.362,-9.033,-49.344,-1.088,0.005,-0.686
-1027.672,-6.634,-48.309,-0.941,0.008,-0.362
-1003.858,-5.954,-46.634,-0.755,-0.005,-0.121
-1001.137,-5.075,-45.630,-0.571,0.051,0.005
-1042.444,-4.146,-47.595,-0.450,0.313,-0.119
-937.075,-4.314,-41.912,-0.314,0.516,-0.206
-1145.492,-5.831,-52.311,-0.254,1.011,-0.420
-618.771,-3.005,-29.438,-0.130,0.633,-0.276
