acc_x[mg],acc_y[mg],acc_z[mg],gyro_x[dps],gyro_y[dps],gyro_z[dps]
-1005.000,141.000,-83.000,36.470,6.580,-18.900
-1032.077,167.835,-94.131,30.807,1.810,-13.154
-919.422,159.477,-95.308,20.635,-3.526,-4.535
-1007.611,155.737,-110.445,20.486,-6.078,-3.353
-895.845,138.514,-105.215,14.341,-9.163,-0.539
-950.951,149.427,-111.370,14.914,-9.155,-1.841
-892.662,178.112,-93.370,11.228,-8.705,0.116
-903.809,199.989,-50.665,6.902,-7.947,1.883
-902.513,211.086,-16.428,-6.008,-8.929,6.639
-896.098,210.390,-21.142,-25.835,-11.478,13.454
-956.769,172.697,-76.107,-43.235,-14.062,18.420
-956.235,129.289,-144.203,-51.600,-13.884,21.898
-1022.193,71.677,-167.764,-42.261,-9.351,18.744
-1003.818,71.097,-137.532,-27.007,-5.082,12.138
-1034.340,78.594,-99.159,-15.708,-3.797,3.683
-1030.000,111.000,-85.000,-12.390,-4.060,-0.490
-975.336,182.155,-97.785,-11.428,-6.258,-2.166
-1060.275,88.243,-99.779,-9.760,-7.603,-4.885
-1015.326,79.122,-70.693,-5.026,-4.777,-4.603
-948.465,147.051,-62.410,-0.271,-8.067,-6.923
-972.014,128.101,-102.027,-1.332,-14.012,-9.612
-946.008,167.212,-116.784,0.412,-14.104,-10.890
-937.301,177.546,-105.708,0.802,-14.483,-11.599
-927.733,200.402,-106.466,-2.093,-14.467,-10.837
-916.582,226.496,-90.948,-3.604,-14.362,-9.506
-929.878,214.949,-83.205,-7.591,-14.642,-5.842
-939.613,213.028,-92.120,-13.454,-13.779,-2.685
-969.168,174.965,-100.498,-18.875,-11.991,0.317
-985.307,154.254,-105.108,-22.374,-9.872,0.881
-1012.804,112.395,-109.502,-23.541,-8.210,0.040
-1072.000,43.000,-101.000,-21.770,-4.760,-1.470
-1063.398,35.590,-85.960,-17.350,-1.690,-7.957
-1030.003,38.104,-90.077,-11.975,-1.156,-14.051
-1066.107,-1.672,-67.330,-4.529,-0.957,-20.282
-1073.225,-21.821,-52.462,3.693,0.339,-26.134
-1014.405,9.924,-59.924,10.550,0.672,-33.543
-984.720,54.346,-49.112,14.858,0.647,-42.260
-971.649,104.147,-62.855,15.596,2.045,-45.335
-954.276,159.693,-74.529,15.656,2.065,-47.019
-933.405,214.528,-58.183,15.435,2.291,-46.113
-909.044,255.830,-34.573,12.397,2.857,-41.149
-902.990,272.514,-18.326,5.065,1.339,-33.816
-901.494,265.323,-29.247,-5.971,-1.685,-24.453
-913.858,230.947,-53.610,-16.724,-5.032,-14.734
-939.410,177.926,-76.234,-24.862,-6.258,-6.120
-976.000,116.000,-95.000,-30.030,-5.670,-0.140
-1014.703,68.547,-106.650,-32.215,-4.274,3.794
-1035.922,34.136,-99.733,-31.340,-3.410,5.660
-1050.741,6.290,-78.317,-29.144,-3.122,6.562
-1058.170,-4.789,-54.666,-27.973,-2.635,6.351
-1071.202,-14.383,-48.194,-28.228,-3.737,5.652
-1084.922,-12.282,-64.937,-27.925,-5.106,2.835
-1083.296,-5.506,-68.638,-24.235,-6.397,-0.630
-1064.065,9.202,-68.309,-21.546,-6.938,-3.343
-1040.615,28.111,-81.302,-21.032,-7.224,-5.189
-1020.323,39.478,-89.082,-19.232,-8.281,-4.977
-975.706,71.636,-89.926,-17.399,-8.811,-7.465
-968.553,58.762,-89.123,-14.404,-11.696,-4.196
-994.637,19.088,-97.514,-13.428,-11.940,-1.055
-973.893,25.180,-104.182,-13.465,-9.233,-5.456
-958.000,23.000,-104.000,-9.800,-10.080,-5.110
-965.575,4.578,-109.578,-7.325,-10.148,-5.715
-948.713,5.310,-109.157,-5.162,-9.674,-8.115
-930.719,22.065,-119.236,-3.498,-8.949,-9.349
-923.824,38.127,-133.755,-2.525,-5.606,-10.127
-907.317,61.986,-128.619,0.480,-0.141,-8.376
-932.125,61.866,-111.670,2.577,6.808,-7.153
-949.525,53.178,-59.278,5.073,12.101,-6.383
-965.351,40.087,-27.963,0.618,16.972,-5.275
-1080.671,-48.288,-67.368,-11.363,23.890,-2.765
-1159.978,-132.012,-114.463,-17.027,31.895,-5.754
-1193.880,-192.181,-175.696,-14.354,40.817,-17.916
-1231.991,-245.127,-216.460,1.272,50.698,-34.086
-1188.295,-217.513,-175.813,26.851,54.807,-53.219
-1125.727,-139.628,-128.159,47.021,49.452,-71.125
-1072.000,-73.000,-110.000,59.990,42.070,-83.720
-1044.011,-47.003,-93.502,70.249,34.542,-89.876
-1055.917,-45.158,-80.142,78.230,26.298,-91.120
-1033.452,-51.361,-79.964,81.103,20.446,-90.121
-1009.432,-64.080,-106.909,81.513,17.773,-87.127
-1022.472,-85.267,-134.542,86.413,17.669,-81.724
-1036.078,-113.982,-108.661,95.238,18.766,-75.670
-1025.755,-113.012,-45.295,96.871,21.207,-71.710
-1018.585,-106.645,-6.004,82.990,21.663,-68.144
-1024.499,-113.059,-9.780,62.943,15.686,-64.076
-1004.421,-106.322,-17.694,44.635,10.332,-60.229
-972.064,-93.138,-14.815,25.754,10.416,-54.545
-962.958,-87.963,-38.024,8.197,10.380,-46.816
-963.577,-84.352,-77.191,-2.074,7.447,-40.195
-942.847,-60.021,-100.220,-4.477,2.119,-36.565
-923.000,-28.000,-105.000,-6.580,-0.910,-34.440
-912.096,-3.536,-101.857,-12.999,-0.581,-30.873
-903.045,-1.829,-113.893,-24.335,-1.164,-24.071
-915.514,-41.585,-163.929,-37.505,-2.317,-16.523
-925.028,-104.811,-219.445,-44.260,-2.281,-11.096
-925.802,-182.052,-208.583,-42.518,0.019,-8.012
-925.579,-263.313,-144.425,-37.176,0.887,-7.595
-946.657,-334.670,-80.309,-35.048,-1.171,-8.908
-973.462,-372.788,-67.633,-37.722,-6.701,-12.482
-972.235,-384.635,-78.232,-42.517,-10.004,-18.137
-991.539,-406.719,-41.357,-53.231,-4.221,-23.314
-1008.828,-405.572,-47.821,-66.857,-6.757,-29.685
-1028.511,-392.425,-102.554,-72.242,-18.862,-37.171
-1059.970,-399.145,-121.673,-69.000,-24.097,-43.174
-1055.363,-391.559,-129.227,-62.286,-25.785,-49.748
-1032.000,-377.000,-140.000,-54.110,-28.070,-58.100
-999.869,-371.255,-171.866,-41.720,-30.376,-64.859
-990.026,-373.475,-184.666,-22.039,-29.808,-69.898
-1001.340,-384.435,-157.979,-0.653,-25.078,-76.492
-1013.552,-401.535,-142.775,18.222,-20.548,-85.357
-1015.585,-409.187,-126.390,36.906,-17.543,-96.540
-999.594,-394.173,-104.862,54.573,-14.274,-107.283
-992.387,-367.460,-77.791,68.355,-10.429,-114.364
-975.385,-327.193,-59.349,76.870,-7.219,-118.028
-971.504,-293.361,-58.919,82.769,-4.863,-120.592
-972.215,-257.077,-48.697,89.782,-4.111,-122.093
-942.996,-198.613,-24.713,94.667,-3.319,-119.136
-948.190,-174.911,4.328,93.191,-3.133,-113.530
-954.437,-184.465,18.761,87.942,-6.192,-105.931
-923.822,-200.699,45.515,81.415,-11.406,-97.445
-918.000,-233.000,68.000,70.770,-20.230,-92.610
-917.802,-251.682,47.641,57.553,-31.025,-88.512
-915.578,-262.715,19.117,47.915,-38.529,-82.794
-905.853,-279.837,-3.471,44.390,-41.632,-77.094
-898.985,-291.036,-6.267,44.974,-42.469,-71.260
-929.121,-287.178,-12.274,47.661,-44.509,-63.026
-912.541,-255.307,-11.037,53.816,-47.129,-52.878
-875.136,-226.511,28.562,57.929,-47.177,-42.645
-853.854,-217.670,66.058,53.344,-46.698,-30.564
-840.729,-240.151,78.327,41.706,-49.032,-16.945
-851.709,-280.519,65.956,29.331,-53.616,-4.266
-843.894,-300.663,51.783,20.211,-57.108,6.089
-854.276,-320.665,37.694,11.843,-57.531,14.140
-835.962,-315.776,30.819,5.390,-56.922,19.843
-846.448,-337.015,-6.074,-1.282,-54.064,25.250
-907.000,-413.000,-48.000,-1.330,-49.560,29.470
-888.876,-411.024,-5.159,11.136,-49.098,26.799
-886.464,-377.361,2.067,17.023,-48.683,21.060
-877.903,-388.603,-25.849,18.691,-41.814,17.027
-868.305,-388.573,-0.346,25.649,-33.108,13.884
-893.518,-376.288,19.667,29.803,-27.739,13.713
-887.551,-366.010,38.827,31.273,-23.233,16.881
-889.482,-365.490,48.041,29.272,-17.923,21.164
-890.757,-376.874,53.805,26.275,-12.292,23.390
-905.207,-393.264,70.683,23.876,-5.911,21.063
-915.064,-403.638,89.012,20.384,1.099,15.418
-906.838,-393.285,120.556,16.264,7.377,9.169
-901.924,-377.294,124.124,9.368,9.557,4.670
-897.436,-368.979,95.455,3.457,8.500,3.535
-909.571,-360.089,61.876,-1.185,8.484,3.236
-901.000,-343.000,54.000,-3.010,9.800,0.560
-875.946,-328.995,23.101,-8.457,7.047,-0.937
-851.337,-328.881,-81.982,-25.463,2.738,0.540
-849.691,-342.598,-107.503,-31.936,9.255,1.884
-864.860,-344.679,20.040,-22.156,19.438,2.524
-871.399,-308.131,162.335,-19.311,19.820,2.646
-894.966,-287.395,185.972,-32.950,15.461,4.181
-908.471,-322.942,140.784,-52.313,12.126,7.835
-921.327,-370.396,148.217,-67.815,10.916,10.443
-940.054,-386.201,142.579,-86.041,11.199,11.650
-946.550,-379.125,61.641,-102.633,10.316,11.545
-964.800,-394.891,-4.002,-101.709,10.839,10.860
-983.468,-429.970,20.245,-85.266,16.962,10.993
-1007.462,-458.401,63.299,-71.317,24.207,9.380
-1041.100,-490.270,36.316,-67.034,27.659,4.913
-1048.000,-522.000,-10.000,-60.900,30.030,-1.400
-1043.240,-543.780,-28.151,-48.953,32.418,-8.613
-1036.333,-552.880,-28.435,-36.556,33.261,-14.692
-1011.881,-556.098,-24.308,-25.619,29.912,-19.834
-993.103,-549.867,-25.048,-15.293,21.682,-24.542
-974.796,-515.735,-24.194,-5.297,14.305,-28.121
-951.682,-466.106,0.200,1.422,11.102,-30.238
-933.047,-417.781,31.116,2.074,9.670,-29.448
-931.601,-389.361,21.594,-1.487,7.227,-26.753
-931.153,-371.659,11.295,-3.602,4.660,-23.678
-924.324,-354.815,9.436,-5.375,3.689,-20.251
-928.869,-354.783,-13.352,-8.579,4.830,-17.237
-927.134,-364.786,-28.375,-9.323,7.262,-14.140
-940.452,-388.697,-47.832,-7.801,8.968,-10.940
-946.649,-420.121,-71.395,-3.619,11.130,-8.390
-947.000,-452.000,-72.000,2.870,12.530,-8.050
-935.007,-455.110,-62.245,9.541,13.378,-9.449
-905.212,-447.153,-51.272,16.099,14.218,-10.417
-898.978,-450.939,-20.413,21.694,12.813,-9.674
-885.195,-444.404,-8.850,24.600,10.578,-7.630
-893.460,-462.049,-36.219,26.325,8.340,-7.339
-891.617,-456.555,-19.571,30.367,9.492,-8.192
-900.927,-454.344,-12.479,30.791,13.899,-10.842
-903.543,-462.533,-28.528,29.272,19.171,-13.898
-870.263,-430.358,-13.137,28.378,22.285,-16.430
-874.057,-421.314,-11.800,23.023,27.140,-18.205
-874.636,-432.259,13.188,16.884,36.456,-15.706
-895.004,-422.613,-36.873,12.408,35.821,-19.060
-772.945,-284.657,-78.925,14.078,39.234,-13.364
-729.516,-248.636,55.577,8.511,46.138,13.944
-896.000,-422.000,33.000,-8.470,30.240,24.570
-869.395,-465.110,-115.103,-11.628,14.012,18.970
-895.754,-500.974,-68.987,-3.851,12.584,20.288
-973.645,-566.589,6.735,0.135,13.212,16.227
-947.202,-558.541,-37.234,0.571,9.244,8.392
-958.397,-518.979,-78.467,5.776,3.948,3.615
-893.320,-418.291,-56.924,11.062,6.721,-1.480
-859.844,-416.935,-71.312,9.455,10.235,-1.985
-906.155,-445.282,-64.839,10.972,9.620,4.510
-921.309,-421.023,-31.976,13.901,8.400,11.051
-913.608,-409.074,-91.443,13.358,7.734,15.560
-921.758,-349.790,-56.869,12.682,7.002,20.804
-931.345,-328.586,23.405,8.615,7.922,21.555
-933.521,-378.449,-8.906,-2.974,6.663,18.935
-967.851,-456.765,-5.838,-12.242,-1.424,18.056
-986.000,-518.000,-16.000,-17.710,-0.490,15.330
-986.803,-527.894,-49.943,-17.120,0.008,10.300
-976.519,-510.229,-89.629,-9.462,-1.763,3.252
-929.632,-466.838,-116.308,-1.691,4.244,-4.235
-905.085,-433.666,-60.816,11.183,2.567,-5.350
-921.583,-368.294,-34.079,5.694,14.455,-1.077
-906.497,-319.253,56.686,-13.837,25.712,1.613
-922.123,-352.137,81.114,-28.944,12.858,6.308
-975.441,-372.509,-59.370,-48.546,6.409,14.311
-965.591,-381.653,-79.649,-54.812,1.660,16.641
-957.251,-383.867,-87.717,-56.990,-1.199,14.876
-950.352,-374.773,-120.332,-61.629,0.872,14.194
-951.575,-374.914,-90.727,-61.564,-3.121,15.292
-956.987,-384.752,-75.948,-63.371,-4.942,16.344
-922.425,-407.345,-73.247,-61.043,-2.712,15.000
-906.000,-416.000,-84.000,-60.550,1.190,15.540
-900.420,-409.755,-99.115,-60.346,3.015,14.043
-874.255,-423.375,-122.992,-57.591,4.706,7.046
-846.669,-420.451,-154.092,-50.937,6.655,3.850
-870.392,-361.078,-171.961,-37.295,6.289,4.482
-881.511,-388.002,-116.122,-26.583,6.881,3.570
-851.343,-474.267,-90.694,-22.425,7.255,1.579
-831.548,-485.752,-148.014,-20.001,8.052,-1.044
-817.966,-499.958,-144.085,-6.831,14.827,-3.004
-823.401,-519.445,-161.405,9.205,24.053,-2.748
-814.243,-532.794,-179.421,11.447,25.034,1.935
-885.698,-528.026,-143.053,6.098,21.161,12.081
-996.319,-455.853,-128.607,-5.134,11.922,23.865
-964.336,-358.410,-131.414,-16.810,0.208,32.340
-901.201,-319.184,-165.370,-15.600,-0.780,33.592
-890.000,-359.000,-189.000,-7.770,0.840,29.400
-899.969,-402.334,-178.101,-2.189,0.091,23.654
-922.846,-428.717,-155.509,3.126,1.086,17.435
-943.388,-442.372,-140.138,7.080,1.765,13.690
-949.936,-437.457,-135.569,9.099,2.305,12.896
-948.170,-416.801,-131.173,10.686,2.898,13.392
-956.880,-382.947,-134.888,11.046,2.374,14.433
-954.288,-350.756,-135.034,9.393,-0.016,15.087
-944.790,-331.388,-139.671,6.387,-2.770,15.517
-930.575,-335.938,-135.650,3.893,-4.365,15.588
-922.895,-342.739,-130.537,1.929,-4.878,15.301
-929.700,-355.529,-144.734,0.140,-5.526,15.118
-921.635,-373.014,-148.249,-0.984,-6.658,15.714
-915.503,-382.767,-144.598,-0.993,-6.925,16.569
-897.848,-390.968,-152.030,1.903,-5.557,16.308
-878.000,-394.000,-169.000,8.610,-3.010,14.280
-887.771,-388.797,-173.441,16.159,-1.214,10.651
-899.861,-360.047,-158.660,21.523,-0.355,7.431
-915.443,-329.230,-139.449,24.971,0.210,5.046
-920.642,-318.989,-121.663,26.530,0.536,3.421
-914.412,-323.470,-125.206,26.009,1.158,3.476
-919.553,-325.815,-132.728,24.558,1.131,4.094
-926.871,-327.453,-119.954,22.804,-0.036,4.448
-945.494,-330.472,-117.470,20.257,-1.256,5.487
-953.755,-318.911,-121.897,17.108,-1.981,6.839
-943.855,-317.745,-115.460,14.617,-2.526,6.932
-941.772,-315.005,-114.460,11.911,-3.326,6.055
-943.813,-297.678,-109.983,7.797,-4.376,5.322
-947.156,-286.529,-94.405,3.531,-5.947,5.507
-954.773,-282.928,-90.517,-1.330,-8.137,7.031
-969.000,-288.000,-98.000,-6.860,-10.500,9.380
-970.752,-308.387,-111.937,-10.275,-11.943,11.231
-971.360,-337.564,-131.513,-10.171,-12.168,11.926
-983.774,-354.265,-134.111,-6.508,-11.881,11.402
-993.546,-367.227,-118.894,-2.112,-11.867,10.258
-1017.720,-354.083,-109.173,-0.375,-12.812,10.050
-1038.087,-317.643,-115.239,0.900,-13.596,10.382
-1051.283,-275.951,-123.467,2.764,-14.926,11.298
-1064.696,-215.991,-127.879,3.224,-17.315,12.351
-1063.742,-187.230,-122.858,3.089,-19.711,12.794
-1066.597,-193.997,-115.053,1.587,-22.163,14.392
-1054.009,-218.067,-131.788,-0.582,-23.356,16.955
-1038.351,-247.910,-139.458,1.274,-23.329,19.696
-1045.704,-252.494,-123.337,6.347,-22.249,21.372
-1067.958,-236.911,-100.199,11.452,-21.306,22.941
-1107.000,-219.000,-53.000,15.400,-21.630,25.200
-1118.760,-204.696,-9.375,16.695,-22.173,26.721
-1120.373,-154.213,-0.089,16.040,-23.751,30.695
-1140.200,-101.162,11.014,15.289,-26.240,36.483
-1148.775,-90.478,36.721,13.070,-30.251,41.629
-1149.430,-93.362,47.720,9.789,-34.606,46.006
-1115.505,-128.440,33.775,8.645,-37.133,48.440
-1043.016,-160.223,-9.444,10.537,-38.140,49.329
-968.321,-171.095,-39.135,17.282,-35.782,46.928
-909.514,-165.238,-95.657,20.370,-29.249,43.488
-877.038,-78.966,-222.412,11.829,-19.480,42.530
-853.534,22.354,-291.394,1.739,-8.983,39.457
-840.022,75.628,-290.970,-4.653,-0.893,33.806
-846.631,102.070,-241.532,-3.495,3.485,30.373
-860.910,81.170,-176.950,4.330,5.446,32.000
-865.000,41.000,-173.000,7.350,7.280,41.090
-862.560,-2.909,-158.705,6.255,8.344,53.543
-868.770,-54.418,-150.114,4.225,8.443,62.482
-875.654,-87.382,-156.328,1.320,8.303,67.817
-889.599,-105.884,-134.953,-1.953,8.869,71.288
-904.990,-125.021,-119.959,-5.854,10.417,74.254
-920.441,-166.280,-96.287,-8.052,11.675,77.577
-942.511,-210.805,-71.433,-7.720,13.244,80.879
-957.755,-236.089,-50.552,-5.062,15.509,83.490
-981.515,-228.072,-41.757,-2.814,17.361,85.314
-1013.781,-187.628,-53.790,-1.170,18.192,86.588
-1039.527,-155.214,-52.119,2.590,18.585,87.080
-1050.229,-114.527,-56.388,5.543,19.238,88.903
-1046.146,-93.413,-67.190,5.614,20.069,91.443
-1038.140,-117.726,-67.817,4.591,20.812,90.464
-1019.000,-145.000,-64.000,3.360,21.210,85.330
-1003.683,-174.451,-55.508,1.552,21.558,78.886
-987.777,-199.998,-59.642,0.152,22.127,72.386
-963.532,-214.266,-67.202,0.529,22.785,65.085
-955.592,-205.254,-57.227,2.082,23.191,58.085
-951.998,-198.399,-35.002,3.014,23.053,52.519
-951.916,-199.993,-14.986,1.640,22.428,50.282
-959.614,-172.845,-1.132,-1.795,21.395,49.819
-965.745,-167.785,6.602,-6.907,19.881,47.525
-964.994,-181.091,12.988,-12.810,17.814,45.390
-963.695,-175.494,19.383,-19.319,15.554,43.496
-973.244,-175.569,10.296,-26.902,13.346,41.022
-975.347,-182.441,-10.122,-33.656,11.260,38.634
-975.321,-192.225,-34.318,-38.869,9.779,35.516
-970.354,-201.286,-49.076,-41.989,8.910,30.885
-962.000,-211.000,-50.000,-43.400,8.120,24.710
-970.435,-220.056,-54.252,-43.242,7.385,17.563
-976.716,-225.034,-69.646,-41.499,6.692,9.658
-982.517,-224.642,-75.297,-38.381,5.768,2.269
-988.027,-212.120,-64.747,-34.339,4.291,-4.637
-994.700,-194.303,-73.818,-32.052,2.161,-11.049
-1010.606,-162.145,-86.306,-28.294,0.090,-15.433
-1019.157,-129.345,-98.808,-23.428,-2.391,-17.426
-1012.225,-121.831,-84.331,-16.280,-4.805,-17.670
-994.657,-131.440,-42.207,-4.626,-4.853,-19.487
-990.407,-163.165,-49.221,2.453,-4.611,-22.168
-984.706,-175.229,-63.142,4.064,-5.030,-20.747
-948.910,-144.362,-80.107,4.637,-4.606,-17.537
-902.582,-134.926,-107.600,7.768,-4.682,-16.648
-871.300,-137.223,-117.058,12.658,-4.101,-16.312
-850.000,-129.000,-125.000,18.830,-3.360,-16.590
-830.390,-126.702,-152.473,24.149,-2.626,-17.271
-814.539,-100.119,-232.130,20.595,1.520,-15.253
-792.020,-54.426,-268.890,20.421,7.312,-13.538
-792.103,-35.622,-211.102,30.845,12.883,-14.989
-832.331,-70.014,-113.739,42.128,16.461,-15.978
-907.291,-120.939,-56.223,45.027,16.647,-12.798
-994.589,-124.560,-79.568,37.707,17.356,-6.916
-1040.645,-96.481,-98.114,31.957,19.696,-2.804
-1079.684,-58.683,-117.599,29.354,21.901,-0.259
-1131.224,-11.437,-118.869,28.571,24.206,3.200
-1162.710,29.322,-111.263,28.471,26.272,7.951
-1182.981,76.506,-145.179,24.919,26.223,13.566
-1190.016,122.480,-121.964,21.397,23.445,19.446
-1202.179,131.501,-71.639,15.531,18.244,24.814
-1224.000,104.000,-31.000,6.230,11.690,28.350
-1224.153,66.858,-10.845,-4.442,5.865,31.017
-1203.354,40.816,-49.717,-14.847,1.790,34.161
-1167.254,16.207,-81.294,-21.853,-0.192,34.724
-1113.062,-15.036,-121.053,-27.162,-1.223,31.715
-1040.877,-42.952,-167.660,-29.794,-1.565,28.000
-973.121,-60.181,-204.130,-27.700,-0.045,22.762
-927.241,-50.137,-239.754,-21.832,2.834,15.294
-902.985,-19.353,-245.209,-13.075,6.056,7.946
-896.923,7.437,-242.888,-2.564,9.278,1.416
-901.217,33.711,-226.428,9.257,12.918,-4.494
-920.267,67.995,-210.659,20.854,16.015,-9.560
-944.955,103.870,-205.437,30.836,17.329,-12.601
-970.397,129.910,-186.797,38.347,17.325,-12.533
-1001.933,152.812,-174.950,42.002,16.170,-9.797
-1026.000,174.000,-169.000,41.230,13.230,-4.970
-1024.240,169.298,-162.786,36.150,9.146,1.297
-1007.407,142.463,-161.048,29.536,5.635,6.451
-987.743,111.297,-170.675,23.199,3.069,9.139
-965.452,81.977,-177.089,16.516,1.024,10.646
-952.068,60.353,-181.155,9.526,-1.137,11.129
-932.999,38.506,-177.956,2.645,-2.991,10.872
-919.502,14.252,-159.141,-2.234,-3.398,9.667
-911.026,-3.207,-168.294,-4.071,-2.054,7.719
-901.071,-5.042,-188.053,-2.109,0.435,5.358
-901.010,7.016,-210.279,1.439,2.945,2.330
-890.208,18.209,-237.869,3.729,4.603,-0.551
-881.391,20.054,-254.248,5.240,5.707,-3.165
-847.955,-0.091,-268.684,5.524,7.059,-5.349
-804.283,-42.514,-247.289,7.145,8.473,-9.212
-765.000,-101.000,-176.000,11.900,11.550,-14.280
-743.818,-162.583,-99.644,24.249,15.240,-20.215
-778.050,-154.744,-162.736,44.203,20.415,-26.143
-776.207,-56.216,-298.719,66.606,27.446,-26.370
-832.223,44.456,-275.994,92.566,27.445,-22.940
-1027.464,112.996,-226.908,106.687,24.038,-12.577
-1222.918,185.647,-222.102,101.646,22.522,4.548
-1319.446,250.678,-183.031,88.706,19.686,15.045
-1291.266,271.323,-159.497,67.646,18.317,19.563
-1256.146,252.773,-131.197,42.048,14.071,23.866
-1249.672,212.130,-112.292,16.998,4.797,28.721
-1216.393,161.924,-120.927,-6.315,-4.511,33.693
-1175.697,113.542,-130.313,-26.343,-13.127,36.727
-1120.479,55.491,-126.389,-42.654,-18.775,35.156
-1053.073,-7.882,-131.575,-53.528,-20.610,27.999
-995.000,-50.000,-179.000,-58.800,-19.810,20.650
-927.949,-67.603,-229.205,-57.028,-16.142,13.845
-858.014,-77.522,-235.882,-46.587,-9.976,5.725
-841.437,-99.765,-197.952,-28.998,-2.674,-3.839
-868.183,-103.926,-198.835,-9.927,3.872,-14.419
-916.992,-40.084,-227.714,8.862,8.318,-20.484
-969.653,72.564,-239.056,27.564,10.956,-21.442
-1016.270,178.524,-255.652,42.374,11.336,-17.956
-1077.179,224.342,-242.271,50.475,9.358,-10.594
-1101.327,216.192,-208.019,50.537,6.762,-3.675
-1099.946,196.045,-158.414,46.026,2.819,2.154
-1096.957,167.905,-134.353,36.993,-1.721,6.023
-1070.768,140.908,-151.914,23.847,-4.856,9.023
-1037.935,104.762,-145.009,11.435,-6.795,11.853
-988.078,59.876,-155.580,-1.617,-6.523,11.555
-929.000,28.000,-190.000,-12.460,-4.620,8.400
-879.608,-4.473,-212.668,-17.132,-2.028,3.558
-855.612,-23.576,-248.461,-17.389,1.176,-1.801
-842.150,-27.939,-266.976,-12.717,3.080,-6.624
-841.366,-41.201,-244.668,-4.425,4.291,-10.789
-889.273,-51.505,-229.908,4.543,6.212,-14.492
-947.699,-49.789,-192.642,13.705,7.205,-16.013
-1032.147,-43.702,-106.528,18.845,6.561,-12.725
-1138.969,-45.554,-57.727,14.421,5.037,-4.801
-1210.612,-46.700,-72.274,3.610,3.317,4.826
-1226.043,-23.998,-119.285,-6.912,2.432,11.223
-1143.278,17.327,-177.837,-13.179,2.490,13.769
-1047.014,55.096,-219.980,-12.577,2.825,13.529
-997.801,82.288,-233.050,-6.851,3.177,9.605
-965.302,95.741,-223.629,0.055,3.185,4.454
-972.000,89.000,-206.000,5.810,2.730,0.910
-978.234,73.492,-194.688,8.823,2.346,-0.522
-982.484,55.899,-193.795,9.201,2.172,-0.011
-986.905,38.546,-201.183,8.034,2.317,1.513
-974.056,31.862,-215.672,6.641,2.747,2.814
-977.576,32.867,-220.456,5.838,2.882,3.704
-971.562,39.003,-224.750,5.619,2.983,3.556
-959.742,51.096,-227.553,6.137,3.072,2.766
-962.641,65.954,-215.759,5.981,2.700,2.903
-968.601,74.153,-212.719,3.651,2.206,3.250
-979.387,69.611,-211.374,-0.080,1.734,3.395
-982.692,63.972,-210.346,-4.709,1.258,3.370
-987.152,56.351,-214.167,-9.777,0.914,2.838
-1000.664,36.759,-208.147,-13.714,0.735,1.823
-1017.603,9.728,-200.290,-16.508,0.805,0.784
-1030.000,-16.000,-203.000,-19.040,1.400,0.350
-1035.919,-35.489,-212.499,-20.602,2.603,0.399
-1043.321,-50.549,-205.349,-19.759,3.692,0.300
-1047.264,-66.530,-185.439,-18.117,4.327,-0.843
-1049.981,-87.485,-191.016,-20.831,5.087,-2.459
-1044.110,-99.971,-225.562,-27.074,6.530,-4.161
-1032.506,-106.317,-231.665,-30.194,8.635,-7.133
-1025.823,-120.827,-209.141,-30.828,10.798,-11.228
-1031.999,-113.888,-227.035,-33.438,12.855,-14.275
-1040.617,-84.623,-259.987,-34.609,15.062,-15.507
-1037.489,-56.943,-257.155,-29.560,16.786,-16.087
-1064.738,-29.313,-219.216,-20.773,17.350,-15.781
-1108.372,-10.417,-174.852,-13.067,16.694,-14.693
-1136.426,8.569,-158.470,-7.361,15.035,-12.827
-1147.568,27.183,-155.089,-1.683,13.048,-10.326
-1129.000,40.000,-170.000,4.690,10.640,-7.630
-1113.431,60.843,-193.722,12.904,7.807,-3.907
-1085.099,75.703,-209.382,20.914,4.519,0.057
-1049.572,82.685,-241.981,25.909,0.244,4.487
-1038.033,89.354,-255.866,30.851,-4.218,8.165
-1002.693,95.952,-260.837,33.537,-9.149,9.022
-969.067,102.723,-282.805,33.911,-14.352,9.975
-953.339,94.869,-276.718,36.799,-18.242,10.601
-922.457,79.157,-267.925,38.691,-20.978,9.156
-898.428,62.137,-266.475,38.534,-22.231,8.011
-884.353,36.759,-253.186,38.205,-21.871,6.985
-869.625,9.765,-244.014,36.411,-20.710,4.976
-852.093,-9.516,-237.206,33.402,-19.123,2.980
-829.497,-20.016,-232.926,30.795,-17.336,0.806
-804.445,-34.820,-208.528,29.874,-15.217,-3.187
-794.000,-53.000,-175.000,28.490,-13.650,-7.980
-805.325,-65.429,-159.699,24.979,-12.916,-11.704
-811.172,-75.501,-151.481,19.909,-12.203,-15.577
-824.770,-90.084,-158.902,14.274,-11.833,-19.547
-852.356,-116.088,-167.079,10.354,-11.380,-22.380
-869.882,-139.412,-173.691,8.389,-10.521,-24.335
-891.739,-151.228,-186.479,8.286,-9.759,-26.065
-913.377,-159.447,-192.440,10.136,-8.649,-28.733
-931.454,-158.662,-200.499,13.592,-7.367,-32.021
-950.445,-144.459,-198.261,18.507,-6.317,-35.196
-965.942,-124.918,-181.717,23.079,-5.452,-38.062
-987.430,-107.994,-169.679,25.576,-5.059,-40.004
-998.518,-94.155,-169.992,24.905,-4.723,-41.215
-999.047,-86.177,-187.100,21.601,-4.410,-41.321
-997.010,-78.374,-222.657,16.481,-3.912,-40.259
-986.000,-64.000,-267.000,11.340,-1.890,-38.780
-980.110,-48.997,-286.775,10.015,1.417,-37.347
-981.861,-38.262,-283.373,11.260,4.880,-36.099
-992.254,-30.550,-280.403,12.170,7.927,-33.288
-1003.870,-16.114,-284.553,11.942,10.623,-28.409
-1006.627,4.120,-299.017,9.791,13.541,-21.919
-1010.636,25.744,-309.477,7.410,16.486,-14.120
-1006.434,37.207,-312.049,6.061,19.157,-7.694
-1005.440,34.234,-312.742,4.400,21.207,-2.189
-1011.587,36.090,-321.186,3.616,23.291,3.199
-1004.804,46.744,-329.476,5.637,25.811,6.893
-1009.580,61.411,-325.545,8.572,27.909,10.195
-1025.374,81.119,-314.130,11.030,29.873,13.566
-1032.778,106.342,-290.797,12.779,31.290,17.176
-1038.566,115.845,-283.657,12.453,32.187,21.833
-1035.000,109.000,-292.000,10.080,32.690,26.810
-1024.840,101.441,-299.767,7.852,32.947,31.271
-1008.264,93.813,-301.462,6.896,33.631,34.293
-984.743,99.532,-289.085,6.823,33.643,35.503
-970.470,106.465,-286.107,7.531,33.278,35.202
-961.727,102.064,-267.967,8.783,32.682,34.581
-955.486,90.033,-247.484,9.903,31.926,34.006
-942.560,80.388,-244.664,10.439,31.457,33.182
-921.580,68.331,-234.103,13.125,30.833,31.983
-900.480,50.325,-215.989,17.218,30.674,29.584
-876.185,24.647,-186.346,20.972,30.412,25.861
-854.855,-22.081,-152.990,25.013,29.681,21.012
-826.777,-57.489,-127.569,27.862,28.358,16.414
-801.365,-76.222,-160.545,31.861,27.300,12.030
-777.522,-76.269,-181.068,37.933,28.230,5.126
-752.000,-86.000,-173.000,51.450,29.330,-5.390
-744.149,-95.275,-248.154,62.356,31.099,-15.624
-702.902,-48.622,-258.433,54.257,37.599,-19.920
-687.970,-43.857,-144.482,55.355,41.186,-19.747
-800.703,-122.305,26.147,71.969,30.493,-15.760
-965.331,-177.468,22.720,62.139,13.546,-5.476
-1083.500,-78.317,-291.888,32.904,3.802,8.431
-1110.645,115.268,-401.306,20.669,3.223,23.415
-1226.812,289.804,-341.330,4.400,5.243,33.473
-1494.836,487.062,-455.710,-28.335,8.490,37.335
-1594.809,620.298,-428.955,-54.561,12.312,48.827
-1547.328,606.310,-241.963,-88.693,2.449,70.643
-1535.823,481.075,-134.930,-134.522,-14.885,84.295
-1472.659,365.228,-196.852,-171.492,-21.845,82.418
-1358.448,311.481,-311.820,-192.138,-25.188,78.637
-1229.000,225.000,-315.000,-197.680,-27.510,76.090
-1116.483,118.870,-350.169,-197.408,-24.077,68.525
-1044.751,14.997,-439.156,-190.491,-21.205,60.602
-961.761,-78.723,-457.551,-176.037,-22.261,56.361
-902.337,-162.208,-416.647,-156.049,-22.058,53.351
-884.771,-234.851,-419.034,-133.230,-19.371,46.755
-888.289,-265.874,-424.333,-107.876,-17.919,34.844
-925.059,-259.646,-357.308,-80.564,-18.193,19.841
-992.054,-190.770,-340.550,-61.261,-19.824,4.379
-1067.397,-82.909,-316.818,-45.852,-23.121,-5.158
-1117.677,11.456,-261.086,-33.030,-27.631,-8.773
-1137.854,80.659,-253.180,-24.241,-32.244,-11.059
-1122.745,128.963,-229.370,-14.798,-36.029,-13.435
-1073.388,155.760,-227.899,-6.975,-39.327,-19.513
-1012.995,167.629,-242.093,2.752,-41.699,-28.610
-964.000,172.000,-233.000,12.880,-42.280,-37.870
-927.366,155.903,-244.426,19.431,-41.156,-44.848
-896.865,141.809,-266.754,25.226,-39.289,-47.240
-882.877,122.598,-268.767,31.944,-37.902,-47.451
-874.784,87.883,-239.110,38.246,-36.971,-47.269
-877.844,61.200,-222.686,40.107,-36.262,-46.589
-886.536,43.451,-201.898,40.128,-36.378,-44.360
-899.830,36.165,-167.749,38.925,-37.420,-41.343
-934.036,54.533,-168.653,35.853,-39.533,-37.537
-974.064,84.888,-124.600,35.361,-43.214,-32.527
-1027.549,95.622,-62.618,34.343,-47.813,-27.697
-1074.724,104.984,-45.541,28.827,-52.226,-21.070
-1087.033,84.195,-20.731,19.390,-56.140,-14.677
-1069.222,26.894,-37.799,8.324,-59.131,-11.401
-1042.008,-7.764,-78.854,-1.546,-59.938,-10.594
-1013.000,-24.000,-107.000,-9.310,-58.240,-11.830
-966.524,-11.567,-140.561,-13.565,-54.761,-15.250
-908.507,6.188,-161.757,-15.158,-50.075,-20.908
-858.063,39.871,-225.596,-15.142,-43.684,-25.702
-821.707,123.156,-290.160,-13.422,-34.278,-27.869
-763.601,149.881,-282.978,-9.008,-24.019,-26.554
-738.326,125.460,-262.946,-2.829,-16.154,-25.275
-758.225,114.851,-284.446,-1.180,-10.960,-24.514
-720.572,84.699,-335.189,-1.370,-8.071,-19.795
-679.373,63.119,-344.121,3.891,-5.797,-16.211
-687.019,67.213,-325.070,12.440,-2.372,-14.281
-709.346,64.839,-288.212,21.055,0.823,-10.105
-743.335,52.684,-216.788,27.819,2.261,-4.396
-792.216,36.652,-168.198,31.654,2.119,1.538
-841.327,18.375,-118.240,33.001,1.113,6.860
-867.000,10.000,-103.000,30.030,0.770,12.880
-876.166,10.910,-123.671,24.362,0.599,18.172
-882.162,-1.535,-103.887,19.692,-0.204,20.751
-892.360,-8.882,-101.855,17.467,-0.385,20.919
-896.677,2.287,-113.712,17.663,-0.330,20.685
-897.698,22.495,-137.799,18.574,0.195,21.494
-894.584,61.159,-175.306,20.304,1.762,23.218
-877.990,100.425,-196.330,21.343,4.050,24.827
-879.011,123.656,-206.338,24.123,6.677,23.477
-895.673,138.250,-187.275,31.907,8.713,20.107
-925.737,152.023,-156.618,41.229,10.185,18.361
-962.287,182.057,-140.646,51.167,10.562,19.401
-990.025,220.643,-132.418,58.420,9.756,21.650
-1032.509,239.247,-107.331,59.920,8.296,24.314
-1070.038,241.755,-99.763,55.576,6.140,28.344
-1082.000,231.000,-89.000,45.850,3.780,32.760
-1073.611,207.616,-117.000,32.109,2.627,36.203
-1033.623,185.614,-208.677,15.250,3.982,37.928
-946.894,176.234,-328.322,-4.514,7.837,37.301
-841.786,201.986,-446.444,-27.855,15.150,35.718
-768.419,197.650,-356.366,-46.774,27.626,29.627
-743.101,142.591,-257.168,-52.786,41.494,16.826
-794.377,159.828,-252.396,-38.051,48.752,9.717
-889.265,251.916,-181.433,-3.369,47.821,10.743
-998.308,403.014,-138.097,34.324,40.651,14.624
-1093.969,587.465,-166.821,62.463,32.615,25.762
-1096.283,695.814,-302.207,77.168,27.652,42.045
-1036.566,750.602,-378.060,81.246,23.331,59.188
-954.014,740.027,-421.436,77.183,27.105,69.830
-868.052,625.582,-392.155,67.617,39.253,68.547
-778.000,449.000,-289.000,46.830,49.700,58.800
-676.410,213.233,-275.505,19.234,55.094,41.417
-523.185,-63.141,-125.875,2.117,58.444,20.336
-359.340,-388.369,-5.272,-5.553,67.297,-2.399
-393.691,-651.705,-8.846,-3.654,71.902,-21.993
-606.235,-605.131,-203.760,3.405,68.990,-29.190
-872.809,-283.006,-397.475,30.472,66.926,-25.049
-1006.813,39.708,-191.469,80.459,57.149,-16.917
-1025.469,252.054,-73.166,105.374,42.674,-10.454
-1162.579,389.326,-99.169,101.032,33.184,-1.887
-1313.015,465.732,-107.503,89.742,30.292,7.129
-1466.272,555.647,-170.558,76.416,30.676,10.816
-1662.525,669.577,-110.208,64.792,27.943,12.250
-1783.215,699.922,11.633,39.991,22.381,15.219
-1700.672,633.742,58.503,-9.059,10.073,26.798
-1517.000,522.000,-4.000,-64.610,-3.360,36.890
-1404.364,400.596,-79.472,-108.996,-11.148,34.454
-1203.114,298.060,-155.153,-143.658,-19.131,32.670
-1027.311,224.445,-249.412,-167.519,-23.185,33.136
-938.986,142.081,-297.119,-181.710,-23.363,32.064
-833.661,25.703,-330.468,-190.378,-19.221,31.936
-808.751,-74.311,-371.618,-190.625,-7.035,29.461
-776.164,-129.310,-418.833,-178.179,3.854,21.930
-752.834,-116.515,-422.259,-151.277,9.956,11.055
-784.897,-34.257,-381.983,-118.269,12.429,1.128
-837.031,49.078,-341.220,-85.846,11.301,-7.188
-889.423,117.822,-311.508,-59.576,9.787,-12.766
-912.095,175.022,-288.148,-41.842,8.883,-15.321
-948.821,194.533,-257.442,-28.543,8.412,-18.751
-951.924,177.653,-252.498,-20.841,7.801,-24.825
-945.000,148.000,-268.000,-15.750,7.560,-32.620
-925.482,145.846,-276.311,-9.441,9.059,-39.919
-891.125,158.022,-259.918,0.068,11.973,-46.283
-879.025,158.735,-217.378,13.929,14.370,-51.345
-843.411,150.927,-182.274,32.045,14.250,-55.009
-832.681,84.623,-133.374,54.708,11.120,-59.385
-749.823,-74.643,-79.595,74.440,4.611,-66.587
-673.763,-266.908,-93.844,83.428,-6.659,-70.794
-705.988,-366.632,-168.050,78.859,-17.848,-68.657
-645.785,-366.354,-265.058,69.113,-20.941,-69.383
-574.127,-325.534,-358.799,61.118,-19.498,-69.209
-529.617,-219.125,-431.029,56.209,-16.729,-68.640
-558.548,-142.038,-442.647,65.602,-10.588,-75.403
-756.018,-137.666,-384.503,72.114,-2.962,-76.069
-911.828,-83.514,-369.481,54.870,8.459,-71.370
-993.000,21.000,-353.000,32.550,19.390,-69.510
-1103.611,105.212,-260.789,16.763,20.283,-66.533
-1229.482,126.058,-161.885,4.820,15.183,-65.197
-1339.612,117.765,-67.702,-3.436,9.495,-61.983
-1413.579,167.357,-57.068,-7.718,4.887,-52.199
-1430.787,272.002,-132.496,-8.559,3.198,-38.999
-1408.895,373.409,-203.906,-10.314,2.307,-25.782
-1358.970,429.296,-277.550,-16.899,0.378,-14.132
-1292.314,430.847,-332.348,-29.686,-2.311,-4.035
-1241.428,389.007,-353.837,-45.957,-4.288,3.079
-1176.342,322.057,-362.625,-61.009,-3.046,5.615
-1133.876,248.179,-384.834,-71.672,0.435,4.063
-1097.098,173.950,-402.228,-79.107,2.462,4.072
-1032.823,104.257,-389.296,-83.368,3.183,5.012
-981.980,43.657,-377.289,-81.517,4.719,3.959
-916.000,1.000,-385.000,-72.380,7.070,2.800
-860.854,-30.720,-396.232,-56.228,9.393,-0.877
-826.780,-67.462,-372.943,-37.734,11.776,-5.206
-805.463,-93.555,-364.897,-18.914,14.873,-8.737
-796.374,-92.748,-383.948,0.768,17.538,-11.381
-783.132,-84.873,-359.052,19.781,19.263,-12.545
-796.747,-83.243,-342.279,36.827,19.749,-15.162
-826.368,-63.204,-352.270,50.262,18.666,-16.339
-864.315,-11.610,-340.662,60.836,17.775,-14.771
-920.012,45.984,-317.043,67.433,16.226,-13.045
-989.957,95.739,-288.950,67.602,13.125,-10.530
-1060.694,141.662,-262.369,62.799,9.373,-5.899
-1107.206,178.679,-242.565,54.257,4.847,0.453
-1140.820,204.722,-232.432,42.304,0.642,7.034
-1159.753,213.846,-236.099,28.694,-2.535,12.588
-1142.000,197.000,-244.000,15.400,-4.830,14.840
-1099.694,157.134,-257.872,3.015,-5.899,14.185
-1044.124,112.696,-278.970,-6.924,-5.746,11.572
-981.919,77.357,-291.476,-12.442,-4.331,6.404
-925.531,44.410,-308.134,-14.593,-1.390,-0.048
-885.719,18.268,-336.119,-14.576,1.958,-6.843
-866.472,-3.487,-348.267,-12.445,4.015,-12.325
-834.058,-28.744,-354.699,-8.669,5.669,-15.767
-807.040,-42.554,-362.591,-2.773,7.496,-18.606
-794.510,-45.126,-368.989,4.553,9.216,-21.627
-787.957,-40.962,-373.364,12.892,10.534,-24.233
-814.875,-23.299,-361.748,21.256,11.037,-24.996
-834.954,11.251,-360.015,26.458,11.333,-23.551
-893.102,61.047,-344.140,28.858,10.331,-18.454
-989.619,107.042,-293.093,26.355,9.517,-11.256
-1042.000,136.000,-258.000,17.150,9.380,-4.760
-1088.285,146.449,-236.299,5.724,6.220,2.631
-1113.701,132.658,-219.651,-6.213,2.078,8.899
-1104.449,101.248,-221.103,-16.974,-0.552,11.588
-1080.375,74.118,-239.742,-24.889,-1.792,11.628
-1039.010,61.030,-266.329,-30.786,-1.559,9.265
-995.782,50.018,-293.214,-34.242,-0.961,5.443
-952.042,33.576,-317.561,-35.440,0.183,1.618
-927.008,13.552,-332.174,-34.408,1.707,-1.533
-918.599,-4.659,-341.479,-31.235,3.163,-4.001
-920.549,-16.909,-344.835,-26.906,4.511,-5.120
-929.043,-22.217,-340.260,-22.334,5.366,-4.742
-939.617,-18.278,-329.422,-18.312,5.839,-3.646
-955.637,-10.082,-319.357,-14.900,5.659,-2.454
-967.947,4.821,-310.429,-12.173,4.736,-1.357
-982.000,22.000,-303.000,-10.500,3.710,0.000
-982.415,31.060,-307.888,-9.901,2.688,1.081
-974.127,34.763,-312.340,-9.739,1.710,1.541
-970.835,29.168,-316.362,-9.419,1.416,1.189
-966.572,24.589,-323.106,-9.077,1.280,0.002
-960.601,22.306,-323.738,-8.758,0.948,-1.385
-948.777,14.426,-325.941,-8.165,1.024,-2.970
-951.734,13.032,-330.235,-7.268,1.121,-4.520
-956.189,9.519,-331.878,-6.051,1.179,-5.797
-955.576,5.511,-335.033,-4.853,1.311,-6.608
-961.236,9.403,-337.059,-3.966,1.402,-7.015
-958.667,13.628,-333.858,-3.537,1.620,-7.263
-962.380,19.945,-334.979,-3.842,1.827,-7.332
-959.496,21.971,-332.043,-4.116,1.760,-7.983
-955.283,22.150,-328.221,-4.515,1.521,-8.946
-958.000,20.000,-334.000,-5.390,1.680,-9.590
-960.212,12.648,-331.905,-6.173,1.656,-10.145
-972.482,12.206,-329.546,-7.139,1.647,-10.652
-959.921,14.534,-335.643,-8.211,2.633,-11.282
-950.399,19.108,-338.918,-8.703,2.656,-11.343
-955.297,27.231,-339.244,-8.685,2.031,-11.386
-947.275,36.152,-341.296,-9.217,2.183,-12.016
-948.236,43.279,-337.437,-10.073,1.455,-11.778
-947.945,42.322,-331.245,-11.098,0.665,-11.099
-956.634,36.261,-328.221,-12.508,-0.053,-10.657
-964.267,23.366,-322.712,-13.809,-1.313,-10.366
-958.327,7.036,-322.104,-15.150,-1.566,-9.995
-964.955,-7.570,-318.730,-15.659,-1.824,-8.870
-961.344,-18.827,-319.444,-15.919,-2.214,-8.019
-949.124,-26.269,-321.201,-15.389,-2.093,-7.739
-953.000,-37.000,-310.000,-13.300,-2.310,-7.840
-951.406,-42.285,-310.094,-12.087,-2.387,-8.326
-943.600,-37.735,-312.223,-11.067,-2.359,-7.757
-942.333,-33.037,-309.377,-9.727,-1.959,-6.893
-939.420,-32.269,-314.146,-8.402,-1.296,-6.720
-947.577,-37.688,-317.956,-6.698,-0.978,-6.171
-955.443,-44.217,-320.756,-5.278,0.012,-5.673
-956.460,-48.346,-323.013,-3.391,0.944,-5.430
-967.308,-54.465,-319.481,-0.770,0.928,-4.816
-969.619,-60.163,-314.838,1.847,0.653,-4.138
-967.780,-63.838,-319.450,3.895,0.142,-3.422
-961.506,-70.419,-328.502,5.645,-0.296,-2.523
-947.701,-76.011,-336.317,7.960,-0.318,-2.062
-940.017,-76.702,-341.046,11.005,-0.158,-2.393
-932.875,-71.854,-344.680,14.387,-0.064,-2.862
-927.000,-64.000,-348.000,17.920,-0.070,-3.290
-922.458,-61.875,-348.596,21.470,-0.123,-3.682
-921.147,-62.783,-352.436,24.680,-0.252,-3.754
-919.442,-63.489,-351.103,28.082,-0.332,-3.941
-920.538,-59.985,-347.384,31.108,-0.633,-4.077
-929.414,-47.875,-343.849,33.080,-1.193,-3.577
-934.699,-38.566,-335.030,34.380,-1.636,-2.518
-938.372,-34.722,-330.859,34.553,-2.144,-1.150
-942.797,-30.380,-328.284,33.937,-2.694,0.306
-943.325,-25.194,-324.721,33.126,-3.083,1.703
-941.832,-20.899,-321.631,31.960,-3.312,2.491
-942.437,-18.561,-321.451,30.253,-3.411,2.679
-942.689,-12.455,-323.551,28.470,-3.407,2.949
-943.655,-3.112,-320.723,26.708,-3.223,3.209
-947.581,6.607,-317.638,24.414,-3.061,3.296
-950.000,17.000,-314.000,22.260,-2.940,3.290
-952.622,23.379,-310.083,19.896,-2.921,3.281
-953.356,26.572,-311.983,17.028,-3.065,3.357
-953.051,26.042,-314.044,14.659,-3.043,3.294
-957.867,21.072,-313.751,12.212,-2.989,3.150
-961.895,16.440,-314.056,9.939,-2.874,3.017
-963.142,15.344,-314.106,8.423,-2.708,2.715
-962.905,21.662,-317.395,6.962,-2.733,2.270
-961.116,27.856,-320.997,5.875,-2.672,1.718
-960.225,26.706,-318.060,4.957,-2.534,1.416
-957.687,23.567,-314.444,3.713,-2.518,1.346
-952.758,18.555,-313.819,2.456,-2.493,1.049
-949.492,12.210,-313.857,1.349,-2.424,0.637
-945.353,7.862,-312.370,0.678,-2.483,-0.026
-940.429,4.504,-310.865,0.207,-2.610,-0.712
-939.000,2.000,-310.000,-0.140,-2.800,-1.050
-940.482,-0.317,-308.273,-0.105,-3.053,-1.299
-944.710,-7.207,-306.488,0.217,-3.179,-1.407
-947.777,-14.771,-305.546,0.670,-3.350,-1.351
-950.647,-16.429,-306.213,1.273,-3.476,-1.372
-955.898,-19.867,-303.492,1.991,-3.532,-1.688
-959.500,-23.220,-302.239,2.056,-3.664,-2.033
-961.143,-21.940,-304.024,1.970,-3.631,-2.500
-963.758,-23.727,-302.183,2.049,-3.507,-3.122
-966.602,-27.725,-300.950,1.488,-3.441,-3.138
-966.726,-34.883,-301.884,0.930,-3.388,-2.956
-963.691,-41.126,-304.975,0.494,-3.294,-2.890
-960.513,-42.818,-305.834,0.195,-3.146,-2.756
-958.110,-47.692,-306.832,0.225,-2.937,-2.987
-954.376,-50.064,-311.742,0.217,-2.695,-3.422
-951.000,-52.000,-315.000,0.490,-2.450,-3.780
-949.139,-57.311,-316.939,1.033,-2.088,-4.196
-948.892,-61.481,-315.695,1.547,-1.762,-4.659
-948.795,-65.914,-314.152,1.929,-1.476,-4.832
-949.641,-63.893,-313.027,2.310,-1.203,-4.590
-953.292,-60.099,-309.593,2.593,-1.247,-4.165
-955.159,-59.997,-307.745,2.679,-1.435,-3.653
-956.065,-60.087,-306.946,2.726,-1.551,-3.026
-954.368,-61.953,-306.919,2.476,-1.737,-2.234
-948.990,-59.898,-309.195,2.286,-1.822,-1.512
-944.775,-57.584,-311.940,2.517,-1.819,-1.211
-940.008,-58.944,-310.763,2.886,-1.773,-1.158
-941.525,-58.548,-310.264,3.225,-1.609,-0.859
-943.864,-57.955,-312.643,3.534,-1.641,-0.188
-942.018,-57.964,-312.881,4.112,-1.672,0.511
-947.000,-57.000,-311.000,5.110,-1.610,0.910
-952.472,-53.785,-306.703,5.941,-1.608,1.206
-955.801,-47.398,-303.376,6.295,-1.687,1.538
-959.647,-39.740,-301.963,6.524,-1.893,1.710
-965.062,-35.373,-295.128,6.540,-2.068,1.757
-973.263,-37.254,-281.685,6.006,-2.684,1.612
-985.210,-36.955,-274.317,4.538,-3.553,1.798
-1001.199,-26.022,-275.088,2.263,-4.495,2.746
-1013.330,-17.366,-274.188,-0.222,-5.602,3.894
-1020.667,-10.770,-272.645,-2.957,-6.164,5.322
-1023.838,2.998,-276.904,-6.014,-6.409,6.536
-1018.833,15.365,-284.435,-8.991,-6.301,6.803
-1012.091,29.855,-288.228,-11.185,-5.766,7.184
-1007.100,31.529,-288.300,-12.816,-5.485,7.743
-998.766,10.230,-279.140,-14.557,-5.466,7.562
-997.000,-11.000,-273.000,-16.380,-5.670,7.000
-1000.962,-31.061,-281.439,-17.863,-5.967,6.009
-998.748,-43.430,-291.161,-18.038,-5.331,4.861
-997.396,-35.558,-305.578,-17.435,-4.385,4.699
-994.524,-19.375,-311.600,-17.502,-4.478,4.855
-991.369,-9.519,-301.746,-18.276,-4.529,4.367
-993.076,-9.516,-298.404,-19.587,-4.931,3.714
-987.240,-9.808,-306.925,-21.106,-5.544,3.256
-976.774,-5.298,-315.114,-22.034,-5.456,2.544
-966.507,-4.485,-305.387,-21.490,-5.721,0.760
-955.269,-4.680,-306.607,-19.674,-5.426,-1.538
-943.250,4.896,-328.137,-17.621,-5.395,-2.770
-932.675,11.157,-329.712,-15.382,-6.427,-3.431
-929.383,3.825,-326.129,-13.079,-6.707,-4.709
-923.505,-6.361,-329.235,-10.465,-6.649,-5.784
-912.000,-12.000,-328.000,-7.140,-6.440,-6.300
-906.988,-13.676,-325.679,-3.740,-5.775,-7.114
-908.785,-16.059,-320.190,-0.287,-5.224,-8.164
-913.574,-12.256,-318.624,2.881,-4.898,-8.635
-921.257,-4.036,-317.970,5.024,-4.579,-8.558
-930.647,-3.659,-312.692,6.547,-4.354,-8.684
-939.727,-5.137,-306.375,7.269,-4.332,-8.741
-944.314,-4.921,-298.382,6.954,-4.187,-8.758
-951.246,-2.254,-289.800,6.173,-4.184,-8.769
-959.250,-1.902,-277.695,4.668,-4.523,-8.244
-960.305,-7.637,-269.439,2.596,-4.921,-7.179
-963.080,-8.942,-270.312,0.931,-5.172,-5.444
-965.346,-7.516,-275.848,-0.393,-5.314,-3.597
-966.875,-8.719,-278.840,-1.636,-5.405,-2.080
-971.686,-14.136,-271.639,-2.745,-5.385,-0.699
-974.000,-22.000,-268.000,-3.360,-5.250,0.700
-974.933,-25.908,-273.930,-3.407,-4.714,1.835
-975.657,-25.236,-277.844,-3.773,-4.272,2.409
-984.720,-24.781,-272.340,-4.026,-3.997,2.231
-1006.327,-16.307,-270.468,-3.843,-3.820,1.846
-1029.571,5.297,-272.711,-4.411,-4.247,2.832
-1053.843,14.681,-265.458,-5.974,-4.431,4.117
-1079.905,19.720,-266.156,-8.393,-4.966,5.762
-1100.682,26.992,-257.378,-10.777,-5.415,7.446
-1119.755,26.013,-246.138,-12.098,-4.933,7.422
-1154.705,46.789,-250.711,-12.557,-5.814,8.540
-1203.277,85.462,-238.927,-13.867,-6.916,9.959
-1252.879,132.609,-240.485,-18.263,-7.495,11.324
-1306.816,191.158,-253.917,-25.743,-9.383,15.836
-1353.953,246.034,-260.428,-37.632,-11.791,22.196
-1379.000,290.000,-271.000,-54.950,-14.770,29.960
-1374.777,301.226,-274.594,-74.968,-18.426,37.440
-1320.751,287.788,-292.906,-94.765,-21.744,42.257
-1239.162,264.461,-318.777,-108.995,-24.608,44.667
-1165.597,230.097,-354.203,-114.379,-26.307,44.488
-1078.737,199.694,-380.656,-112.905,-25.929,42.945
-982.985,161.700,-354.865,-103.827,-24.109,40.432
-914.356,113.473,-316.339,-88.102,-22.786,35.908
-889.094,77.852,-285.747,-72.722,-23.653,30.033
-863.154,60.942,-276.646,-59.925,-25.787,25.815
-807.943,45.374,-282.178,-46.856,-27.582,24.192
-754.163,22.135,-286.982,-34.353,-28.769,23.541
-691.200,-5.987,-300.730,-23.009,-28.689,22.894
-630.286,-40.528,-297.200,-11.624,-27.454,20.468
-564.795,-70.624,-291.235,-0.228,-25.196,16.706
-509.000,-106.000,-274.000,12.600,-22.050,10.920
-517.052,-123.363,-256.635,25.720,-18.866,4.331
-515.657,-108.200,-258.810,36.047,-16.309,1.717
-486.598,-118.973,-219.504,44.431,-14.736,0.507
-498.368,-146.888,-195.105,49.142,-13.221,-0.139
-533.736,-153.265,-253.584,46.708,-11.303,1.935
-552.781,-137.443,-313.205,42.341,-6.441,6.203
-571.507,-127.006,-281.737,42.687,1.399,11.322
-628.833,-128.535,-211.342,46.493,6.000,13.889
-719.162,-112.314,-161.902,50.654,7.118,15.897
-807.390,-99.675,-112.997,52.346,6.838,19.637
-877.286,-88.178,-107.459,50.167,4.316,22.997
-942.391,-58.964,-122.479,47.488,1.384,24.610
-998.871,-26.888,-111.504,47.007,-1.603,24.184
-1074.532,-3.423,-94.487,46.498,-5.976,23.608
-1174.000,45.000,-109.000,42.280,-9.800,23.660
-1236.465,150.656,-122.698,35.121,-10.673,26.177
-1291.758,228.400,-72.755,25.470,-10.832,31.172
-1336.003,254.804,-78.877,9.887,-12.223,35.094
-1320.938,267.634,-132.387,-8.026,-12.504,38.086
-1279.931,235.116,-144.174,-21.652,-11.795,37.254
-1246.661,189.428,-155.167,-29.881,-11.485,30.345
-1227.796,165.693,-153.972,-34.050,-11.107,22.016
-1208.793,156.925,-171.826,-36.496,-11.172,15.569
-1183.364,160.489,-182.737,-36.514,-11.574,11.874
-1154.040,150.931,-168.570,-34.579,-12.434,9.156
-1127.532,138.318,-183.053,-32.405,-14.367,5.736
-1107.525,123.968,-172.269,-27.313,-16.338,1.748
-1087.298,92.331,-154.769,-21.040,-18.367,-3.444
-1075.432,80.004,-164.773,-15.929,-20.045,-8.656
-1060.000,82.000,-150.000,-10.080,-20.370,-13.440
-1047.454,85.696,-148.295,-5.410,-20.812,-18.320
-1046.626,104.885,-173.521,-3.442,-21.384,-21.537
-1044.404,108.987,-169.246,-2.430,-21.364,-22.772
-1045.240,100.974,-161.342,-2.955,-21.019,-23.710
-1043.826,92.487,-168.585,-5.451,-20.041,-24.736
-1055.278,71.781,-165.295,-7.351,-19.693,-25.609
-1050.176,57.561,-163.355,-7.427,-20.057,-26.183
-1026.651,58.654,-164.856,-5.239,-21.023,-25.253
-1023.746,64.075,-144.388,-1.272,-22.281,-24.138
-980.690,76.321,-148.868,2.675,-22.084,-24.477
-943.243,91.998,-163.471,7.349,-23.926,-23.093
-955.782,97.489,-141.051,12.292,-27.265,-21.263
-926.151,98.702,-163.994,17.108,-27.643,-23.003
-889.566,86.107,-174.195,23.117,-28.568,-24.935
-896.000,78.000,-155.000,29.540,-30.100,-25.340
-902.768,100.419,-167.610,34.723,-29.614,-25.964
-905.630,113.973,-157.689,37.987,-28.696,-25.993
-907.462,119.315,-158.486,39.455,-27.317,-24.831
-900.188,128.253,-158.363,39.089,-25.598,-22.798
-893.990,130.557,-160.963,37.983,-23.615,-21.236
-886.476,131.998,-164.620,36.606,-21.528,-20.496
-874.270,127.536,-145.223,35.191,-19.491,-19.749
-872.636,124.918,-153.066,33.999,-16.863,-18.850
-877.011,126.678,-155.064,31.984,-14.571,-17.284
-873.222,127.945,-154.597,29.432,-12.785,-14.952
-869.598,125.848,-149.982,26.152,-11.024,-12.280
-877.959,115.282,-139.483,22.690,-9.312,-9.847
-890.965,101.890,-132.324,19.941,-8.121,-7.526
-908.363,89.207,-114.719,17.868,-7.562,-5.091
-933.000,81.000,-106.000,16.520,-7.350,-2.800
-951.692,79.752,-91.910,15.354,-7.863,-0.698
-966.870,81.680,-85.399,14.336,-8.597,0.697
-983.390,81.848,-76.634,13.193,-9.352,0.998
-998.824,83.738,-71.398,12.061,-9.869,0.596
-1010.972,93.643,-71.024,10.356,-10.163,0.320
-1019.786,104.986,-62.085,7.840,-10.886,-0.491
-1025.260,106.842,-68.483,4.452,-11.364,-1.751
-1026.915,104.984,-66.271,0.346,-11.669,-2.155
-1026.834,106.458,-74.184,-2.444,-11.652,-2.572
-1019.422,109.753,-93.589,-4.630,-11.095,-3.227
-1007.093,115.861,-108.809,-6.517,-10.308,-3.751
-992.317,118.703,-128.782,-7.815,-8.626,-4.338
-972.754,118.671,-139.428,-9.523,-6.626,-5.123
-954.390,111.106,-146.922,-11.119,-4.729,-6.471
-940.000,99.000,-146.000,-11.550,-2.520,-8.050
-934.955,96.102,-139.613,-10.119,-0.647,-9.105
-935.324,94.515,-137.359,-8.011,0.647,-8.986
-934.122,93.887,-135.021,-5.693,1.674,-8.047
-937.039,93.509,-126.924,-3.119,2.551,-6.748
-943.964,93.151,-120.102,-0.973,3.257,-5.205
-956.235,92.278,-113.765,0.755,3.709,-3.622
-969.958,85.335,-101.126,1.655,3.687,-2.143
-982.011,75.018,-92.668,2.205,3.197,-1.179
-995.766,58.475,-81.481,2.329,2.552,-0.383
-1009.103,39.459,-74.787,1.862,1.719,0.197
-1020.055,24.364,-70.356,1.696,0.642,0.284
-1026.083,16.155,-58.542,2.111,-0.528,-0.145
-1031.835,18.120,-55.438,3.678,-1.415,-1.022
-1036.383,35.365,-59.595,5.665,-1.966,-1.245
-1038.000,56.000,-62.000,7.000,-2.380,-1.050
-1037.022,74.082,-69.061,7.507,-2.570,-0.714
-1026.121,89.369,-81.716,6.854,-2.705,-0.204
-1014.476,90.250,-85.344,5.268,-2.641,-0.151
-1006.367,87.509,-88.763,3.443,-2.115,-0.323
-997.937,80.559,-94.162,1.696,-1.399,-0.704
-994.622,70.447,-90.732,-0.096,-0.676,-0.731
-993.998,54.620,-85.602,-1.086,-0.111,-0.717
-994.885,44.015,-80.297,-1.267,0.066,-0.917
-995.858,47.815,-80.680,-0.833,0.176,-0.548
-996.867,56.115,-87.389,-0.019,0.198,0.001
-999.543,75.535,-94.387,0.274,-0.272,0.562
-998.422,91.246,-106.344,0.570,-0.728,1.376
-989.432,123.549,-124.066,1.059,-0.710,3.159
-974.328,165.113,-152.168,2.601,-0.067,5.125
-952.000,211.000,-179.000,4.130,1.470,7.770
-921.967,240.827,-170.310,5.011,4.671,11.956
-887.732,201.609,-174.234,2.938,9.069,15.761
-848.004,138.514,-209.351,-6.278,12.524,18.664
-815.964,50.991,-209.349,-16.106,14.920,18.215
-812.305,-31.796,-183.882,-21.403,16.358,14.311
-833.837,-72.537,-149.277,-21.786,16.808,10.868
-856.436,-74.227,-137.472,-17.510,17.252,10.151
-870.375,-31.026,-146.687,-11.746,17.375,12.505
-872.781,27.151,-153.875,-5.199,17.190,15.410
-869.232,106.541,-184.366,1.797,17.870,18.188
-861.274,171.440,-220.664,9.271,20.407,21.130
-834.204,218.057,-257.837,11.987,24.094,24.272
-801.096,200.156,-250.007,9.885,28.694,25.719
-776.422,120.651,-262.817,9.615,34.937,23.772
-772.000,88.000,-315.000,8.890,40.180,21.560
-772.517,52.645,-257.298,11.613,43.297,16.920
-810.259,26.259,-177.342,23.043,45.136,10.709
-896.831,32.752,-134.570,35.816,44.356,8.886
-951.083,36.372,-66.035,46.755,41.156,11.291
-1032.265,30.878,-6.729,57.397,35.740,17.084
-1146.700,24.701,19.260,61.952,27.604,21.834
-1252.165,66.781,65.064,60.182,18.006,24.220
-1389.419,137.834,125.310,55.262,8.069,28.055
-1504.721,224.313,139.507,41.865,-2.667,33.809
-1566.317,268.316,145.205,20.010,-13.380,43.132
-1534.833,230.871,83.457,-5.477,-20.588,51.863
-1395.517,185.170,-48.921,-29.497,-22.952,52.905
-1227.282,138.034,-141.772,-45.771,-21.558,43.082
-1086.521,111.118,-210.557,-52.971,-17.351,23.237
-998.000,125.000,-247.000,-54.180,-11.900,3.150
-943.857,140.448,-254.555,-53.877,-6.722,-10.821
-886.641,144.131,-283.482,-54.338,-1.696,-17.913
-817.043,116.975,-329.254,-54.280,2.831,-18.440
-737.848,60.576,-371.280,-53.085,7.726,-16.964
-645.070,-6.899,-395.570,-50.073,15.766,-17.709
-580.955,-72.748,-402.983,-42.086,25.361,-23.278
-526.855,-126.253,-392.748,-27.910,36.340,-33.003
-504.745,-180.196,-348.792,-6.411,47.714,-46.093
-516.241,-186.815,-339.165,17.635,55.119,-59.484
-467.280,-204.045,-297.135,41.297,60.126,-71.010
-493.598,-278.374,-209.442,62.711,60.958,-80.478
-576.215,-210.513,-312.936,78.715,57.405,-79.811
-654.630,-68.197,-373.481,107.817,53.147,-70.728
-843.629,-4.166,-260.914,137.522,45.647,-58.736
-1013.000,79.000,-198.000,142.310,38.360,-41.090
-1144.394,137.301,-63.029,141.990,33.385,-20.439
-1286.985,172.715,29.678,134.925,26.103,-1.071
-1398.838,280.118,-31.589,114.612,17.212,14.358
-1501.985,403.961,-18.161,98.520,10.464,27.650
-1582.598,465.038,62.614,81.466,8.036,41.463
-1604.585,407.226,61.314,51.703,3.392,56.492
-1465.223,259.083,-36.457,14.943,-6.786,69.395
-1264.052,128.036,-171.868,-15.906,-12.190,68.362
-1108.044,39.655,-315.877,-33.946,-8.133,49.726
-961.429,-10.623,-408.157,-37.958,1.218,23.154
-872.279,-26.065,-388.048,-29.839,13.517,-3.830
-801.692,-63.217,-311.960,-17.116,25.498,-27.360
-763.017,-125.865,-305.833,-6.405,31.088,-41.203
-680.646,-189.544,-336.029,6.147,31.936,-47.308
-589.000,-237.000,-331.000,25.900,31.570,-49.770
-605.712,-235.166,-333.218,50.761,25.845,-48.153
-666.489,-180.347,-311.506,76.413,19.880,-41.365
-887.214,-82.342,-327.434,95.355,20.942,-29.447
-1070.731,46.816,-389.543,104.599,24.354,-24.106
-1099.493,215.377,-389.524,106.805,28.004,-25.241
-1190.600,368.687,-344.054,101.059,30.158,-22.264
-1256.947,433.891,-237.424,84.644,26.306,-15.532
-1289.766,415.037,-145.472,57.463,17.966,-5.339
-1249.158,309.836,-120.759,24.130,7.468,4.338
-1125.141,154.993,-119.066,-3.891,-2.011,7.099
-1053.641,12.756,-193.884,-16.466,-4.812,2.080
-985.144,-69.799,-258.890,-18.114,-1.233,-4.640
-935.517,-94.971,-272.754,-15.551,3.304,-9.604
-929.900,-110.232,-321.856,-11.202,5.538,-12.156
-915.000,-119.000,-353.000,-5.880,6.930,-8.960
-934.266,-119.269,-337.404,1.549,9.015,-4.931
-975.115,-97.472,-319.829,7.546,11.684,-3.980
-1004.728,-47.419,-313.082,11.372,14.745,-3.584
-1042.945,1.504,-303.191,12.321,15.563,-2.229
-1062.890,27.839,-284.665,9.839,13.961,-0.873
-1081.118,30.296,-274.299,6.255,11.747,-1.110
-1054.517,24.434,-287.974,1.055,8.709,-2.676
-992.931,15.721,-316.310,-2.927,5.434,-5.045
-935.250,3.840,-328.104,-3.052,2.083,-8.082
-847.269,-27.086,-334.070,1.502,-0.052,-12.408
-800.507,-69.177,-343.381,9.858,0.049,-17.422
-766.554,-97.820,-354.371,19.101,0.920,-21.096
-778.139,-117.217,-375.095,29.583,2.038,-22.028
-839.804,-109.939,-378.864,39.622,3.121,-23.468
-917.000,-85.000,-367.000,47.320,5.180,-25.200
-1062.865,-42.598,-350.125,50.477,8.930,-22.016
-1135.329,41.929,-296.527,42.692,12.190,-14.199
-1174.175,121.271,-216.931,25.147,13.666,-2.654
-1233.418,155.077,-175.453,6.497,11.368,9.274
-1233.999,141.717,-196.689,-10.114,5.112,17.598
-1191.085,95.761,-257.068,-24.889,-0.447,21.190
-1095.157,37.383,-306.336,-36.189,-4.495,18.949
-1018.153,-15.775,-320.383,-42.193,-7.562,11.868
-965.840,-49.988,-328.293,-42.768,-8.256,3.186
-927.824,-80.151,-312.691,-39.528,-7.653,-3.567
-934.094,-95.128,-293.152,-34.535,-5.502,-8.243
-963.078,-91.048,-326.505,-28.063,-2.251,-9.746
-995.534,-76.201,-356.402,-20.597,-0.280,-7.030
-1022.617,-38.199,-347.500,-16.590,0.437,-1.552
-1080.000,4.000,-335.000,-16.870,1.260,3.150
-1133.629,52.500,-333.136,-21.001,2.100,6.615
-1197.319,118.165,-328.607,-31.748,1.334,12.624
-1271.767,161.208,-320.459,-49.517,0.035,19.895
-1277.003,163.861,-301.390,-77.182,-2.715,30.855
-1278.579,156.838,-266.045,-110.591,-9.905,44.747
-1285.116,154.541,-269.353,-136.910,-17.664,54.105
-1263.544,149.295,-281.051,-153.066,-22.892,59.401
-1253.040,136.143,-289.863,-162.295,-27.551,62.297
-1226.364,123.732,-320.133,-167.117,-32.087,63.580
-1196.210,104.729,-319.379,-163.236,-32.899,62.260
-1166.783,58.512,-328.191,-148.572,-30.544,55.936
-1107.676,1.369,-337.556,-137.259,-33.490,46.439
-1057.048,-58.403,-338.266,-132.732,-38.732,35.354
-1002.021,-105.490,-364.898,-120.945,-38.291,22.105
-942.000,-131.000,-374.000,-99.260,-35.490,9.940
-912.298,-142.829,-375.451,-74.471,-29.793,3.193
-867.571,-126.259,-360.793,-51.147,-20.706,0.382
-784.960,-114.147,-345.557,-31.486,-13.406,-1.123
-699.504,-114.940,-373.774,-16.448,-8.593,-3.240
-631.790,-107.754,-408.273,-4.428,-6.501,-8.156
-578.025,-98.241,-401.365,11.099,-7.002,-16.731
-555.133,-84.194,-343.387,30.904,-9.860,-24.573
-584.239,-84.512,-269.202,50.859,-15.685,-26.896
-639.244,-81.249,-216.556,66.519,-21.084,-25.422
-699.299,-48.501,-200.694,74.888,-24.163,-21.151
-748.690,-5.004,-193.168,80.576,-25.459,-13.875
-777.658,35.761,-178.679,84.500,-26.146,-3.919
-804.174,65.006,-177.914,83.360,-27.394,7.377
-821.215,97.100,-194.038,77.156,-28.391,17.623
-824.000,143.000,-208.000,72.100,-30.100,25.900
-837.511,169.555,-200.532,73.203,-29.989,32.430
-845.922,159.919,-184.390,75.173,-27.994,37.636
-842.616,140.598,-177.883,73.928,-27.508,41.199
-841.876,113.321,-176.653,71.731,-26.398,42.648
-833.314,78.888,-166.602,70.598,-24.747,40.639
-830.707,63.009,-163.392,69.305,-22.469,35.484
-820.722,55.214,-167.577,69.027,-20.760,27.981
-805.064,40.580,-190.969,68.004,-18.359,19.157
-784.616,11.998,-221.761,66.027,-14.358,10.581
-747.704,-30.638,-214.871,62.747,-10.297,2.717
-706.108,-78.760,-290.694,44.993,-0.960,-4.608
-642.394,-92.240,-457.825,18.052,11.404,-13.284
-539.670,-25.742,-447.770,28.828,26.356,-24.575
-494.568,-30.132,-190.621,100.339,35.040,-38.591
-740.000,-106.000,-101.000,160.370,28.840,-49.490
-1009.112,19.902,-343.934,178.181,30.166,-58.721
-1068.941,252.070,-407.512,202.374,41.614,-65.820
-1306.228,455.269,-327.243,207.443,46.555,-60.721
-1564.083,663.086,-399.538,184.866,48.751,-53.400
-1615.875,735.614,-317.907,151.080,49.578,-37.529
-1639.088,747.339,-190.121,78.071,39.650,-1.895
-1617.224,734.120,-205.659,3.559,22.234,27.640
-1542.597,584.213,-194.696,-40.587,8.580,37.556
-1388.505,412.090,-188.292,-80.071,-2.910,35.894
-1212.854,242.543,-184.449,-114.263,-14.511,29.443
-1079.846,77.386,-198.824,-136.080,-23.509,21.735
-960.121,-34.489,-241.062,-146.125,-27.255,14.860
-865.283,-119.392,-269.502,-143.844,-24.288,9.474
-775.752,-173.730,-315.739,-130.560,-18.101,3.362
-701.000,-212.000,-358.000,-106.260,-11.830,-2.450
-640.465,-225.418,-391.370,-76.454,-7.135,-7.216
-625.610,-204.412,-400.795,-46.557,-2.685,-12.032
-658.979,-154.440,-397.011,-18.394,2.709,-18.756
-713.980,-60.551,-395.693,2.344,6.931,-24.810
-796.135,43.277,-372.360,14.598,9.372,-25.265
-880.240,110.939,-330.935,24.359,10.417,-22.102
-969.037,149.662,-279.360,31.680,10.234,-17.924
-1055.070,181.919,-244.937,33.621,9.071,-13.016
-1121.708,202.086,-219.121,29.532,7.550,-6.981
-1155.617,210.797,-197.219,19.001,5.341,0.265
-1155.065,201.281,-189.907,4.209,1.881,7.492
-1125.038,174.759,-195.719,-12.197,-1.985,12.590
-1073.978,137.413,-213.570,-27.478,-5.759,14.362
-1029.868,83.784,-226.631,-39.238,-8.635,13.618
-993.000,43.000,-235.000,-47.530,-9.030,11.200
-967.138,17.794,-239.414,-51.740,-8.154,8.108
-946.689,9.672,-256.706,-53.354,-7.500,5.105
-933.307,10.875,-263.311,-53.432,-6.328,2.564
-929.616,-3.882,-259.238,-50.090,-4.811,0.049
-926.797,-6.470,-278.392,-43.104,-2.477,-2.876
-959.068,4.448,-271.480,-33.244,0.096,-5.339
-1014.255,39.008,-260.049,-23.776,1.791,-7.269
-1077.100,101.087,-263.042,-16.359,2.791,-8.139
-1162.814,165.382,-267.183,-12.736,1.704,-6.676
-1245.255,230.527,-280.734,-15.923,-1.346,-2.361
-1320.633,266.274,-253.605,-23.690,-5.519,4.994
-1368.353,274.677,-219.382,-36.412,-11.065,13.833
-1360.325,256.651,-196.772,-53.546,-17.911,22.089
-1312.437,218.820,-173.472,-69.098,-25.221,28.578
-1237.000,196.000,-189.000,-80.010,-31.430,30.730
-1166.505,171.566,-204.769,-86.223,-37.906,27.869
-1103.151,139.598,-187.785,-88.061,-44.155,22.769
-1043.565,96.908,-167.734,-84.128,-45.462,16.615
-1010.265,52.074,-172.754,-77.000,-42.459,9.376
-975.826,22.611,-193.326,-73.208,-39.215,2.108
-934.481,14.435,-234.399,-71.203,-36.052,-4.105
-889.206,23.573,-272.508,-64.758,-32.462,-8.687
-841.268,22.507,-279.286,-54.137,-27.344,-11.525
-800.877,15.906,-297.718,-42.868,-18.881,-13.554
-755.707,4.302,-308.521,-32.431,-10.466,-16.136
-713.926,-5.489,-333.016,-25.464,-5.226,-19.562
-672.220,-4.157,-371.351,-20.221,-1.913,-23.955
-641.598,-9.940,-357.976,-12.867,-0.945,-29.469
-643.321,-23.423,-338.516,-5.643,-1.307,-34.144
-676.000,-40.000,-298.000,2.870,-1.400,-35.840
-726.909,-46.394,-224.499,14.069,-0.799,-35.827
-765.455,-41.123,-190.257,23.951,1.228,-34.656
-804.712,-31.910,-161.506,31.500,2.543,-29.924
-854.663,-7.188,-129.011,35.071,2.714,-21.650
-893.997,31.088,-136.189,34.229,2.796,-12.801
-918.592,64.683,-152.909,32.331,2.644,-4.964
-935.188,83.822,-179.348,30.789,2.979,2.777
-949.052,84.476,-191.959,30.461,3.231,10.606
-962.809,80.266,-173.925,29.144,2.896,18.246
-981.347,88.403,-185.612,24.961,2.587,24.941
-992.959,105.026,-204.409,21.597,2.802,28.851
-1008.829,128.054,-210.575,20.035,3.479,30.423
-1026.829,148.873,-212.263,18.801,4.105,30.867
-1028.972,169.454,-209.324,17.180,4.807,30.839
-1032.000,190.000,-219.000,14.770,5.530,30.100
-1030.305,205.460,-224.476,13.264,6.183,28.713
-1020.170,220.996,-231.163,12.867,7.122,27.041
-1008.589,227.894,-238.317,12.846,8.396,24.911
-989.178,235.689,-246.514,13.356,9.778,23.126
-966.695,236.655,-258.668,14.476,11.164,20.121
-948.996,238.258,-261.450,16.679,12.484,16.830
-933.091,252.571,-266.268,19.149,13.902,14.975
-929.035,245.809,-260.925,21.283,15.297,12.639
-921.769,249.143,-252.355,22.377,16.765,10.942
-907.202,269.138,-250.235,22.199,18.342,9.997
-899.372,276.836,-240.360,21.609,19.234,9.806
-875.726,286.823,-239.649,19.600,20.390,11.662
-867.038,287.248,-244.717,17.065,21.894,14.836
-860.544,274.790,-241.191,15.105,22.919,17.889
-851.000,266.000,-237.000,13.230,24.570,19.390
-861.170,278.615,-231.075,11.124,26.531,18.615
-837.179,283.333,-228.578,8.076,28.328,15.395
-841.773,281.735,-239.164,4.988,29.733,16.449
-883.329,278.232,-239.752,2.318,30.479,20.768
-891.001,192.443,-237.199,0.423,31.314,18.509
-899.028,115.397,-248.872,0.538,31.204,17.397
-916.832,104.058,-236.105,3.037,30.495,20.530
-951.992,81.291,-218.388,5.666,30.589,20.102
-976.586,84.642,-215.898,7.412,30.020,17.819
-975.936,97.273,-203.413,9.922,28.904,13.446
-991.492,101.429,-188.385,12.218,27.899,7.909
-999.225,113.367,-163.108,13.106,26.051,3.891
-994.132,123.541,-148.784,11.215,23.684,0.631
-998.740,128.904,-154.852,8.074,21.273,-2.176
-991.000,98.000,-153.000,6.650,19.250,-6.580
-964.764,61.924,-145.764,6.152,17.332,-10.854
-945.150,38.037,-148.379,5.600,15.181,-13.814
-926.067,19.974,-172.609,5.354,12.794,-17.438
-908.829,13.580,-195.641,7.760,10.479,-21.452
-896.190,-1.889,-204.599,11.662,9.242,-26.005
-880.234,-17.561,-195.917,15.680,7.513,-29.870
-877.836,-40.018,-198.768,17.442,6.618,-32.526
-862.859,-57.670,-233.701,14.700,7.965,-34.653
-844.898,-56.242,-246.728,14.446,8.049,-36.654
-833.371,-58.356,-240.963,18.847,7.103,-40.061
-827.125,-61.911,-224.054,23.433,5.921,-42.655
-869.588,-62.444,-236.475,22.513,4.798,-42.852
-877.497,-45.941,-334.460,13.868,5.468,-42.805
-857.348,-0.142,-444.111,4.976,8.285,-41.639
-862.000,64.000,-501.000,3.010,13.160,-40.180
-852.654,104.700,-489.473,9.686,18.191,-40.501
-901.430,111.094,-447.499,16.768,22.675,-38.377
-948.196,120.103,-424.947,17.696,26.066,-33.179
-945.187,120.965,-384.551,18.820,26.564,-28.557
-974.863,106.173,-327.755,22.613,25.036,-23.971
-1007.291,83.231,-297.423,25.906,22.615,-19.980
-1037.361,62.908,-281.756,27.994,19.561,-16.593
-1055.669,51.891,-267.568,29.746,16.447,-12.873
-1054.933,39.509,-272.118,31.344,14.422,-9.678
-1032.782,28.744,-300.449,31.205,13.351,-6.940
-995.242,18.767,-333.628,30.270,12.288,-3.732
-1008.932,30.506,-351.350,29.505,11.054,-1.254
-1017.683,45.948,-348.814,27.040,9.373,-5.103
-1006.963,55.420,-345.326,23.748,8.654,-14.098
-1014.000,71.000,-352.000,21.210,8.260,-22.260
-1001.030,52.873,-346.399,19.947,7.319,-27.198
-1000.006,28.981,-333.239,19.381,7.803,-27.449
-1003.851,28.757,-341.193,16.549,8.585,-27.146
-1000.366,41.234,-362.940,12.739,9.042,-28.394
-1008.236,62.434,-377.821,11.646,10.299,-30.093
-998.565,85.989,-374.850,12.648,11.772,-32.104
-999.258,111.492,-361.908,12.375,12.231,-30.978
-1016.677,114.897,-346.251,7.739,11.419,-26.384
-1004.816,94.401,-335.167,0.462,10.490,-21.071
-991.367,55.111,-339.235,-5.058,9.475,-16.680
-985.887,17.569,-346.251,-9.707,7.984,-13.183
-958.939,7.809,-362.238,-16.247,6.066,-10.830
-943.943,-5.332,-383.134,-22.186,3.992,-10.390
-934.212,-34.755,-386.409,-23.437,2.233,-11.072
-911.000,-61.000,-382.000,-21.000,1.960,-12.040
-899.916,-78.668,-383.064,-19.328,3.785,-11.512
-893.045,-90.909,-376.904,-16.281,5.883,-9.870
-888.332,-88.436,-368.221,-8.421,8.071,-9.242
-887.394,-86.397,-382.476,0.755,10.041,-10.426
-889.928,-110.901,-405.049,11.763,11.661,-13.619
-907.816,-139.099,-420.907,24.013,15.218,-16.960
-934.437,-142.951,-428.386,32.461,19.793,-20.828
-933.934,-107.796,-433.718,40.076,23.615,-27.311
-934.117,-64.899,-431.075,48.218,26.562,-33.214
-949.542,-46.112,-426.395,51.720,29.061,-34.364
-922.494,-25.412,-432.985,50.925,30.779,-31.933
-935.665,-18.535,-433.378,48.059,31.098,-28.508
-978.170,-23.575,-446.539,43.950,30.267,-24.336
-961.324,-2.766,-439.678,39.744,27.475,-20.119
-962.000,12.000,-419.000,35.070,26.670,-16.450
-976.616,-0.105,-383.271,35.804,28.314,-12.474
-990.023,-0.240,-319.371,38.313,25.702,-8.154
-1003.154,22.236,-329.051,30.394,20.880,-2.456
-999.960,17.330,-357.227,19.719,17.352,5.526
-1001.334,-19.825,-383.379,10.998,13.348,12.483
-976.822,-46.939,-423.998,1.498,9.906,15.248
-946.283,-66.392,-418.847,-3.441,8.787,14.732
-927.335,-79.382,-416.233,-2.569,8.416,12.833
-917.034,-87.124,-432.221,1.891,8.992,10.850
-913.590,-92.898,-460.274,5.404,10.553,8.808
-892.897,-93.226,-468.920,7.801,10.509,5.510
-881.028,-99.360,-462.119,11.333,11.063,1.968
-865.287,-99.708,-466.060,15.098,12.548,-0.844
-844.668,-93.223,-469.196,21.561,14.558,-3.410
-839.000,-94.000,-487.000,29.190,17.290,-4.270
-853.607,-108.045,-506.662,34.886,17.637,-4.278
-867.639,-123.930,-513.986,39.118,17.736,-5.796
-875.174,-127.294,-499.448,40.532,18.278,-7.243
-905.214,-123.576,-498.950,38.911,17.639,-7.703
-889.623,-102.024,-495.970,40.568,17.513,-8.830
-903.783,-86.818,-475.189,46.422,17.493,-10.204
-956.372,-87.947,-462.541,47.047,15.137,-9.365
-929.855,-88.244,-440.551,43.394,11.992,-6.843
-915.632,-110.393,-459.116,39.428,10.631,-4.575
-903.395,-129.023,-474.972,33.939,9.237,-3.124
-875.955,-116.118,-452.639,30.036,8.735,-3.609
-866.085,-102.063,-460.274,24.850,8.689,-4.155
-849.323,-116.226,-480.865,18.210,7.096,-3.070
-844.554,-142.652,-486.259,15.944,6.376,-3.174
-837.000,-163.000,-494.000,15.960,7.070,-4.900
-844.150,-179.567,-504.598,17.506,8.659,-7.350
-858.651,-184.090,-474.701,20.740,10.613,-10.931
-861.212,-188.200,-455.684,21.107,12.597,-14.039
-864.519,-181.684,-478.276,21.092,14.996,-15.894
-867.376,-161.330,-466.404,25.955,17.713,-17.555
-872.635,-148.929,-448.577,30.361,19.927,-18.275
-867.266,-145.128,-453.387,31.120,20.916,-17.326
-859.317,-152.374,-450.772,32.821,21.823,-16.161
-861.687,-155.012,-437.338,35.558,22.871,-15.509
-881.916,-149.726,-425.298,35.330,23.023,-14.427
-894.830,-146.259,-414.903,30.678,21.363,-13.003
-891.498,-150.245,-405.605,24.391,18.731,-11.870
-899.352,-161.180,-420.171,17.119,16.243,-10.293
-905.137,-167.849,-427.274,10.627,13.901,-8.502
-904.000,-173.000,-423.000,7.070,12.530,-7.070
-906.441,-169.385,-433.425,4.331,11.429,-5.612
-907.380,-161.888,-424.988,3.790,10.808,-4.157
-902.039,-159.828,-408.342,3.416,10.451,-2.227
-904.863,-154.252,-404.666,0.084,8.755,0.260
-909.264,-145.699,-421.443,-4.473,6.781,3.104
-905.082,-138.462,-455.170,-8.868,3.662,6.131
-909.936,-128.937,-502.943,-11.398,-0.165,8.641
-925.075,-112.075,-574.865,-11.426,-1.559,10.303
-925.691,-109.327,-577.086,-4.518,-0.356,9.810
-905.424,-121.114,-500.855,4.593,0.803,8.037
-892.687,-118.011,-470.808,2.491,-1.596,8.395
-880.960,-117.014,-491.614,-5.739,-5.283,9.910
-860.698,-133.700,-514.328,-11.235,-6.504,9.610
-845.164,-141.834,-529.397,-13.806,-6.380,7.715
-840.000,-133.000,-523.000,-12.530,-5.530,5.600
-844.263,-127.226,-496.932,-10.497,-4.485,4.478
-849.426,-123.719,-493.643,-11.246,-4.602,5.350
-858.429,-115.488,-501.225,-11.986,-5.294,6.958
-860.964,-121.427,-478.367,-10.713,-5.652,7.813
-867.013,-128.950,-477.456,-11.031,-6.810,8.886
-878.109,-122.235,-502.634,-12.321,-8.079,9.844
-869.996,-120.054,-506.749,-11.672,-7.944,9.537
-859.637,-119.962,-500.037,-10.588,-7.644,8.925
-851.192,-125.932,-478.985,-9.557,-7.372,8.585
-852.629,-138.213,-470.329,-10.612,-7.042,8.521
-861.419,-139.418,-490.795,-12.828,-6.514,8.398
-859.462,-140.017,-495.220,-12.312,-5.018,7.441
-866.891,-142.049,-479.297,-11.074,-3.393,6.390
-880.773,-138.060,-461.701,-11.276,-2.225,5.991
-889.000,-129.000,-455.000,-13.510,-1.610,6.160
-892.917,-118.004,-462.177,-17.203,-1.763,7.315
-890.919,-117.123,-476.546,-20.697,-2.017,8.804
-881.504,-124.021,-493.105,-22.796,-1.596,9.405
-867.622,-129.602,-501.140,-22.670,-0.830,9.159
-864.294,-130.682,-505.657,-21.731,-0.058,8.293
-870.620,-127.029,-504.873,-19.991,0.289,7.254
-877.461,-123.804,-498.760,-17.707,-0.105,6.129
-880.120,-121.185,-499.847,-16.464,-0.407,4.667
-877.855,-119.869,-498.709,-14.996,-0.850,3.249
-881.485,-121.488,-498.158,-13.205,-1.893,1.921
-885.568,-126.768,-502.782,-11.475,-2.753,0.470
-883.516,-134.253,-500.954,-8.800,-2.729,-1.426
-883.678,-137.387,-491.444,-6.009,-2.268,-3.328
-891.758,-136.813,-479.475,-4.312,-2.536,-4.567
-903.000,-135.000,-476.000,-4.060,-3.220,-5.320
-905.980,-133.294,-480.237,-4.509,-4.103,-5.321
-908.155,-130.276,-483.857,-4.496,-5.321,-4.705
-914.056,-126.432,-482.464,-4.315,-6.922,-3.901
-916.944,-123.197,-484.347,-4.584,-8.994,-2.838
-921.154,-122.832,-492.037,-4.278,-10.373,-1.784
-931.745,-129.355,-483.569,-3.265,-11.797,-0.840
-941.509,-126.281,-472.843,-4.340,-13.820,0.078
-945.683,-116.602,-483.329,-8.630,-16.672,1.469
-951.526,-107.200,-509.301,-13.329,-20.154,3.437
-955.201,-92.570,-525.810,-15.418,-22.274,4.882
-954.118,-81.748,-528.173,-16.373,-23.571,5.786
-955.952,-67.816,-527.094,-17.120,-24.874,6.577
-957.645,-52.517,-491.603,-16.733,-27.674,7.673
-971.788,-37.848,-454.372,-18.680,-31.374,10.397
-1001.000,-29.000,-437.000,-23.800,-34.230,14.000
-1005.100,-21.765,-409.282,-30.312,-37.516,17.129
-991.469,-13.844,-381.172,-34.514,-40.327,19.905
-991.005,-20.381,-351.537,-37.669,-43.015,23.096
-990.290,-19.094,-362.630,-43.615,-45.317,26.692
-979.987,-34.817,-341.869,-40.896,-45.825,27.858
-973.637,-78.339,-218.916,-33.426,-47.781,27.920
-1000.069,-117.761,-152.051,-36.756,-52.477,30.481
-1033.669,-144.070,-163.381,-43.261,-57.109,32.281
-1038.972,-148.025,-149.636,-43.470,-60.475,30.674
-1045.395,-156.034,-99.169,-38.328,-64.399,28.039
-1073.897,-147.981,-74.499,-34.833,-69.807,27.282
-1107.416,-124.416,-104.470,-32.113,-75.305,28.126
-1118.466,-109.295,-96.536,-24.672,-80.015,28.189
-1123.614,-77.840,-59.895,-19.496,-84.932,28.025
-1114.000,-56.000,-45.000,-17.290,-89.950,28.770
-1106.993,-38.602,-32.791,-14.499,-94.444,30.742
-1134.561,-17.871,-30.378,-12.601,-98.810,33.457
-1131.982,-6.304,-9.071,-11.466,-102.691,35.973
-1118.534,6.506,10.925,-14.146,-107.515,39.341
-1126.418,11.779,5.427,-20.448,-112.947,42.936
-1124.778,26.703,4.577,-26.601,-117.486,45.786
-1107.794,43.970,-13.318,-33.119,-121.841,48.230
-1109.674,58.555,-44.938,-37.677,-125.537,48.535
-1110.818,70.672,-63.433,-36.562,-128.769,46.548
-1049.838,55.120,-61.951,-31.464,-131.777,44.111
-1026.854,64.079,-48.863,-24.374,-134.226,40.844
-1035.242,108.196,-40.391,-17.419,-136.424,35.649
-1014.337,120.233,-29.623,-11.996,-139.725,30.970
-1032.228,89.480,-31.038,-7.135,-143.551,28.591
-1034.000,42.000,-55.000,-2.590,-144.830,25.830
-1007.135,1.101,-75.846,4.508,-144.317,22.300
-987.672,-24.819,-89.440,13.385,-142.161,17.498
-960.350,-23.280,-108.804,20.824,-138.969,10.749
-933.365,-0.742,-108.867,27.418,-137.631,3.813
-911.827,3.541,-66.217,31.682,-137.466,-3.692
-920.719,-2.494,-25.963,33.681,-139.059,-10.053
-943.473,1.429,-25.194,33.538,-140.393,-13.944
-952.495,12.230,-53.047,33.922,-137.686,-15.744
-926.576,47.845,-94.741,36.433,-132.417,-17.333
-881.999,72.714,-125.971,37.291,-126.575,-20.866
-841.537,65.311,-126.133,41.695,-122.986,-21.980
-785.749,69.381,-96.171,49.191,-121.023,-22.227
-773.972,64.075,-52.440,53.924,-117.760,-25.363
-790.867,56.122,-13.770,58.864,-114.551,-27.027
-813.000,62.000,13.000,63.840,-111.020,-24.990
-870.046,67.108,24.312,67.042,-106.097,-21.088
-905.178,83.637,30.795,66.468,-100.767,-19.149
-932.602,93.356,47.314,61.000,-96.014,-19.082
-962.649,104.432,64.510,52.135,-92.910,-17.533
-966.162,118.594,112.305,41.338,-90.797,-14.616
-946.586,128.313,194.477,29.932,-87.802,-10.862
-920.822,132.819,200.415,16.474,-83.748,-5.969
-918.117,132.184,130.112,3.068,-79.342,-1.318
-903.944,151.365,87.870,-6.625,-73.307,0.627
-885.067,154.012,85.641,-12.354,-65.775,-0.098
-892.323,143.859,88.688,-16.960,-59.588,-1.419
-895.081,137.293,86.031,-22.924,-55.089,-2.678
-898.680,114.597,113.175,-27.386,-51.707,-5.091
-927.998,99.293,151.518,-33.195,-50.296,-8.025
-938.000,88.000,173.000,-42.630,-49.280,-9.870
-913.916,84.899,189.578,-51.204,-46.312,-11.391
-903.703,79.518,179.297,-59.424,-43.428,-13.776
-896.238,66.842,163.741,-67.341,-41.999,-16.411
-897.339,62.399,172.632,-72.416,-40.588,-18.721
-892.954,44.547,219.410,-74.157,-39.939,-22.022
-880.714,26.756,278.536,-74.895,-40.024,-24.613
-899.717,14.151,305.920,-75.712,-39.158,-25.372
-907.242,11.562,299.239,-76.125,-37.086,-25.397
-907.925,14.974,255.851,-75.843,-34.167,-23.960
-905.083,11.395,223.624,-70.999,-30.405,-22.242
-891.953,21.842,230.415,-62.201,-26.156,-20.880
-900.590,21.617,248.530,-52.579,-22.599,-20.066
-904.967,1.850,268.203,-42.113,-19.508,-20.450
-907.739,-25.207,289.245,-32.227,-16.872,-21.442
-905.000,-42.000,309.000,-23.450,-14.770,-22.260
-900.462,-41.265,321.957,-16.476,-12.941,-22.210
-916.328,-38.638,326.860,-11.072,-11.825,-21.385
-919.561,-36.510,349.219,-3.903,-10.564,-21.120
-908.804,-45.634,417.131,6.684,-9.712,-21.947
-918.920,-29.638,578.487,25.312,-9.621,-19.814
-1005.386,-28.866,859.073,46.942,-13.848,-15.569
-1132.391,-50.874,944.233,40.133,-25.942,-9.331
-1191.590,-10.687,655.865,2.614,-33.999,5.611
-1152.920,44.655,354.233,-22.556,-27.908,21.468
-1046.121,92.863,212.985,-20.961,-16.469,28.163
-949.801,94.159,216.236,-8.850,-7.728,27.595
-904.261,13.429,346.571,1.709,-1.893,22.265
-913.367,-54.886,439.148,3.861,0.352,15.842
-949.514,-65.324,446.524,0.287,1.038,10.919
-959.000,-41.000,440.000,-2.800,2.030,7.980
-954.039,-31.704,459.066,-4.409,2.340,5.769
-944.433,-45.742,489.908,-7.319,1.829,3.494
-935.233,-62.044,499.108,-12.992,0.369,2.255
-924.392,-68.870,474.213,-18.267,-1.461,1.347
-899.117,-73.785,431.227,-17.874,-3.299,0.589
-877.493,-87.575,414.775,-11.324,-5.077,-0.999
-877.887,-67.284,429.574,-3.369,-6.624,-2.289
-892.240,-39.180,447.950,1.689,-7.779,-3.040
-896.940,-24.211,457.647,2.429,-8.524,-4.691
-904.643,-3.209,461.951,0.675,-9.489,-5.604
-902.779,-10.932,458.802,-2.565,-9.553,-7.231
-887.376,-28.710,450.096,-5.720,-9.581,-7.760
-881.024,-35.452,448.706,-6.809,-9.975,-6.319
-870.702,-35.426,456.434,-7.221,-9.620,-5.709
-875.000,-32.000,461.000,-7.770,-9.870,-4.200
-880.634,-28.084,450.725,-7.658,-9.744,-3.041
-878.469,-8.726,450.151,-5.684,-9.457,-3.030
-888.762,3.328,473.551,-3.421,-9.469,-2.988
-889.240,3.658,483.960,-4.117,-8.491,-3.224
-889.017,-5.158,477.876,-6.507,-7.763,-3.458
-895.564,-17.064,479.839,-8.408,-6.989,-3.881
-904.871,-6.797,479.863,-9.513,-6.273,-3.971
-912.844,2.756,480.808,-10.526,-5.989,-3.133
-913.261,5.901,477.797,-12.506,-5.271,-0.804
-917.839,8.568,465.303,-14.394,-4.713,1.760
-918.404,2.557,462.067,-15.275,-4.283,2.999
-916.830,-2.818,459.569,-15.903,-3.847,3.338
-904.706,-4.058,463.093,-16.887,-3.093,2.653
-895.251,-2.601,465.476,-18.542,-2.468,2.080
-906.000,0.000,462.000,-19.880,-2.240,2.240
-907.429,-4.236,469.826,-20.367,-1.964,2.075
-906.947,-17.787,473.913,-21.072,-2.109,1.996
-903.184,-23.411,479.660,-22.035,-2.274,2.436
-894.327,-23.546,479.688,-23.459,-2.855,2.623
-883.245,-29.903,469.913,-24.789,-3.740,2.472
-867.641,-37.877,474.037,-24.430,-4.447,2.562
-875.295,-45.462,480.100,-23.704,-5.403,2.574
-885.160,-51.346,477.292,-23.313,-6.557,1.905
-879.306,-62.843,478.607,-21.640,-7.681,0.734
-884.487,-63.595,491.377,-19.813,-8.759,0.528
-892.585,-47.160,496.125,-19.235,-10.279,0.828
-890.932,-35.854,501.349,-19.470,-11.456,0.628
-898.471,-31.482,517.041,-21.172,-12.401,0.956
-903.677,-35.922,515.626,-24.302,-12.798,0.683
-902.000,-36.000,507.000,-27.090,-12.670,0.770
-918.697,-30.261,500.416,-29.061,-12.821,1.540
-918.331,-32.092,489.146,-30.610,-11.642,1.178
-898.835,-41.093,475.298,-31.317,-10.538,1.890
-896.051,-56.690,466.204,-31.376,-9.071,3.132
-892.097,-74.685,465.228,-31.349,-6.472,2.736
-883.078,-97.668,479.022,-29.744,-4.850,1.300
-882.704,-103.902,527.507,-27.319,-3.086,-1.345
-903.117,-109.817,580.561,-27.120,-2.238,-6.059
-918.881,-121.850,622.971,-27.453,-2.131,-7.032
-926.865,-122.423,651.218,-29.219,-1.277,-3.462
-949.202,-136.258,644.398,-34.865,-1.151,-2.301
-963.318,-133.202,624.077,-46.668,-1.181,-0.656
-977.780,-153.589,579.252,-70.560,-1.966,-2.863
-961.256,-193.596,529.793,-97.185,-3.825,-7.936
-927.000,-171.000,491.000,-114.940,-4.480,-3.010
-929.062,-147.899,446.849,-126.352,-3.781,6.473
-911.851,-143.842,420.743,-132.145,-1.652,14.128
-885.140,-147.645,357.410,-134.908,2.029,19.426
-866.963,-171.405,278.188,-134.708,5.916,21.488
-839.743,-205.535,255.574,-129.802,9.737,19.842
-824.624,-241.350,254.350,-123.535,13.403,11.769
-820.164,-248.950,266.485,-114.853,16.444,0.127
-830.922,-259.083,288.908,-103.719,18.394,-11.786
-839.945,-289.793,325.452,-92.249,18.824,-22.111
-847.956,-318.034,365.504,-82.489,18.340,-28.873
-861.936,-332.277,379.691,-76.024,17.546,-32.150
-864.848,-322.886,368.081,-71.780,16.751,-32.395
-855.897,-294.569,316.548,-69.006,16.701,-30.655
-818.812,-262.507,278.641,-64.257,17.785,-29.032
-781.000,-265.000,279.000,-56.420,19.180,-29.050
-776.595,-285.873,280.605,-46.742,20.297,-30.895
-790.164,-298.863,317.237,-33.368,20.930,-34.577
-809.869,-323.285,377.462,-19.346,20.569,-38.277
-830.138,-344.757,425.233,-8.369,19.271,-39.427
-864.394,-352.124,461.609,0.367,16.884,-36.369
-901.147,-340.046,470.512,6.290,14.207,-31.525
-907.860,-311.837,463.566,10.471,12.260,-28.028
-909.613,-288.553,461.959,14.400,10.741,-24.144
-909.178,-267.483,458.310,15.621,9.652,-19.631
-899.938,-242.412,435.323,13.348,8.900,-15.338
-897.650,-221.485,405.012,10.180,8.761,-11.610
-886.059,-216.148,379.896,7.140,9.200,-8.779
-873.763,-213.600,351.075,4.645,10.076,-6.739
-860.672,-211.280,347.683,3.983,11.470,-6.616
-853.000,-218.000,360.000,3.990,12.250,-7.700
-860.069,-227.222,367.284,4.465,12.566,-8.820
-865.890,-239.299,392.929,6.481,12.438,-9.332
-875.473,-245.841,411.695,8.347,11.367,-9.242
-869.393,-259.386,423.295,10.196,10.034,-9.408
-875.920,-279.270,440.912,12.543,8.176,-9.197
-900.873,-280.829,446.477,13.693,6.372,-9.594
-898.311,-272.185,447.914,13.286,5.242,-10.539
-895.057,-259.103,436.572,11.398,4.325,-10.446
-887.980,-245.964,416.997,8.564,3.889,-10.711
-880.134,-230.544,406.062,5.066,3.805,-11.733
-884.763,-211.688,390.231,0.244,4.035,-12.625
-878.161,-201.336,378.202,-5.321,4.452,-13.116
-868.189,-197.176,378.537,-11.257,4.792,-13.274
-858.373,-200.030,377.615,-17.360,5.061,-13.473
-851.000,-211.000,376.000,-22.540,4.970,-13.790
-853.079,-228.702,379.141,-26.443,4.786,-14.617
-859.526,-250.793,384.840,-29.241,4.568,-15.367
-861.952,-268.368,385.692,-30.941,4.321,-15.160
-862.676,-278.239,377.586,-31.490,4.215,-14.711
-868.061,-279.003,365.443,-30.801,4.256,-14.739
-869.744,-270.431,359.488,-29.074,4.759,-14.503
-867.900,-260.472,357.577,-27.016,5.201,-13.653
-866.243,-258.816,345.198,-25.330,5.496,-13.042
-861.926,-261.627,333.424,-23.329,6.075,-13.064
-859.190,-261.397,326.282,-21.411,6.796,-13.542
-857.720,-256.606,316.316,-20.602,7.752,-13.572
-854.300,-256.787,322.094,-20.037,8.802,-13.245
-854.618,-273.499,338.121,-19.938,9.685,-13.242
-858.800,-295.134,360.195,-20.175,10.207,-13.032
-866.000,-317.000,389.000,-20.020,10.430,-12.390
-874.691,-346.253,410.189,-19.787,10.119,-11.052
-884.375,-373.453,425.845,-19.416,9.294,-9.084
-894.744,-385.009,424.489,-19.144,8.517,-6.632
-897.201,-382.543,400.404,-18.687,8.369,-3.468
-898.742,-373.643,358.640,-17.944,9.202,0.014
-896.363,-354.750,321.030,-16.293,10.283,3.165
-886.330,-331.294,297.154,-13.489,12.149,5.067
-881.264,-311.372,273.402,-10.339,14.295,6.079
-878.115,-295.416,259.869,-6.905,15.773,7.319
-880.950,-278.436,234.727,-3.659,17.646,8.551
-888.806,-255.930,220.087,1.751,18.955,9.215
-903.633,-239.178,252.380,11.049,20.097,9.386
-936.230,-225.880,287.849,22.480,20.415,10.366
-969.454,-214.111,319.249,34.037,18.682,13.546
-997.000,-194.000,321.000,41.160,17.780,19.670
-1020.560,-177.546,291.584,41.136,18.240,28.227
-1016.393,-208.284,286.994,35.598,20.067,35.571
-1008.524,-251.267,271.561,25.887,22.977,39.659
-1014.633,-282.395,236.119,15.902,25.867,40.071
-1006.271,-311.362,222.139,10.726,29.131,36.038
-994.771,-345.228,257.789,9.116,32.049,29.880
-968.640,-407.017,310.582,3.644,34.373,23.036
-954.443,-458.116,319.192,-7.858,35.102,15.391
-967.598,-490.797,305.959,-17.030,34.340,7.358
-975.972,-499.363,205.436,-20.146,33.422,1.980
-977.097,-506.232,114.640,-11.785,31.279,-0.815
-957.567,-563.568,179.330,2.681,29.644,-6.046
-989.017,-578.910,191.574,0.656,30.904,-12.080
-1032.528,-570.088,163.908,-9.230,33.777,-18.508
-1021.000,-580.000,171.000,-16.170,36.260,-25.130
-988.563,-555.445,154.413,-23.047,37.635,-29.376
-909.438,-523.200,159.097,-27.764,38.754,-29.438
-854.952,-424.708,64.639,-33.733,40.035,-24.604
-796.213,-311.483,-8.654,-24.527,41.666,-21.901
-728.931,-302.361,40.041,-3.092,43.001,-17.709
-760.436,-329.417,52.104,11.090,43.069,-7.340
-813.530,-367.427,76.604,22.474,43.157,3.237
-863.220,-404.076,47.162,28.788,44.125,13.758
-892.176,-429.920,-0.148,32.886,46.265,22.823
-886.257,-464.386,-18.667,39.869,49.707,26.915
-881.724,-460.010,-39.052,48.527,53.476,25.377
-880.537,-403.124,3.623,56.508,57.130,21.366
-912.433,-331.227,-4.882,58.235,61.146,16.200
-907.287,-290.450,67.785,57.276,65.176,9.741
-889.000,-266.000,54.000,49.420,68.880,5.390
-899.985,-216.936,-61.318,37.947,74.337,6.989
-859.006,-251.861,229.308,47.888,75.829,9.083
-888.837,-383.699,441.906,66.905,67.801,2.139
-1018.916,-398.279,306.751,62.286,60.465,-0.443
-1044.841,-338.651,269.662,50.925,58.395,7.457
-975.276,-414.179,326.079,46.839,55.932,9.228
-947.104,-573.470,376.154,35.564,51.481,-1.349
-971.568,-723.325,357.217,22.192,46.415,-20.961
-1026.814,-801.594,308.656,13.766,42.437,-41.409
-1056.347,-779.816,315.348,15.675,38.813,-60.335
-1039.020,-744.298,395.553,26.948,33.317,-78.619
-1061.835,-674.917,433.881,24.873,25.259,-90.638
-1102.906,-527.493,335.405,8.716,17.253,-93.433
-1092.449,-379.127,294.246,-2.720,11.238,-87.711
-1035.000,-309.000,298.000,-14.630,6.650,-78.750
-988.080,-299.621,224.785,-32.989,2.217,-70.178
-940.762,-294.314,119.674,-45.783,-0.110,-63.470
-859.312,-295.089,48.781,-48.265,1.964,-60.093
-824.511,-276.774,31.356,-46.933,6.259,-57.294
-781.416,-246.179,-21.131,-47.335,13.073,-57.628
-741.488,-229.616,-61.895,-43.631,19.548,-63.788
-763.957,-203.363,-33.307,-32.779,24.776,-66.017
-777.945,-211.977,-13.729,-22.739,28.812,-58.497
-794.724,-256.479,-3.632,-12.730,27.785,-47.108
-772.630,-274.755,-2.949,2.388,25.697,-33.468
-748.446,-280.105,16.730,23.437,22.739,-18.256
-786.382,-294.867,87.792,43.165,18.846,-6.869
-838.591,-297.405,121.330,52.787,16.100,1.215
-873.622,-281.793,101.955,55.509,13.471,9.089
-865.000,-254.000,70.000,55.510,12.740,15.680
-851.786,-225.962,35.229,54.406,12.647,19.825
-848.203,-233.076,43.811,54.348,12.179,21.418
-859.649,-286.152,66.132,54.276,10.513,21.162
-884.289,-360.545,64.578,55.086,9.274,19.028
-897.723,-396.928,84.607,59.333,10.082,13.228
-920.672,-371.194,119.871,64.644,9.969,4.139
-956.054,-318.767,156.073,67.006,8.359,-4.705
-996.292,-269.923,190.583,63.923,5.118,-9.575
-1022.297,-241.778,188.317,54.981,1.815,-9.442
-1033.291,-220.562,164.550,43.762,-0.047,-6.370
-1018.518,-205.589,150.732,33.311,-0.324,-2.336
-985.181,-209.829,135.868,23.495,0.540,2.560
-966.033,-219.353,114.851,14.183,1.011,7.056
-949.955,-223.464,101.238,6.217,1.588,9.230
-949.000,-228.000,85.000,-0.490,2.450,10.150
-952.630,-232.998,67.445,-5.047,3.948,10.888
-948.870,-245.881,58.593,-6.948,6.208,11.635
-955.306,-268.097,34.340,-8.511,8.578,12.303
-952.889,-273.207,19.635,-8.794,10.975,11.827
-936.057,-277.111,14.263,-8.927,12.494,10.508
-925.466,-291.670,-18.586,-10.947,13.861,8.817
-918.093,-315.610,-39.409,-11.376,16.455,6.834
-901.231,-358.503,-34.850,-11.250,18.354,4.119
-895.548,-399.197,-16.312,-10.711,18.408,0.144
-913.504,-428.041,21.849,-7.235,18.071,-3.926
-949.089,-439.653,65.465,-2.280,16.893,-7.114
-1002.468,-427.616,97.467,4.276,14.893,-7.957
-1047.663,-376.948,114.555,10.682,13.303,-5.625
-1079.968,-300.020,117.826,13.666,13.010,-0.385
-1109.000,-230.000,55.000,11.690,16.240,7.980
-1106.648,-191.105,-53.377,6.268,22.202,17.148
-1062.245,-211.041,-100.946,0.639,27.201,22.478
-1016.364,-281.711,-122.256,-6.997,30.587,20.632
-993.031,-343.989,-193.014,-17.638,34.407,14.642
-969.938,-337.463,-263.295,-25.965,40.900,8.739
-939.463,-313.894,-253.758,-30.936,48.072,2.885
-911.646,-322.087,-216.150,-39.766,52.584,-0.067
-912.183,-382.872,-251.029,-49.765,56.951,0.534
-910.522,-477.983,-305.180,-54.312,61.455,1.400
-883.523,-542.583,-317.973,-52.152,65.213,-0.374
-869.493,-584.413,-328.179,-40.668,70.409,-5.975
-843.002,-578.138,-315.611,-25.266,75.190,-12.958
-816.393,-566.759,-262.221,-10.425,80.103,-18.234
-789.777,-563.943,-246.814,-3.907,86.267,-17.761
-758.000,-547.000,-306.000,-13.790,91.980,-14.070
-716.504,-527.252,-385.378,-32.579,96.708,-9.741
-638.397,-492.762,-362.071,-47.448,96.429,-5.912
-670.868,-556.234,-179.217,-38.594,92.537,-7.977
-795.440,-641.747,3.334,-10.933,90.849,-9.024
-861.805,-652.669,51.931,5.036,89.838,-3.941
-906.642,-640.323,34.741,7.696,87.467,5.413
-923.870,-602.654,46.170,11.172,83.473,16.694
-923.825,-602.376,84.903,17.195,77.383,21.885
-957.825,-621.367,165.827,24.131,70.084,21.511
-1027.783,-642.082,280.170,28.481,59.856,19.680
-1115.296,-654.304,312.769,24.625,45.534,19.409
-1175.891,-638.917,287.964,17.544,31.516,21.928
-1203.445,-642.953,277.056,14.487,19.884,23.307
-1197.459,-642.735,264.184,12.652,9.076,21.720
-1157.000,-632.000,242.000,8.400,-1.330,16.800
-1101.749,-607.398,133.265,-1.831,-11.583,11.009
-1026.583,-559.893,-49.545,-16.539,-20.122,6.469
-921.350,-524.012,-190.374,-27.203,-23.470,3.569
-811.480,-518.396,-251.454,-31.131,-20.703,0.767
-730.487,-533.317,-258.965,-31.463,-15.005,-5.414
-697.050,-559.174,-259.565,-28.726,-9.568,-14.410
-712.369,-569.169,-267.086,-23.109,-5.541,-24.311
-750.728,-533.135,-286.054,-16.049,-1.986,-31.380
-791.627,-473.931,-278.241,-6.418,2.348,-33.791
-812.675,-408.273,-260.643,2.087,6.197,-33.815
-824.544,-359.947,-271.037,8.195,7.873,-32.462
-851.313,-336.805,-260.960,16.144,7.792,-31.388
-859.868,-325.792,-260.041,22.690,7.956,-30.288
-860.890,-337.579,-258.632,27.771,8.100,-28.824
-864.000,-345.000,-262.000,33.180,7.980,-28.910
-855.140,-334.210,-282.066,39.330,8.187,-29.632
-849.787,-318.946,-287.728,48.257,8.048,-29.624
-844.491,-305.037,-313.789,59.227,8.310,-29.414
-850.300,-304.986,-281.094,73.079,8.945,-28.918
-848.676,-314.857,-223.660,84.117,9.285,-26.047
-838.405,-322.559,-201.818,88.526,8.549,-21.574
-832.149,-331.895,-161.325,88.244,7.513,-18.669
-820.201,-340.829,-153.328,82.149,6.936,-16.862
-831.851,-337.681,-154.335,74.656,5.547,-15.106
-850.863,-343.463,-146.899,67.021,4.712,-12.452
-871.212,-373.563,-145.671,58.495,4.453,-8.401
-910.809,-408.032,-135.571,50.903,4.588,-4.600
-955.696,-431.459,-117.865,43.103,5.420,-2.021
-998.111,-436.532,-85.910,34.707,5.563,-0.868
-1034.000,-424.000,-58.000,24.990,4.760,0.210
-1061.473,-397.018,-37.940,13.335,3.023,3.100
-1067.650,-364.218,-28.754,0.421,1.117,7.589
-1059.654,-336.836,-15.438,-14.256,-1.176,12.963
-1039.745,-323.704,-39.526,-32.710,-3.389,18.291
-1001.512,-344.892,-99.506,-49.454,-4.423,21.525
-953.162,-397.557,-119.712,-59.363,-4.921,21.737
-903.601,-459.961,-155.214,-66.784,-5.108,19.974
-869.047,-522.702,-206.312,-69.922,-4.751,16.702
-846.069,-566.472,-232.380,-66.611,-3.706,11.725
-832.068,-588.716,-256.273,-59.849,-2.506,5.349
-824.511,-596.814,-258.884,-49.873,-0.901,-1.708
-821.088,-586.046,-243.672,-39.393,0.519,-8.282
-827.002,-568.301,-229.690,-30.736,0.776,-13.162
-845.652,-544.708,-213.148,-23.427,0.756,-15.711
-869.000,-514.000,-194.000,-18.550,0.280,-16.030
-883.318,-488.622,-180.293,-16.372,-0.578,-14.163
-892.918,-479.151,-174.637,-16.439,-1.348,-11.042
-898.678,-478.208,-174.472,-18.208,-2.264,-8.083
-905.835,-473.195,-178.031,-20.331,-3.284,-5.841
-904.230,-476.710,-186.654,-22.731,-4.294,-4.701
-892.510,-486.099,-205.149,-24.545,-5.033,-3.969
-889.191,-494.522,-213.128,-24.370,-5.413,-3.814
-897.102,-494.519,-216.527,-23.690,-5.719,-4.746
-907.478,-488.288,-216.924,-23.261,-5.834,-5.658
-913.675,-488.537,-199.002,-22.519,-5.748,-6.110
-927.401,-485.739,-184.103,-22.790,-6.078,-5.765
-941.519,-481.483,-177.650,-24.695,-6.601,-4.885
-950.281,-468.033,-170.875,-27.896,-7.099,-3.533
-954.205,-458.215,-157.803,-34.787,-7.621,-0.920
-952.000,-448.000,-171.000,-45.570,-7.700,2.380
-937.318,-430.998,-190.893,-55.050,-7.614,4.912
-919.784,-432.275,-200.920,-61.734,-7.904,6.364
-917.353,-438.549,-223.258,-66.788,-8.360,7.889
-917.014,-454.998,-229.677,-69.276,-8.804,9.280
-923.222,-464.494,-251.777,-69.748,-9.561,10.280
-921.802,-468.123,-248.646,-69.482,-10.318,11.747
-948.623,-457.882,-254.959,-69.545,-11.293,11.251
-977.906,-431.313,-287.749,-66.987,-12.403,5.152
-942.316,-452.110,-245.044,-63.195,-12.852,-0.607
-932.327,-462.111,-240.597,-64.342,-13.541,1.243
-931.297,-436.932,-265.737,-65.561,-14.452,5.433
-909.763,-428.204,-262.395,-63.709,-14.792,8.207
-897.591,-426.105,-265.377,-62.969,-14.852,10.188
-877.214,-422.454,-264.838,-64.537,-14.923,9.254
-870.000,-424.000,-279.000,-66.780,-14.910,6.650
-863.598,-434.196,-285.896,-67.542,-14.717,4.505
-850.343,-434.726,-311.954,-65.821,-14.641,2.458
-817.643,-450.090,-319.211,-60.066,-14.160,0.511
-786.762,-487.264,-299.789,-53.686,-13.699,-1.428
-782.199,-511.758,-313.155,-49.565,-13.865,-5.509
-778.358,-513.194,-318.582,-43.825,-13.728,-11.897
-781.130,-498.969,-319.312,-35.747,-13.573,-17.730
-768.115,-491.296,-320.277,-26.905,-13.215,-20.995
-742.436,-488.748,-317.050,-16.576,-12.491,-22.568
-745.467,-491.175,-317.082,-4.848,-12.207,-25.313
-762.466,-479.107,-311.133,6.298,-11.462,-29.400
-764.046,-445.122,-297.181,16.291,-10.025,-33.374
-766.596,-408.390,-290.474,24.279,-8.571,-35.923
-765.636,-370.724,-289.173,30.010,-6.861,-36.507
-751.000,-346.000,-280.000,35.420,-5.110,-35.140
-742.538,-328.482,-277.834,40.755,-3.484,-32.468
-741.351,-317.114,-278.988,46.512,-1.596,-30.062
-743.165,-313.363,-283.679,53.224,0.852,-27.930
-741.664,-301.014,-283.711,59.526,3.788,-25.781
-736.811,-290.719,-282.517,64.737,6.865,-23.676
-717.944,-296.103,-282.916,70.091,10.042,-22.511
-708.020,-304.612,-267.441,75.419,12.940,-22.108
-707.391,-318.272,-249.105,79.846,15.184,-22.482
-708.116,-345.123,-237.721,83.375,16.682,-22.705
-713.984,-363.599,-217.315,86.181,17.065,-20.906
-691.347,-366.688,-175.488,86.900,16.891,-15.908
-742.191,-372.215,-160.467,81.957,16.418,-4.099
-844.493,-395.891,-159.038,75.026,14.915,7.703
-884.557,-423.891,-142.446,68.806,13.435,13.427
-905.000,-452.000,-148.000,61.530,13.370,17.780
-904.927,-486.318,-142.290,57.297,13.886,20.729
-909.576,-495.069,-120.810,53.968,13.813,23.142
-931.636,-481.652,-107.394,46.630,12.601,25.346
-954.328,-459.506,-100.689,36.339,10.304,26.703
-968.500,-436.065,-99.328,24.925,7.965,28.528
-969.287,-441.764,-78.840,14.869,5.640,30.271
-991.085,-455.345,-67.786,3.832,2.539,31.644
-1007.604,-449.721,-99.804,-10.478,-0.694,31.931
-1011.040,-445.834,-133.624,-21.868,-2.977,31.848
-1012.115,-453.237,-158.995,-29.308,-4.347,31.631
-998.202,-458.956,-198.421,-37.513,-5.003,30.397
-968.423,-469.447,-234.083,-44.412,-4.893,28.247
-933.920,-493.129,-260.882,-47.610,-3.947,25.272
-904.459,-520.007,-264.823,-46.818,-2.246,20.350
-876.000,-540.000,-258.000,-43.120,-0.770,13.300
-861.837,-535.166,-256.436,-36.812,0.325,6.120
-859.698,-511.771,-230.373,-27.314,1.148,0.720
-868.191,-499.074,-219.914,-19.349,0.913,-0.405
-875.938,-497.374,-228.846,-13.456,0.419,1.576
-863.173,-494.349,-225.231,-7.819,0.350,3.669
-848.540,-488.277,-230.117,-3.749,0.356,4.608
-846.281,-478.078,-236.031,-0.774,0.428,3.986
-855.046,-466.678,-229.011,1.535,0.608,3.079
-870.320,-461.364,-214.748,2.842,0.894,2.028
-893.333,-460.298,-204.890,2.958,0.651,0.953
-915.971,-459.091,-192.377,3.206,-0.259,0.649
-930.608,-456.291,-181.463,2.434,-1.326,1.710
-934.625,-451.434,-183.322,0.003,-2.180,3.151
-926.368,-445.920,-187.685,-1.940,-2.643,3.395
-916.000,-435.000,-193.000,-3.710,-2.940,2.940
-906.104,-426.101,-198.942,-5.168,-3.241,2.338
-903.255,-431.099,-205.695,-5.911,-3.524,1.691
-904.985,-439.466,-207.995,-6.077,-3.609,0.955
-900.552,-443.771,-212.069,-5.641,-3.727,0.281
-893.224,-445.708,-219.194,-4.408,-3.902,-0.404
-887.423,-452.195,-221.439,-2.779,-3.910,-0.953
-874.653,-461.415,-226.544,-0.774,-3.757,-1.773
-858.725,-460.363,-231.895,2.825,-3.328,-3.128
-855.837,-456.669,-228.719,6.839,-2.896,-4.070
-854.256,-451.428,-222.426,9.653,-2.407,-4.983
-852.111,-443.734,-222.676,10.805,-1.804,-5.423
-853.063,-446.547,-219.361,11.138,-1.350,-5.617
-856.025,-452.361,-211.624,11.791,-1.054,-6.324
-871.810,-455.466,-202.288,12.561,-1.070,-6.955
-885.000,-457.000,-193.000,12.600,-1.260,-7.560
-896.708,-453.763,-193.501,11.269,-1.501,-7.559
-907.270,-448.918,-196.215,9.364,-1.713,-6.962
-902.565,-447.915,-199.079,7.314,-1.845,-6.010
-901.160,-448.904,-200.011,5.314,-2.147,-4.604
-901.255,-440.974,-200.618,3.166,-2.524,-2.836
-898.028,-436.253,-203.734,0.351,-3.001,-0.728
-891.463,-444.872,-207.333,-2.841,-3.697,0.707
-892.188,-454.509,-212.502,-5.889,-4.427,1.493
-903.326,-455.536,-221.492,-7.821,-5.058,1.762
-899.708,-446.993,-227.325,-8.349,-5.543,1.095
-900.426,-445.400,-213.994,-8.675,-6.136,0.376
-912.048,-446.319,-204.752,-10.072,-6.999,0.148
-918.362,-439.937,-203.107,-11.751,-7.899,0.315
-922.704,-436.798,-202.716,-13.252,-8.732,1.045
-927.000,-437.000,-211.000,-14.420,-9.380,1.680
-923.604,-442.982,-212.704,-14.738,-9.593,1.581
-913.360,-445.207,-218.725,-14.938,-9.504,1.361
-910.755,-442.274,-220.804,-14.565,-9.266,0.698
-900.981,-447.354,-212.417,-14.084,-8.915,-1.040
-892.131,-450.444,-209.366,-13.704,-8.829,-2.913
-891.387,-452.894,-207.497,-12.348,-8.889,-4.499
-886.813,-456.106,-204.683,-10.327,-8.814,-6.141
-887.938,-456.845,-199.343,-7.944,-8.817,-7.359
-886.211,-460.106,-197.263,-6.112,-8.867,-7.781
-889.116,-464.058,-194.304,-4.981,-9.051,-7.421
-894.693,-468.181,-194.843,-4.552,-9.357,-6.361
-900.355,-462.742,-210.148,-5.016,-9.662,-5.043
-910.582,-450.397,-222.277,-5.280,-9.929,-3.335
-915.988,-438.895,-222.617,-5.102,-9.919,-1.320
-927.000,-419.000,-218.000,-3.500,-9.660,0.140
-933.483,-396.119,-206.478,-0.006,-9.116,1.149
-941.295,-377.195,-190.963,2.872,-8.864,2.860
-955.249,-361.635,-186.516,2.959,-9.367,6.241
-957.454,-349.851,-194.848,0.996,-9.928,10.628
-954.805,-336.216,-214.196,-1.233,-10.390,14.439
-950.811,-320.427,-226.976,-3.015,-10.673,17.812
-946.814,-303.453,-228.754,-4.621,-10.797,21.912
-945.172,-276.505,-254.613,-6.495,-11.112,26.903
-941.757,-243.189,-267.657,-6.006,-11.074,31.939
-942.157,-214.625,-246.029,-3.816,-10.631,36.727
-960.952,-196.204,-241.788,-3.800,-10.076,42.155
-988.887,-190.637,-246.861,-3.278,-9.418,48.027
-1000.457,-194.619,-229.282,-0.164,-8.628,52.921
-1004.187,-213.577,-188.805,3.535,-7.910,56.291
-1021.000,-232.000,-169.000,4.130,-7.910,58.730
-1044.120,-245.284,-170.489,3.117,-7.797,60.494
-1053.218,-260.891,-150.991,4.898,-6.941,60.177
-1032.146,-257.034,-134.772,5.728,-6.043,57.342
-1002.003,-250.920,-132.053,5.393,-5.327,53.690
-987.105,-245.149,-124.115,6.242,-5.252,49.046
-970.605,-231.490,-97.827,6.018,-5.987,43.475
-953.912,-231.488,-77.467,2.614,-7.817,39.138
-940.023,-241.707,-78.874,-3.632,-10.510,36.184
-930.827,-270.989,-78.320,-9.341,-12.781,33.677
-926.256,-325.301,-87.513,-13.651,-14.638,31.161
-916.563,-375.729,-103.360,-16.377,-16.043,28.601
-903.667,-406.289,-108.275,-15.587,-16.858,26.173
-881.191,-429.165,-107.475,-12.111,-17.584,23.963
-871.301,-432.457,-135.987,-8.646,-18.108,22.645
-859.000,-412.000,-156.000,-2.590,-17.990,21.070
-844.481,-391.053,-143.824,3.937,-17.588,19.290
-843.823,-372.694,-155.770,5.720,-17.608,18.280
-852.936,-364.021,-152.265,6.809,-17.255,16.626
-894.362,-345.330,-169.948,4.553,-17.212,15.998
-928.967,-299.231,-227.453,0.236,-17.961,17.345
-976.834,-248.824,-224.221,0.364,-18.115,18.961
-1022.259,-201.305,-197.087,-2.491,-19.828,21.777
-1113.948,-150.203,-192.306,-9.296,-23.260,26.278
-1270.106,-91.572,-152.414,-13.813,-26.738,32.225
-1281.798,-26.709,-117.401,-22.021,-31.739,41.699
-1237.054,34.384,-129.303,-35.449,-37.801,53.954
-1169.261,90.585,-126.262,-46.950,-44.530,64.382
-1056.621,151.178,-112.448,-56.203,-51.902,71.096
-1066.265,169.361,-52.364,-65.148,-59.326,73.320
-1098.000,144.000,-155.000,-89.740,-65.730,77.560
-1140.515,127.089,-564.957,-124.973,-63.993,90.418
-1161.627,81.491,-790.377,-134.784,-48.975,100.432
-1048.723,26.470,-707.418,-127.337,-27.887,99.925
-938.662,5.090,-615.207,-122.033,-11.034,91.508
-871.966,15.504,-526.047,-111.722,-0.227,78.913
-819.002,73.943,-425.057,-96.663,6.875,74.024
-773.701,126.354,-340.878,-80.796,10.690,80.228
-749.073,129.072,-264.365,-67.560,12.076,90.815
-757.063,69.373,-208.896,-57.831,11.797,102.490
-769.178,-56.654,-181.122,-49.317,10.592,113.614
-816.624,-209.378,-146.500,-38.572,9.568,123.797
-863.817,-358.894,-106.886,-24.415,9.159,132.189
-896.884,-456.552,-79.918,-8.777,9.532,138.296
-914.794,-498.234,-62.859,7.561,9.927,141.058
-874.000,-501.000,-52.000,21.980,10.640,142.240
-840.646,-439.441,-50.228,35.334,11.944,142.476
-803.897,-337.998,-35.667,48.827,13.639,135.131
-766.614,-255.542,4.356,59.860,14.789,123.178
-789.191,-231.333,30.638,68.233,14.531,114.150
-809.483,-239.143,58.581,74.299,14.291,106.377
-825.574,-239.385,63.783,77.589,14.132,96.928
-859.955,-238.132,69.047,79.450,14.858,87.620
-896.862,-245.798,56.645,77.862,15.652,82.999
-903.044,-267.622,20.567,74.469,16.512,80.580
-878.638,-294.580,39.886,73.999,18.127,78.078
-853.592,-302.979,-91.859,65.920,17.846,74.865
-749.276,-269.943,-220.072,56.739,21.167,62.986
-601.523,-255.153,-64.168,64.411,26.221,41.824
-585.093,-304.969,43.858,69.494,23.113,19.579
-758.000,-329.000,-76.000,60.550,16.940,2.940
-928.781,-270.150,-226.046,53.471,16.155,-6.793
-942.504,-151.669,-267.907,47.651,20.397,-9.050
-941.520,-2.046,-330.175,37.950,25.534,-3.394
-989.660,168.852,-410.259,35.800,31.132,2.048
-1059.372,357.206,-352.382,44.482,34.031,4.805
-1162.032,537.050,-271.147,49.708,29.694,11.870
-1298.541,677.997,-156.913,48.916,19.722,26.106
-1499.449,772.170,3.367,39.789,6.622,47.109
-1708.197,820.357,82.661,14.925,-2.535,76.516
-1745.367,726.622,84.616,-20.335,-5.323,106.357
-1542.644,468.953,-35.036,-61.498,-6.590,121.092
-1283.651,227.424,-207.485,-91.801,-6.091,115.533
-1065.328,73.515,-290.885,-95.727,-3.721,87.445
-925.803,-7.780,-313.374,-83.042,-0.293,48.547
-886.000,26.000,-305.000,-64.470,4.270,13.930
-850.737,133.027,-281.022,-46.347,8.553,-16.336
-851.106,230.992,-256.948,-32.257,12.546,-35.250
-863.811,293.206,-263.877,-22.796,15.298,-39.778
-855.237,324.786,-291.484,-13.808,15.536,-35.761
-843.563,331.576,-284.762,-1.397,16.088,-31.453
-811.276,316.338,-284.663,10.527,17.506,-31.617
-810.266,300.384,-278.344,21.937,18.238,-30.915
-827.068,305.718,-258.409,31.113,18.434,-27.520
-837.993,323.614,-263.377,34.034,17.587,-21.923
-840.286,321.994,-269.941,31.330,16.400,-16.654
-829.998,285.164,-289.780,23.473,15.916,-14.325
-816.715,214.852,-287.889,13.928,16.730,-15.122
-802.649,130.124,-257.928,7.049,18.449,-19.810
-822.582,81.866,-251.300,4.772,19.764,-27.183
-866.000,104.000,-255.000,8.050,20.510,-34.510
-911.047,187.534,-263.176,15.088,20.443,-38.603
-950.353,297.340,-254.639,22.924,19.889,-39.522
-967.852,372.891,-213.699,28.409,18.767,-36.623
-974.767,383.184,-197.012,27.694,15.804,-29.809
-967.840,345.995,-225.890,21.839,12.247,-23.410
-956.182,272.942,-244.073,15.392,9.774,-20.348
-974.273,189.886,-251.622,8.296,7.540,-20.513
-1001.392,116.865,-255.710,-0.127,6.084,-21.215
-1020.714,75.213,-276.030,-10.559,5.671,-20.530
-1034.044,86.790,-307.990,-21.581,7.633,-20.133
-1037.763,102.349,-265.167,-29.801,11.512,-21.373
-1066.474,120.116,-245.515,-39.191,11.153,-21.038
-1090.109,171.621,-294.417,-49.165,9.492,-17.571
-1081.973,214.415,-300.366,-54.247,10.924,-13.794
-1066.000,228.000,-279.000,-56.630,11.760,-11.830
-1040.866,227.794,-282.973,-58.521,10.777,-10.543
-1015.249,216.599,-312.580,-57.730,8.792,-7.973
-976.501,182.251,-310.895,-52.065,7.935,-6.771
-949.122,130.590,-301.190,-43.577,8.024,-8.456
-943.668,84.213,-310.956,-33.556,8.567,-11.695
-932.354,45.881,-306.723,-21.857,10.501,-15.891
-927.930,19.644,-311.844,-10.972,12.223,-19.644
-925.196,14.311,-321.407,-0.796,13.800,-22.620
-928.802,36.959,-328.618,9.785,15.369,-24.871
-946.683,81.420,-320.995,20.280,16.558,-26.310
-972.606,128.467,-300.468,28.869,16.627,-26.195
-998.987,167.075,-284.987,33.740,14.755,-23.594
-1015.143,186.674,-274.499,34.710,11.887,-19.835
-1027.685,188.523,-281.304,33.278,9.172,-16.495
-1032.000,179.000,-278.000,32.200,7.700,-14.420
-1028.397,161.324,-266.751,31.191,6.427,-13.571
-1027.761,152.794,-263.870,29.327,4.545,-13.400
-1026.547,154.288,-262.609,27.755,2.858,-13.515
-1015.103,152.246,-268.209,26.698,1.471,-13.175
-996.924,148.415,-265.227,26.074,0.690,-12.660
-981.542,140.422,-259.782,25.827,0.224,-12.722
-965.740,127.025,-268.050,24.876,-0.554,-12.802
-950.123,117.536,-283.010,23.209,-0.996,-12.609
-937.733,111.198,-290.069,22.251,-0.255,-12.669
-934.517,107.544,-288.814,21.519,0.650,-13.012
-938.787,105.471,-288.922,20.284,1.167,-12.987
-945.379,100.598,-281.068,18.974,2.018,-12.080
-956.449,97.066,-274.728,17.011,2.269,-10.672
-963.525,93.467,-285.305,14.460,1.831,-8.956
-963.000,93.000,-295.000,12.460,1.680,-7.140
-957.088,92.831,-284.546,11.512,1.640,-6.036
-952.999,84.117,-275.427,10.502,1.175,-5.642
-958.566,74.633,-290.134,8.832,0.301,-5.123
-960.438,62.764,-303.361,7.996,0.053,-4.358
-956.869,44.472,-309.469,8.225,0.288,-3.958
-958.519,26.393,-316.267,9.328,0.365,-3.828
-960.224,17.739,-321.558,11.528,0.501,-3.861
-967.260,17.819,-330.457,14.068,0.618,-4.050
-974.831,21.739,-332.615,17.268,0.934,-4.078
-981.045,26.261,-329.829,21.152,1.470,-3.995
-990.631,28.010,-327.075,25.211,1.997,-4.006
-999.119,32.132,-323.236,29.779,2.378,-3.849
-1011.322,36.548,-319.924,34.964,2.438,-3.066
-1012.395,47.212,-316.585,40.364,2.269,-2.094
-1010.000,62.000,-315.000,45.290,1.820,-1.120
-1004.724,76.663,-314.256,49.303,1.261,-0.260
-995.300,89.591,-309.264,52.549,0.814,0.768
-987.684,106.376,-299.024,54.833,-0.043,2.548
-963.569,142.222,-300.877,54.462,-1.552,4.212
-937.399,166.633,-305.778,51.118,-2.753,6.024
-878.384,202.027,-306.834,46.814,-3.581,8.445
-838.134,241.304,-312.092,42.419,-5.036,11.353
-867.938,234.001,-303.132,37.621,-6.982,13.209
-874.320,234.363,-294.282,32.453,-9.135,12.422
-887.384,239.499,-303.074,26.551,-11.601,11.270
-908.977,233.542,-319.743,22.054,-14.641,10.083
-909.892,224.156,-333.522,21.844,-16.295,9.997
-927.139,192.713,-322.856,24.577,-15.910,10.823
-946.948,177.834,-304.526,27.099,-16.526,8.909
-989.000,185.000,-306.000,26.600,-16.660,7.000
-1021.443,199.860,-291.166,24.925,-16.106,5.513
-1044.814,220.062,-255.548,20.422,-16.146,5.854
-1088.940,233.859,-235.682,9.701,-16.174,9.719
-1111.834,243.385,-237.596,-4.599,-17.295,13.369
-1120.946,241.540,-248.968,-20.085,-18.405,18.870
-1104.596,226.578,-240.075,-33.269,-20.150,24.547
-1083.286,204.329,-248.994,-47.979,-22.058,27.648
-1076.132,184.623,-256.602,-62.249,-25.084,27.194
-1062.643,158.837,-200.828,-76.781,-29.218,25.948
-1081.776,145.375,-210.706,-98.193,-33.113,29.128
-1069.331,146.807,-283.744,-115.449,-36.774,30.423
-994.878,97.216,-301.610,-130.809,-29.687,31.641
-943.564,41.314,-349.718,-140.243,-16.074,32.737
-900.848,11.365,-419.407,-131.151,-5.002,26.533
-868.000,-39.000,-414.000,-112.350,6.440,16.660
-870.013,-62.576,-400.919,-89.567,13.068,3.828
-869.692,-54.383,-385.593,-65.186,16.993,-10.601
-862.074,-51.089,-314.307,-38.603,21.082,-24.166
-868.609,-38.441,-265.691,-18.548,21.792,-33.853
-886.861,-20.677,-258.959,-11.709,19.309,-36.029
-893.428,-6.869,-243.804,-6.469,16.403,-33.452
-880.722,6.938,-230.254,0.152,14.618,-28.902
-865.905,11.394,-223.275,6.417,12.097,-24.733
-855.422,0.734,-221.830,11.654,10.014,-20.514
-844.641,-3.919,-211.974,17.805,7.767,-16.862
-841.470,22.574,-194.765,24.022,4.869,-13.875
-848.373,69.804,-181.577,26.392,1.986,-9.337
-857.612,103.005,-165.666,25.181,-1.173,-4.873
-878.795,119.527,-163.746,19.486,-4.170,0.403
-896.000,116.000,-169.000,14.210,-7.070,5.670
-901.690,100.917,-173.226,11.331,-9.517,9.325
-912.202,87.083,-176.084,10.128,-11.676,11.606
-918.752,66.702,-177.609,10.901,-13.444,11.217
-923.432,54.631,-184.352,11.727,-14.926,9.449
-926.736,43.540,-184.952,14.561,-15.289,6.188
-926.152,38.698,-190.637,17.795,-15.702,1.230
-916.005,34.528,-191.921,19.745,-16.358,-4.113
-906.512,37.020,-202.159,18.689,-17.515,-9.021
-894.786,45.201,-227.770,16.057,-18.478,-13.796
-873.733,43.000,-255.681,12.967,-18.243,-18.264
-858.632,75.370,-299.509,9.988,-18.336,-23.057
-835.419,75.853,-305.194,18.144,-13.892,-32.340
-820.785,41.120,-331.099,26.088,-11.779,-41.599
-800.094,37.836,-413.136,22.012,-11.700,-45.894
-759.000,19.000,-436.000,20.230,-2.030,-49.420
-709.863,-16.187,-402.907,26.307,9.355,-56.473
-693.110,-55.766,-356.204,37.181,18.621,-65.318
-743.669,-84.374,-338.588,45.513,25.286,-69.150
-759.415,-82.574,-371.434,49.259,27.946,-68.100
-776.209,-44.123,-395.366,56.194,30.264,-63.490
-844.232,-8.335,-353.055,69.278,35.634,-57.647
-912.961,23.032,-279.696,79.601,42.168,-51.932
-1003.190,98.870,-257.076,80.664,41.355,-41.279
-1074.955,161.249,-257.041,79.003,37.030,-26.929
-1132.611,213.326,-273.730,72.219,33.733,-12.000
-1185.402,276.245,-300.347,61.382,29.072,0.188
-1232.882,326.388,-281.347,52.399,23.481,9.193
-1272.615,347.361,-260.436,41.307,18.668,18.195
-1255.992,302.561,-253.309,29.582,16.461,26.799
-1204.000,229.000,-238.000,18.900,13.300,33.530
-1151.194,158.128,-234.789,8.722,7.878,36.296
-1118.728,86.174,-248.593,0.294,3.419,34.620
-1072.850,20.154,-269.956,-4.317,0.946,28.146
-1019.918,-34.419,-284.044,-3.014,0.538,19.813
-985.902,-67.733,-295.466,1.648,2.134,12.316
-949.634,-72.371,-315.362,7.242,4.790,4.536
-938.021,-50.765,-323.027,15.026,8.044,-1.796
-938.962,-21.795,-328.637,23.794,11.466,-5.614
-944.929,-8.572,-354.653,31.731,13.901,-7.356
-957.767,-2.359,-374.533,39.143,16.433,-8.675
-977.189,30.425,-370.318,44.310,19.350,-9.884
-1015.476,62.379,-340.933,47.964,21.630,-9.706
-1025.270,68.336,-313.192,47.941,21.697,-6.609
-1015.406,72.089,-305.710,40.511,18.278,0.890
-1015.000,80.000,-288.000,30.450,13.650,8.050
-996.557,76.027,-289.138,21.887,10.204,11.987
-978.712,62.224,-315.495,15.875,7.848,15.894
-955.512,53.380,-317.031,10.487,5.488,19.428
-924.362,52.908,-316.578,3.119,3.581,20.561
-924.290,69.123,-319.948,-4.022,2.480,18.655
-920.723,57.887,-317.001,-9.459,1.212,15.418
-920.835,42.497,-325.918,-13.916,-0.158,14.902
-927.464,62.017,-331.283,-18.363,-0.707,15.895
-923.177,61.413,-322.956,-21.690,-0.322,17.159
-953.964,71.385,-320.430,-23.142,0.086,19.096
-975.805,76.156,-329.856,-25.482,0.345,19.127
-986.792,53.735,-322.648,-29.532,-0.182,20.262
-1016.009,65.748,-314.307,-34.471,-1.588,23.024
-1022.852,89.335,-329.361,-39.022,-3.307,23.149
-1030.000,90.000,-330.000,-42.070,-5.460,21.630
-1043.814,78.796,-323.597,-45.654,-7.461,20.373
-1031.802,81.212,-328.935,-50.191,-9.553,20.786
-1009.501,79.924,-329.727,-53.281,-10.588,22.106
-1004.546,65.893,-328.183,-54.047,-10.075,22.350
-991.841,59.209,-326.389,-53.001,-9.267,20.779
-980.432,40.909,-329.188,-51.252,-7.311,17.524
-982.728,26.417,-331.903,-49.227,-5.573,13.833
-969.964,17.896,-329.795,-45.877,-4.086,9.261
-967.047,11.276,-340.172,-41.968,-1.774,4.938
-965.178,25.629,-353.088,-38.771,-0.271,1.535
-956.352,38.322,-351.337,-36.417,1.098,-2.119
-959.395,45.854,-342.259,-34.785,1.817,-5.357
-950.901,56.066,-330.675,-31.413,1.265,-8.718
-948.419,63.958,-327.321,-25.739,0.694,-12.298
-962.000,65.000,-331.000,-19.950,0.420,-15.680
-951.987,58.006,-325.874,-15.312,1.221,-17.501
-942.122,53.669,-311.616,-11.478,1.979,-16.608
-953.748,52.233,-305.757,-8.233,1.578,-15.954
-954.540,55.615,-314.754,-6.575,0.719,-16.265
-956.834,63.069,-324.595,-5.406,-0.187,-15.942
-956.630,72.044,-333.670,-3.703,-0.665,-15.175
-952.118,75.912,-333.746,-0.145,-0.465,-15.162
-956.038,73.066,-334.563,3.968,-0.523,-15.971
-952.069,74.612,-336.562,6.274,-1.234,-16.595
-957.135,75.189,-328.666,8.803,-1.905,-17.184
-959.599,80.021,-329.703,11.159,-2.594,-17.568
-958.956,88.767,-329.348,13.335,-3.489,-17.968
-967.248,96.761,-339.135,14.604,-5.516,-17.533
-970.406,104.748,-354.198,15.078,-7.725,-15.835
-974.000,105.000,-351.000,17.290,-8.260,-14.560
-978.046,108.029,-335.559,19.245,-8.576,-13.433
-1000.409,114.655,-310.285,19.335,-9.320,-11.982
-1020.570,123.048,-286.783,17.148,-10.075,-9.615
-1026.102,126.250,-264.009,13.694,-12.113,-5.436
-1040.322,123.209,-263.823,10.452,-15.304,-0.063
-1040.173,120.107,-242.429,10.360,-16.422,4.895
-1036.330,99.026,-209.921,13.587,-15.457,9.077
-1043.880,81.669,-246.484,14.189,-14.446,13.811
-1030.942,68.895,-263.806,11.531,-13.175,18.921
-1000.133,37.053,-246.922,6.202,-13.420,22.258
-989.467,-1.296,-228.829,-0.833,-15.417,21.672
-985.046,-55.733,-159.859,-7.138,-19.191,17.627
-978.567,-121.077,-84.051,-14.142,-26.367,11.691
-1004.190,-182.745,-54.943,-19.295,-34.681,4.973
-1028.000,-220.000,-47.000,-16.730,-41.650,-1.960
-1049.209,-219.594,-42.950,-6.883,-46.720,-8.928
-1074.105,-204.699,-42.123,6.817,-51.378,-15.060
-1068.267,-166.958,-33.545,21.242,-57.619,-20.009
-1063.071,-123.779,-34.356,31.318,-63.949,-23.238
-1047.265,-102.005,-38.798,37.862,-69.282,-26.197
-1034.742,-100.338,-43.076,44.607,-74.776,-30.188
-1032.681,-98.388,-55.764,50.523,-80.068,-33.359
-1000.064,-50.442,-54.862,55.596,-86.535,-34.406
-1005.547,-16.388,-37.837,60.884,-94.852,-32.648
-1052.830,-23.471,-19.886,64.315,-99.629,-30.157
-1068.260,-3.466,-16.491,65.393,-100.297,-29.707
-1064.125,24.302,-17.474,67.054,-100.923,-29.165
-1061.117,50.123,-23.353,67.033,-100.789,-26.194
-1044.925,79.745,-24.444,64.941,-99.345,-22.668
-1031.000,94.000,-29.000,62.860,-97.440,-19.250
-1022.402,100.373,-51.903,57.425,-95.836,-14.594
-1002.509,102.877,-50.785,48.307,-95.348,-9.181
-982.712,100.160,-35.152,37.087,-95.426,-3.368
-972.672,83.061,-18.581,26.668,-95.671,1.629
-982.825,65.961,-1.883,19.394,-95.292,4.750
-979.637,58.122,18.003,13.712,-94.597,7.227
-965.396,45.879,26.258,10.127,-94.150,9.702
-957.211,29.433,3.713,9.954,-92.015,11.713
-942.761,11.268,-8.731,12.466,-88.878,12.732
-953.226,0.965,-15.657,14.366,-87.373,12.775
-954.934,-2.211,-18.706,14.424,-87.483,12.517
-962.102,3.302,-24.125,15.811,-87.958,12.120
-972.242,-1.026,-24.792,20.861,-87.639,10.323
-936.603,-17.456,2.159,26.884,-86.648,7.782
-910.000,-12.000,16.000,29.820,-85.820,6.300
-893.129,-13.582,31.687,31.545,-84.938,4.892
-888.325,-29.056,43.311,34.455,-83.636,3.069
-882.542,-30.110,25.637,38.057,-81.394,1.226
-870.094,-24.850,7.381,42.422,-77.903,-1.169
-892.819,-11.202,1.900,44.695,-75.327,-3.676
-904.019,11.181,10.074,42.070,-75.337,-4.794
-907.946,27.835,15.474,38.771,-75.718,-4.842
-919.710,32.039,32.920,38.512,-74.489,-5.632
-919.428,32.582,56.815,39.193,-72.410,-7.194
-925.566,44.451,67.528,38.308,-70.755,-7.785
-934.032,63.754,81.028,34.393,-69.871,-6.304
-947.681,74.497,101.829,28.538,-68.851,-4.623
-951.900,75.323,121.231,21.577,-66.568,-4.064
-944.170,65.732,106.290,14.469,-63.498,-3.186
-940.000,47.000,98.000,10.990,-59.990,-2.380
-926.603,31.922,107.786,9.709,-54.929,-2.642
-927.827,34.834,107.279,7.444,-49.347,-3.069
-943.636,49.160,106.843,3.391,-44.946,-2.895
-942.725,61.111,94.929,-2.498,-40.698,-2.629
-931.854,66.147,108.128,-7.390,-36.394,-3.062
-927.799,56.303,116.332,-10.776,-32.119,-4.223
-927.890,49.560,115.513,-12.495,-26.799,-5.388
-924.301,35.556,120.251,-12.021,-21.392,-6.038
-921.584,22.806,118.062,-11.872,-16.452,-7.047
-916.508,23.195,117.262,-12.313,-12.355,-8.288
-905.703,8.289,103.853,-11.831,-9.320,-9.695
-892.205,-6.612,113.021,-8.947,-6.418,-11.909
-878.116,-26.422,81.355,-4.800,-3.484,-14.013
-870.985,-39.255,84.823,0.435,-0.603,-17.043
-851.000,-38.000,155.000,9.660,0.280,-21.840
-848.771,27.279,407.384,28.993,-5.473,-26.811
-1051.311,63.320,930.744,61.821,-23.499,-28.111
-1408.001,-19.820,965.525,78.943,-35.219,-22.355
-1499.810,86.931,411.873,66.103,-18.254,-7.020
-1263.659,269.539,33.429,54.230,0.477,17.867
-1022.951,218.558,-7.107,36.354,0.447,34.618
-920.811,90.028,121.702,3.654,-3.023,30.265
-929.737,5.536,241.438,-9.453,-3.160,16.627
-975.747,32.171,273.689,-2.656,0.508,5.871
-1008.914,103.326,240.932,3.467,3.696,1.873
-1021.651,115.417,233.695,3.964,3.394,2.215
-1011.547,100.810,288.936,-1.591,1.539,3.548
-1001.931,64.752,328.733,-6.341,-1.433,4.900
-995.799,32.998,341.169,-6.569,-3.133,5.635
-985.000,10.000,328.000,-1.540,-4.620,6.230
-966.563,0.148,312.555,5.725,-5.896,5.724
-945.428,-0.138,306.128,13.259,-6.741,4.277
-942.264,4.189,315.533,22.951,-7.586,3.154
-951.917,16.475,329.266,31.984,-7.870,3.260
-950.245,23.093,336.414,39.855,-8.962,4.842
-941.518,29.632,329.743,43.002,-9.926,7.552
-942.357,42.692,299.635,42.554,-11.700,7.678
-950.002,73.709,273.876,42.793,-15.309,0.337
-970.667,87.069,253.028,41.989,-19.136,-10.834
-994.429,71.365,266.445,41.892,-22.699,-18.365
-1006.722,41.767,298.560,41.468,-24.435,-20.587
-1018.959,6.356,309.403,41.971,-24.262,-21.942
-1015.894,-12.714,306.155,45.321,-22.740,-24.765
-1005.952,-41.324,300.211,49.351,-20.027,-28.128
-998.000,-41.000,290.000,51.800,-17.920,-32.550
-992.570,-17.386,277.596,54.950,-16.735,-39.610
-1007.367,-25.723,289.559,60.554,-16.869,-47.210
-999.478,-20.598,293.503,62.606,-17.150,-51.385
-995.039,-16.045,306.187,66.468,-16.409,-54.533
-1026.478,-16.516,334.057,71.022,-16.678,-56.843
-1018.344,-12.560,327.430,69.001,-16.698,-55.918
-992.057,-24.999,323.662,67.936,-15.972,-52.139
-990.295,-30.070,333.847,67.999,-14.706,-47.951
-977.255,-27.380,325.740,65.591,-12.813,-46.450
-962.290,-20.877,325.409,62.329,-11.916,-44.470
-946.976,-27.562,353.617,60.457,-10.424,-40.753
-927.247,-37.781,360.785,59.200,-8.888,-36.964
-924.836,-37.670,354.274,58.367,-8.053,-33.709
-908.919,-52.044,356.124,60.304,-6.587,-31.211
-887.000,-71.000,358.000,64.260,-4.200,-27.650
-882.282,-83.902,359.987,69.863,-0.658,-25.130
-870.949,-90.025,338.617,74.447,3.211,-24.822
-876.932,-109.690,337.276,78.889,7.020,-24.608
-878.326,-119.107,336.706,83.763,9.989,-25.494
-861.399,-95.081,306.315,88.846,12.435,-29.385
-879.949,-88.601,313.482,97.614,15.250,-34.064
-904.261,-81.344,329.965,103.712,18.602,-37.757
-920.521,-51.218,309.421,106.096,21.348,-42.712
-936.256,-30.699,284.096,109.727,23.187,-47.056
-944.026,-21.268,284.454,111.618,26.424,-49.059
-965.417,-17.124,286.322,109.753,28.869,-49.948
-977.370,-13.439,279.150,103.959,29.803,-48.846
-980.153,2.572,279.153,96.639,30.942,-46.128
-1002.784,30.686,275.211,88.088,32.225,-41.224
-1035.000,57.000,272.000,76.510,34.230,-32.690
-1048.768,65.118,257.930,64.000,36.560,-22.032
-1051.647,64.957,231.587,52.912,39.450,-11.662
-1061.939,66.709,211.045,43.977,42.408,-2.972
-1053.546,55.366,188.281,36.248,44.963,2.288
-1046.948,45.437,197.665,30.506,45.809,3.723
-1052.659,33.285,219.900,25.791,45.150,4.712
-1048.308,-1.122,151.523,24.621,45.015,5.182
-1023.794,-44.345,50.573,29.863,45.703,2.243
-956.739,-96.713,35.931,29.989,48.926,-2.857
-913.440,-141.870,50.695,20.274,52.088,-7.884
-936.232,-161.022,29.312,12.162,53.827,-13.223
-966.079,-167.871,11.524,14.697,58.179,-20.036
-974.832,-185.114,18.724,22.571,65.157,-25.571
-972.255,-231.297,9.396,26.147,72.943,-28.455
-966.000,-270.000,-19.000,29.610,80.220,-31.220
-968.574,-242.209,-22.795,36.402,86.821,-34.264
-991.663,-145.611,8.777,41.815,92.041,-38.148
-1015.767,-30.740,51.615,41.119,93.225,-41.428
-1028.965,35.439,54.214,31.164,91.680,-40.855
-1016.529,30.816,20.619,17.236,90.127,-36.804
-996.436,-3.143,-0.222,6.778,88.228,-31.718
-999.297,-40.139,-14.268,0.712,86.726,-28.498
-990.378,-85.528,-30.950,-1.444,86.357,-28.345
-979.865,-121.497,-39.628,1.432,87.422,-29.620
-988.494,-130.513,-38.333,5.157,88.907,-31.300
-992.845,-120.593,-36.457,4.075,88.402,-34.024
-1009.350,-113.748,-40.266,0.887,89.032,-38.168
-1029.205,-119.787,-42.943,-3.130,91.412,-43.927
-1022.995,-107.944,-30.800,-8.477,91.366,-48.587
-1040.000,-72.000,-11.000,-11.970,89.600,-50.750
-1065.504,-48.484,-21.540,-13.004,88.267,-54.410
-1041.790,-44.262,-32.141,-12.850,87.525,-57.937
-1006.030,-43.976,-9.328,-13.269,86.519,-59.727
-976.491,-51.571,-6.504,-16.196,84.532,-62.016
-962.203,-63.549,-23.858,-22.117,81.501,-62.010
-961.617,-61.557,-24.545,-27.396,78.812,-61.328
-963.936,-60.366,-12.845,-28.124,77.410,-61.476
-989.737,-66.693,5.477,-26.604,76.559,-59.245
-1002.996,-72.774,18.032,-27.253,75.909,-56.435
-985.232,-105.351,1.618,-30.744,74.366,-53.753
-1003.008,-151.207,-14.839,-31.334,71.975,-51.804
-1042.916,-150.090,-3.437,-27.470,68.980,-53.996
-1021.528,-124.890,-0.357,-23.554,65.134,-58.051
-988.944,-134.711,5.690,-19.211,60.996,-58.994
-970.000,-134.000,4.000,-13.930,56.070,-57.890
-950.673,-116.096,-18.867,-6.216,51.160,-57.496
-964.401,-128.857,-25.481,3.179,46.637,-57.164
-966.973,-145.316,-38.887,11.231,41.718,-56.375
-968.170,-157.124,-36.099,21.084,37.553,-54.695
-962.557,-155.714,-0.504,31.113,34.682,-52.874
-955.702,-144.264,17.919,34.015,31.674,-51.632
-976.122,-142.873,3.451,28.410,27.281,-49.658
-976.030,-139.892,-2.802,22.193,22.661,-47.169
-989.532,-150.589,-0.118,17.319,18.249,-44.109
-994.139,-169.585,-48.305,11.799,13.495,-39.562
-982.465,-189.536,-65.311,13.654,10.230,-35.093
-979.477,-199.672,-36.304,18.031,8.382,-33.219
-938.379,-193.217,-59.592,17.495,5.378,-32.691
-923.736,-198.730,-76.205,17.673,0.994,-31.307
-943.000,-213.000,-63.000,16.380,-3.080,-29.400
-940.074,-232.173,-74.102,11.294,-6.624,-27.211
-926.147,-229.111,-82.917,6.241,-9.682,-25.221
-928.726,-215.104,-61.544,3.781,-11.952,-23.022
-946.499,-228.478,-35.434,5.953,-14.104,-19.476
-946.047,-242.876,-35.649,12.354,-15.543,-15.300
-940.697,-256.939,-68.835,19.285,-16.127,-12.166
-909.793,-262.432,-96.369,23.082,-16.135,-10.466
-883.364,-289.168,-115.869,22.182,-15.506,-9.016
-881.232,-341.076,-146.674,19.364,-15.413,-7.367
-874.610,-384.110,-172.984,15.353,-14.844,-6.736
-882.973,-436.748,-211.286,6.921,-12.477,-8.244
-837.175,-443.564,-237.854,-2.327,-8.482,-11.179
-811.628,-438.457,-233.632,-8.565,-3.628,-14.710
-845.378,-444.946,-209.688,-9.855,0.491,-18.182
-842.000,-400.000,-168.000,-7.630,3.570,-19.810
-868.182,-360.694,-135.275,-5.222,5.801,-17.981
-899.776,-339.618,-110.200,-0.956,7.633,-13.933
-918.767,-341.202,-108.174,2.676,9.849,-9.819
-950.938,-366.144,-131.952,7.202,12.569,-4.919
-964.225,-379.362,-180.988,13.543,15.602,-0.203
-988.554,-394.132,-245.787,16.879,18.546,2.636
-1004.337,-394.239,-268.137,17.994,20.381,4.601
-1009.002,-381.123,-266.833,15.698,20.433,5.273
-1032.014,-361.508,-270.404,9.567,18.978,4.665
-1069.556,-331.032,-272.901,2.356,16.511,4.599
-1095.536,-306.010,-274.182,-3.631,13.931,5.402
-1097.007,-297.398,-269.349,-7.682,12.193,6.875
-1094.512,-303.164,-264.559,-11.464,10.758,8.686
-1077.157,-304.504,-260.752,-14.874,8.321,9.308
-1049.000,-299.000,-262.000,-16.800,5.530,9.030
-1011.132,-299.571,-250.222,-17.116,2.545,8.723
-967.406,-316.133,-236.288,-17.741,-0.747,8.739
-943.439,-344.192,-248.391,-18.005,-3.316,9.156
-918.250,-376.180,-251.365,-16.722,-5.568,8.267
-887.650,-397.630,-239.589,-15.512,-6.139,5.986
-882.609,-397.594,-234.585,-13.820,-5.094,2.368
-901.887,-385.695,-234.985,-11.729,-4.580,-0.784
-925.465,-362.935,-228.946,-8.876,-3.364,-1.660
-942.809,-342.711,-218.381,-5.918,-1.481,-1.322
-964.449,-334.433,-221.874,-5.694,-0.221,1.589
-983.578,-333.232,-218.646,-6.845,0.315,5.000
-980.042,-341.379,-205.749,-9.491,0.057,7.146
-976.087,-344.317,-204.766,-14.609,-1.050,9.599
-979.343,-336.836,-205.684,-18.745,-2.525,10.491
-979.000,-333.000,-200.000,-21.140,-3.850,9.940
-971.496,-328.296,-197.219,-23.577,-5.534,9.170
-949.786,-321.096,-207.225,-25.582,-7.174,8.288
-924.996,-325.543,-217.036,-26.943,-8.763,7.467
-900.807,-333.293,-224.596,-27.343,-10.376,6.094
-884.271,-333.525,-236.357,-24.914,-10.808,3.879
-878.883,-330.970,-241.396,-21.950,-11.047,1.386
-875.034,-322.253,-245.763,-21.960,-11.632,0.155
-887.235,-318.699,-261.732,-20.924,-10.716,-0.804
-910.907,-322.662,-269.267,-15.841,-8.466,-1.927
-922.909,-313.439,-262.614,-11.344,-6.041,-1.362
-933.076,-301.659,-267.918,-9.061,-3.789,-0.334
-948.132,-297.152,-268.985,-6.879,-2.651,0.506
-949.955,-295.036,-255.582,-6.619,-2.277,1.665
-948.402,-301.253,-243.054,-8.385,-2.216,2.084
-955.000,-305.000,-229.000,-9.170,-3.010,1.330
-960.573,-301.614,-215.961,-8.847,-3.805,-0.241
-958.924,-296.468,-204.575,-9.325,-4.954,-1.474
-947.438,-288.114,-204.481,-11.043,-6.951,-1.540
-938.265,-286.161,-207.854,-11.890,-8.560,-1.048
-924.371,-291.337,-207.660,-12.470,-10.073,-0.453
-910.967,-300.711,-216.118,-13.971,-11.547,0.319
-906.662,-315.121,-218.930,-14.402,-12.123,0.863
-902.932,-325.608,-221.410,-13.970,-11.999,0.923
-907.984,-326.548,-228.591,-13.131,-11.438,0.512
-906.592,-324.395,-226.563,-11.672,-10.780,-0.108
-902.457,-322.588,-223.963,-10.989,-10.607,0.121
-910.018,-317.362,-223.259,-11.077,-10.825,0.766
-916.385,-316.750,-218.012,-11.973,-11.069,1.612
-919.234,-320.277,-213.836,-13.625,-11.274,3.266
-918.000,-318.000,-217.000,-12.880,-10.710,4.130
-913.849,-312.072,-219.375,-10.367,-9.575,3.929
-907.541,-305.265,-214.465,-10.299,-9.204,4.249
-905.309,-303.727,-212.710,-11.493,-9.372,4.983
-908.309,-306.484,-218.500,-11.355,-9.497,5.176
-906.591,-308.893,-221.013,-10.270,-9.528,4.621
-903.166,-309.680,-218.470,-9.459,-9.723,3.792
-898.593,-304.528,-219.219,-8.824,-9.860,2.944
-894.213,-301.038,-221.066,-7.771,-9.486,2.156
-892.863,-300.522,-217.843,-7.117,-9.110,1.447
-894.880,-296.454,-216.344,-6.372,-8.704,0.549
-900.316,-289.960,-216.882,-5.454,-8.324,-0.171
-904.220,-288.331,-210.040,-5.613,-8.027,-0.082
-906.734,-291.603,-203.719,-6.432,-7.548,0.297
-909.392,-286.832,-200.284,-7.264,-7.243,0.433
