acc_x[mg],acc_y[mg],acc_z[mg],gyro_x[dps],gyro_y[dps],gyro_z[dps]
-547.000,-227.000,-833.000,0.630,-3.360,-0.630
-560.965,-241.642,-877.376,1.978,-3.967,-1.540
-502.615,-212.229,-805.544,3.725,-4.274,-2.374
-546.369,-209.900,-888.248,4.929,-5.132,-3.007
-489.115,-167.663,-817.588,4.677,-4.930,-3.377
-522.072,-162.614,-867.664,2.566,-4.442,-3.425
-492.500,-138.153,-827.949,-0.518,-3.387,-3.438
-497.459,-143.800,-836.120,-3.591,-2.612,-3.340
-500.869,-161.129,-831.172,-6.281,-1.936,-2.910
-494.085,-183.058,-825.819,-7.327,-1.705,-2.415
-507.082,-208.564,-852.929,-5.896,-1.878,-1.962
-501.524,-205.531,-836.760,-2.854,-1.954,-1.255
-519.315,-205.033,-856.392,0.209,-2.202,-0.030
-514.090,-200.686,-839.010,2.389,-2.107,0.897
-529.020,-202.342,-843.929,3.625,-1.939,1.136
-527.000,-198.000,-831.000,3.780,-1.750,1.190
-520.113,-198.070,-824.300,2.918,-1.669,1.132
-520.464,-199.861,-834.049,1.670,-1.749,1.099
-513.395,-195.495,-828.737,0.702,-1.695,1.269
-520.519,-198.733,-844.148,-0.041,-1.458,1.762
-515.755,-195.123,-842.377,-0.567,-1.165,2.128
-521.008,-197.483,-852.276,-0.481,-1.013,2.397
-522.774,-202.023,-855.654,0.213,-0.748,2.823
-523.646,-197.628,-853.965,1.375,-0.566,2.873
-525.608,-188.010,-849.300,2.385,-0.503,3.001
-523.854,-183.557,-844.673,2.698,-0.512,3.311
-521.847,-188.829,-848.825,2.455,-0.595,3.372
-512.874,-194.252,-842.860,1.918,-0.302,3.330
-511.560,-197.642,-841.912,1.639,0.089,3.155
-515.810,-196.660,-835.475,1.499,0.128,2.994
-522.000,-196.000,-828.000,1.050,0.000,2.940
-524.091,-199.161,-823.503,0.775,-0.233,2.891
-523.396,-206.903,-824.265,0.847,-0.540,2.607
-521.852,-215.169,-829.196,1.192,-0.855,2.054
-523.836,-209.806,-830.427,2.065,-1.315,1.614
-528.180,-191.472,-833.153,2.737,-1.763,1.429
-527.382,-178.184,-837.172,2.238,-1.981,1.510
-522.498,-180.748,-844.508,1.105,-1.789,1.688
-518.015,-194.058,-846.254,0.251,-1.295,1.624
-520.618,-200.294,-843.144,0.075,-0.998,1.472
-519.279,-198.959,-843.788,0.509,-1.039,1.581
-517.949,-202.856,-843.248,0.957,-1.245,1.842
-521.583,-203.369,-843.286,1.457,-1.185,2.035
-523.334,-203.692,-843.276,2.178,-1.033,2.110
-523.979,-204.585,-836.927,2.630,-1.137,2.096
-523.000,-199.000,-834.000,2.730,-1.120,2.100
-523.098,-201.875,-837.278,2.680,-1.114,2.163
-520.307,-205.501,-841.965,2.505,-1.021,2.144
-518.202,-198.157,-843.045,2.365,-0.616,1.968
-522.131,-193.573,-840.633,2.166,-0.445,1.826
-520.007,-197.009,-841.294,1.532,-0.354,1.675
-515.552,-203.222,-838.799,0.992,0.035,1.413
-518.318,-204.957,-833.770,1.394,0.361,1.334
-519.238,-204.052,-833.010,2.382,0.235,1.459
-515.389,-203.145,-832.744,2.926,-0.047,1.630
-516.322,-204.934,-835.711,2.816,-0.032,1.821
-519.979,-214.162,-840.676,2.630,0.009,1.640
-521.578,-218.581,-841.917,2.591,0.017,1.035
-525.697,-214.255,-840.096,2.698,0.078,0.611
-531.780,-207.981,-836.459,2.618,-0.023,0.477
-534.000,-202.000,-834.000,2.170,-0.140,0.420
-533.293,-198.599,-832.932,1.739,-0.255,0.367
-529.659,-192.645,-834.960,1.365,-0.398,0.232
-525.521,-183.767,-837.075,1.016,-0.431,0.280
-527.403,-176.719,-836.556,0.321,-0.380,0.624
-526.904,-180.389,-839.627,-0.754,-0.191,0.942
-521.517,-196.862,-845.093,-1.306,0.055,1.053
-514.527,-203.907,-846.898,-0.919,0.299,0.975
-514.429,-199.288,-841.593,0.129,0.485,1.154
-524.243,-197.929,-835.551,0.894,0.403,1.755
-528.337,-199.010,-833.805,1.224,0.180,2.208
-530.692,-206.755,-831.094,1.730,0.143,2.462
-531.225,-213.395,-831.630,2.085,0.070,2.658
-526.554,-203.665,-831.066,2.310,-0.227,2.646
-523.555,-191.753,-827.874,2.247,-0.263,2.773
-520.000,-188.000,-831.000,1.330,-0.140,3.150
-519.712,-188.531,-832.955,0.259,0.025,3.456
-521.018,-192.248,-834.180,-0.277,0.310,3.792
-520.746,-192.617,-835.686,-0.398,0.349,4.214
-521.287,-187.993,-832.920,-0.267,0.403,4.668
-522.287,-182.222,-830.018,-0.433,0.534,5.300
-521.340,-189.850,-830.373,-1.382,0.672,5.817
-516.642,-216.093,-833.208,-2.195,0.847,5.791
-514.048,-232.686,-834.890,-1.766,0.787,5.482
-515.030,-230.461,-837.307,-0.303,0.415,5.313
-521.942,-222.217,-838.543,0.989,-0.193,5.504
-531.279,-207.196,-836.970,0.847,-0.393,5.912
-534.968,-203.083,-839.204,-0.064,-0.159,5.783
-536.171,-215.717,-837.217,-0.778,0.074,4.963
-534.569,-216.199,-828.924,-1.589,0.304,4.072
-533.000,-216.000,-828.000,-1.890,0.210,3.290
-533.359,-221.604,-834.062,-1.220,-0.265,2.558
-528.076,-209.723,-838.430,0.134,-0.749,1.937
-523.867,-199.913,-839.735,1.663,-0.941,1.757
-526.834,-203.773,-843.117,2.581,-1.054,1.852
-528.117,-206.265,-849.525,3.350,-1.294,1.464
-530.933,-202.401,-856.385,4.458,-1.622,0.855
-531.691,-190.927,-860.166,5.207,-1.901,0.468
-523.663,-176.146,-861.875,4.964,-1.838,0.345
-517.727,-162.432,-861.895,3.658,-1.511,0.513
-514.328,-154.933,-855.204,1.438,-0.915,0.671
-511.555,-153.599,-847.514,-1.191,-0.192,0.697
-512.765,-154.720,-842.514,-3.145,0.390,0.552
-512.186,-158.684,-835.548,-4.015,0.799,0.658
-508.732,-169.139,-827.909,-4.011,0.907,1.303
-513.000,-185.000,-822.000,-3.360,0.770,1.890
-521.257,-198.342,-821.279,-1.988,0.425,2.049
-523.666,-205.982,-829.138,0.389,-0.117,1.781
-524.533,-200.809,-835.064,2.775,-0.549,1.571
-521.627,-188.622,-830.468,4.216,-0.658,1.715
-518.273,-182.143,-827.917,4.500,-0.764,1.852
-519.061,-179.908,-830.282,3.433,-0.927,1.784
-516.748,-184.617,-830.082,1.689,-0.745,1.514
-514.194,-192.552,-836.219,0.404,-0.437,1.090
-510.182,-195.892,-845.554,0.287,-0.259,0.569
-506.619,-194.535,-849.925,1.096,0.014,0.521
-508.670,-190.959,-851.393,1.937,0.310,1.065
-513.399,-195.594,-850.157,2.048,0.506,1.463
-519.605,-205.361,-849.941,1.911,0.667,1.384
-519.450,-203.957,-847.315,2.700,0.605,0.814
-515.000,-195.000,-844.000,3.850,0.490,0.490
-510.770,-187.802,-845.713,4.341,0.658,0.611
-507.358,-184.809,-845.641,3.938,0.953,0.725
-512.419,-186.223,-844.099,2.871,1.229,0.805
-518.488,-188.039,-846.752,2.150,1.182,0.471
-520.961,-193.744,-849.109,1.842,1.030,0.274
-526.540,-200.117,-844.306,1.452,1.258,0.456
-533.522,-205.580,-838.840,1.172,1.316,0.405
-538.814,-211.179,-839.875,0.927,0.947,-0.016
-537.328,-198.512,-839.519,0.835,0.455,-0.829
-531.340,-186.301,-837.690,0.691,0.108,-1.137
-528.830,-198.535,-839.087,-0.261,0.082,-0.900
-526.401,-209.179,-842.325,-1.065,-0.005,-1.029
-523.514,-209.181,-842.088,-0.307,-0.315,-1.333
-525.397,-196.922,-836.013,1.183,-0.695,-1.291
-524.000,-173.000,-832.000,1.820,-1.120,-0.770
-516.920,-165.680,-830.863,1.115,-1.220,0.025
-512.763,-182.494,-835.539,-0.305,-0.930,0.479
-510.108,-204.984,-847.967,-0.749,-0.700,-0.040
-507.683,-208.800,-855.377,0.685,-0.521,-0.678
-507.043,-198.125,-851.121,2.659,-0.239,-0.288
-509.622,-196.377,-843.653,3.716,-0.035,0.610
-508.683,-199.355,-843.183,3.922,0.078,0.979
-505.008,-207.381,-843.328,3.921,0.198,0.664
-509.141,-207.022,-837.126,3.879,0.388,0.318
-517.644,-192.366,-834.416,3.621,0.328,0.301
-525.043,-187.509,-831.299,2.594,-0.233,0.796
-527.822,-190.363,-828.913,0.463,-0.390,1.658
-533.217,-214.768,-836.896,-1.565,-0.199,2.052
-535.120,-254.289,-843.995,-2.455,-0.760,1.468
-519.000,-276.000,-856.000,-2.660,-1.470,0.490
-504.043,-287.168,-873.152,-2.045,-1.458,-0.034
-501.883,-284.436,-879.847,-0.016,-0.950,-0.123
-508.567,-266.480,-877.656,2.493,-0.412,0.237
-523.886,-237.868,-866.986,4.816,0.045,0.990
-539.020,-201.575,-849.447,6.798,0.684,1.951
-547.384,-181.297,-828.192,7.124,1.197,3.238
-551.132,-175.635,-815.599,6.554,1.167,4.094
-548.538,-170.321,-814.906,6.572,0.558,4.262
-541.087,-169.883,-819.321,6.429,-0.414,4.432
-538.509,-175.945,-833.437,5.554,-1.207,4.590
-536.145,-179.999,-839.927,3.793,-1.589,4.651
-538.512,-184.586,-838.341,1.957,-1.766,4.481
-548.789,-187.986,-838.736,0.665,-2.210,3.675
-549.343,-182.033,-834.110,-0.908,-2.802,2.574
-544.000,-184.000,-830.000,-2.870,-3.010,1.750
-537.316,-194.801,-828.119,-4.734,-3.170,0.812
-529.944,-198.992,-828.492,-5.773,-3.572,-0.419
-528.794,-197.057,-829.730,-5.376,-4.011,-1.466
-528.104,-189.214,-829.117,-3.860,-4.394,-2.346
-523.828,-184.061,-825.070,-2.180,-4.608,-2.864
-515.929,-187.005,-824.725,-0.594,-4.724,-3.075
-508.617,-188.838,-831.560,1.354,-4.996,-3.705
-506.066,-179.277,-836.773,3.489,-5.247,-4.448
-506.959,-162.415,-836.988,4.970,-5.064,-4.487
-514.038,-159.834,-830.814,4.985,-4.660,-4.166
-523.043,-167.258,-828.376,4.136,-4.467,-4.206
-524.307,-163.655,-831.045,3.130,-4.523,-4.459
-521.485,-154.587,-832.144,1.399,-4.518,-4.679
-524.833,-152.179,-831.780,-1.026,-4.209,-4.761
-528.000,-158.000,-830.000,-3.710,-3.780,-4.760
-527.118,-173.633,-832.263,-6.213,-3.292,-4.771
-524.946,-196.886,-837.017,-7.378,-2.962,-4.682
-517.571,-211.130,-837.528,-6.755,-2.994,-4.814
-517.368,-214.467,-830.415,-5.168,-3.234,-4.904
-521.909,-220.358,-829.171,-3.201,-3.703,-4.829
-517.125,-217.778,-837.620,-1.029,-4.253,-5.122
-507.180,-200.514,-836.517,1.048,-4.633,-5.072
-497.532,-184.835,-829.463,2.032,-4.445,-4.209
-494.075,-177.131,-824.692,1.210,-4.042,-3.310
-493.399,-173.656,-822.510,-0.602,-3.835,-2.706
-492.789,-177.284,-819.808,-2.750,-3.479,-2.268
-495.310,-185.507,-817.694,-4.789,-3.332,-1.981
-497.276,-190.756,-824.945,-5.883,-3.242,-1.745
-496.892,-205.304,-832.844,-6.097,-3.047,-1.399
-498.000,-232.000,-838.000,-5.950,-2.660,-0.840
-503.932,-255.708,-851.145,-4.597,-2.291,-0.821
-509.730,-259.328,-869.154,-1.246,-2.725,-1.537
-513.697,-240.200,-876.914,2.663,-2.883,-1.617
-518.983,-218.927,-879.367,5.404,-2.280,-0.899
-528.203,-197.653,-879.715,6.401,-1.365,-0.161
-542.031,-182.968,-867.641,5.743,-0.342,0.270
-547.972,-181.077,-859.863,3.886,0.400,0.184
-545.065,-186.126,-857.563,1.330,1.007,-0.310
-550.161,-202.046,-846.090,-1.306,1.515,-0.705
-563.471,-215.516,-832.942,-2.988,1.716,-1.108
-572.248,-218.475,-820.352,-3.212,0.878,-1.962
-571.204,-205.907,-816.737,-2.796,-0.622,-2.606
-563.132,-185.546,-817.499,-2.467,-1.909,-2.708
-553.415,-179.051,-813.704,-2.940,-2.829,-2.291
-541.000,-187.000,-819.000,-3.920,-3.150,-1.960
-527.710,-202.391,-831.000,-4.047,-3.667,-2.433
-518.639,-205.554,-844.379,-3.546,-4.203,-2.718
-516.449,-208.996,-851.907,-2.941,-3.898,-2.377
-522.968,-223.143,-847.221,-2.592,-3.167,-2.050
-526.012,-220.532,-840.684,-2.053,-2.678,-2.533
-523.147,-204.448,-835.742,-0.420,-2.796,-3.251
-517.400,-177.822,-830.742,0.560,-3.014,-3.035
-511.100,-164.336,-831.609,-0.612,-2.830,-2.301
-514.646,-188.260,-838.309,-2.918,-2.310,-1.615
-518.224,-219.677,-845.591,-4.645,-1.752,-1.686
-522.510,-243.503,-854.115,-4.476,-1.507,-2.505
-535.138,-246.592,-856.326,-3.008,-1.637,-3.206
-545.868,-227.824,-847.582,-2.502,-1.883,-3.348
-555.477,-218.986,-836.236,-3.661,-1.968,-3.415
-562.000,-227.000,-823.000,-4.970,-2.100,-4.340
-563.748,-240.884,-810.106,-5.584,-2.438,-5.732
-564.650,-251.828,-809.522,-5.117,-3.250,-7.151
-560.512,-249.437,-818.369,-3.459,-4.607,-8.247
-555.521,-229.422,-825.145,-1.924,-5.684,-8.558
-550.316,-205.503,-833.569,-1.051,-6.286,-8.662
-539.043,-190.284,-840.805,-0.662,-6.511,-8.753
-529.591,-183.799,-837.437,-0.789,-6.197,-8.673
-528.019,-183.106,-828.686,-1.030,-5.891,-8.499
-526.029,-179.814,-821.644,-1.411,-5.821,-7.798
-521.273,-179.116,-821.673,-2.014,-5.765,-6.802
-518.522,-185.058,-823.862,-2.528,-5.667,-6.114
-517.826,-192.532,-824.367,-2.636,-5.351,-5.386
-519.844,-200.138,-830.159,-2.062,-4.914,-4.703
-522.263,-207.428,-832.589,-1.133,-4.565,-3.808
-525.000,-221.000,-826.000,-0.770,-4.060,-2.450
-532.740,-230.799,-825.477,-0.864,-3.538,-1.810
-537.895,-226.898,-825.438,-0.410,-3.492,-2.192
-537.532,-215.872,-815.774,0.018,-3.356,-2.733
-538.689,-203.960,-811.896,-0.346,-2.917,-2.936
-538.644,-196.002,-808.853,-1.078,-2.611,-2.911
-539.449,-185.492,-803.136,-2.059,-2.112,-2.636
-540.990,-184.793,-804.240,-3.005,-1.816,-2.132
-539.149,-204.249,-807.657,-3.797,-1.826,-1.709
-538.722,-224.267,-814.098,-4.065,-1.731,-1.335
-539.377,-238.087,-821.922,-2.733,-2.001,-1.063
-537.061,-241.200,-829.822,-0.173,-2.367,-0.818
-533.124,-234.241,-836.044,2.375,-2.487,-0.440
-530.010,-224.378,-836.829,4.137,-2.516,-0.019
-526.540,-206.893,-835.698,4.793,-2.329,0.237
-527.000,-189.000,-832.000,4.480,-1.750,0.490
-531.528,-180.654,-829.208,3.161,-1.005,1.030
-533.298,-177.824,-826.641,1.035,-0.460,1.581
-537.209,-182.676,-820.748,-1.025,0.197,2.173
-541.643,-201.150,-817.675,-2.369,0.702,2.701
-539.688,-217.930,-816.340,-2.711,0.760,2.941
-539.551,-222.164,-816.074,-1.556,0.544,3.131
-543.144,-219.614,-817.107,0.579,-0.048,3.464
-540.437,-212.586,-819.697,2.097,-0.413,3.956
-537.314,-205.611,-822.946,2.776,-0.419,4.245
-543.072,-197.501,-820.498,2.975,-0.428,4.322
-549.241,-189.069,-817.742,2.523,-0.406,4.331
-551.199,-184.331,-820.333,1.908,-0.431,4.212
-547.089,-189.509,-820.164,1.339,-0.264,4.233
-542.830,-213.495,-816.807,0.508,0.028,4.341
-544.000,-239.000,-823.000,0.420,-0.140,3.990
-540.026,-248.916,-838.606,2.047,-0.803,3.032
-535.132,-243.541,-851.396,3.936,-1.269,2.173
-536.668,-233.418,-858.269,4.547,-0.984,1.824
-542.073,-231.678,-863.749,4.283,-0.382,1.116
-548.275,-222.351,-865.258,3.793,0.139,-0.442
-556.132,-204.413,-852.633,3.203,0.902,-1.886
-565.546,-196.711,-830.357,2.219,1.647,-2.791
-566.392,-194.043,-813.890,1.227,1.646,-3.522
-558.993,-198.042,-805.759,1.365,0.883,-3.956
-550.152,-203.318,-806.050,2.179,-0.391,-3.940
-542.784,-192.042,-815.470,2.742,-1.902,-3.652
-540.222,-176.927,-826.441,2.370,-2.809,-3.189
-537.709,-168.505,-832.155,0.357,-2.820,-2.662
-530.869,-156.928,-834.079,-2.393,-2.628,-2.518
-527.000,-146.000,-831.000,-5.460,-2.170,-2.310
-530.430,-151.012,-824.629,-8.941,-1.159,-1.588
-530.661,-180.593,-822.830,-11.767,-0.086,-0.989
-524.166,-219.878,-824.225,-12.719,0.327,-0.955
-521.175,-245.438,-832.067,-10.707,-0.042,-1.299
-525.125,-254.716,-841.856,-6.392,-0.356,-1.060
-532.635,-246.521,-842.163,-1.922,-0.434,-0.210
-536.028,-228.815,-835.339,1.321,-0.411,0.613
-535.884,-216.948,-825.736,3.384,-0.282,0.922
-539.194,-199.840,-818.030,4.161,-0.386,0.566
-540.192,-181.899,-815.123,2.986,-0.401,0.409
-536.304,-173.180,-814.496,0.746,0.072,0.418
-534.621,-166.527,-813.085,-1.494,0.848,0.464
-535.113,-172.616,-813.682,-3.272,1.237,0.583
-536.398,-188.575,-818.888,-4.307,1.181,0.549
-541.000,-208.000,-822.000,-4.410,1.190,0.420
-544.786,-230.393,-822.450,-3.388,0.922,0.071
-544.648,-240.462,-829.342,-1.450,0.288,-0.486
-541.334,-239.920,-834.357,1.558,-0.390,-1.134
-535.741,-229.628,-830.591,4.660,-0.832,-1.201
-529.113,-205.722,-834.742,6.788,-1.225,-1.011
-521.560,-181.100,-836.733,7.538,-1.558,-0.924
-523.722,-169.757,-822.923,5.640,-0.979,-0.376
-536.202,-173.477,-817.796,2.136,-0.294,-0.250
-539.489,-176.865,-819.668,-0.201,-0.433,-0.849
-528.998,-169.401,-815.288,-1.168,-0.503,-1.152
-518.210,-164.622,-817.643,-2.403,-0.244,-0.676
-521.031,-178.995,-824.713,-4.404,0.111,-0.021
-530.553,-203.312,-827.789,-6.012,0.531,-0.023
-535.654,-220.941,-832.891,-5.584,0.514,-0.771
-541.000,-226.000,-833.000,-3.360,-0.000,-1.470
-547.024,-224.760,-822.269,-1.464,-0.387,-1.429
-553.947,-229.298,-822.237,-0.232,-0.596,-1.499
-558.422,-231.054,-836.018,1.435,-1.049,-2.307
-555.484,-218.626,-842.639,3.127,-1.624,-3.321
-549.948,-202.873,-839.124,3.386,-1.848,-3.825
-547.929,-196.853,-838.438,2.405,-1.710,-4.087
-549.087,-179.742,-841.004,1.476,-1.690,-4.820
-548.263,-146.030,-834.046,0.345,-1.881,-5.132
-542.145,-138.215,-819.493,-2.360,-1.775,-4.509
-532.525,-161.836,-814.217,-6.798,-1.309,-4.073
-528.391,-184.017,-819.821,-10.099,-1.209,-4.726
-529.328,-193.166,-821.407,-10.454,-1.587,-5.481
-528.574,-200.255,-818.411,-9.793,-1.783,-4.999
-526.513,-202.678,-823.328,-8.540,-2.019,-4.352
-522.000,-201.000,-831.000,-6.090,-2.380,-4.060
-520.859,-212.790,-834.092,-3.685,-2.272,-3.438
-520.012,-219.821,-845.098,-1.584,-2.247,-3.318
-519.038,-210.708,-857.901,0.606,-2.321,-3.625
-529.838,-200.929,-855.868,2.466,-1.648,-3.333
-537.023,-191.547,-845.533,3.280,-0.885,-2.850
-534.040,-189.787,-832.997,2.516,-0.580,-2.633
-530.784,-198.790,-823.592,1.162,-0.414,-2.671
-528.186,-204.169,-821.991,-0.047,-0.536,-2.800
-525.571,-195.288,-822.006,-1.256,-0.859,-2.614
-524.988,-183.287,-821.144,-2.678,-0.954,-2.146
-531.778,-184.339,-816.951,-4.783,-0.793,-1.734
-538.691,-192.862,-817.284,-6.351,-0.675,-1.764
-544.958,-195.979,-823.705,-6.381,-0.849,-2.143
-546.457,-194.011,-827.903,-5.404,-1.072,-2.217
-539.000,-204.000,-840.000,-3.850,-1.120,-1.890
-533.005,-223.841,-851.977,-1.896,-1.127,-1.568
-524.583,-230.801,-857.840,0.718,-1.019,-1.511
-518.959,-231.768,-863.198,3.507,-0.959,-1.627
-519.193,-224.259,-856.074,5.411,-0.949,-1.740
-521.494,-193.093,-841.017,5.719,-0.610,-1.872
-530.093,-160.417,-826.771,4.397,-0.300,-1.981
-533.928,-138.879,-815.304,1.537,-0.039,-2.029
-530.305,-142.092,-807.571,-2.916,0.573,-1.904
-528.519,-179.820,-802.023,-7.352,1.236,-1.878
-532.644,-219.278,-806.480,-9.544,1.325,-2.482
-537.354,-246.715,-819.167,-8.515,0.608,-3.186
-537.629,-261.835,-832.912,-5.302,-0.194,-3.204
-536.626,-259.737,-842.281,-1.411,-0.834,-2.839
-536.065,-243.578,-848.965,2.898,-1.482,-2.725
-538.000,-215.000,-851.000,6.300,-1.680,-2.520
-538.968,-188.120,-844.933,7.266,-1.455,-2.025
-540.648,-172.602,-839.781,6.230,-0.976,-1.728
-544.356,-168.665,-833.247,4.191,-0.258,-1.589
-540.780,-179.653,-833.925,2.016,0.401,-1.499
-533.620,-197.641,-843.464,0.536,0.855,-1.455
-533.665,-208.723,-846.883,0.117,1.188,-1.355
-537.169,-214.487,-841.319,0.054,1.328,-0.857
-537.104,-222.390,-831.627,-0.265,1.083,-0.296
-535.608,-226.167,-826.451,-0.036,0.604,-0.415
-530.462,-214.508,-825.392,0.829,0.142,-0.635
-521.158,-195.788,-827.484,1.388,-0.142,-0.547
-516.870,-184.790,-829.221,1.000,-0.020,-0.266
-519.427,-179.026,-828.796,-0.415,0.558,0.116
-528.824,-187.484,-827.708,-1.694,1.103,0.476
-540.000,-205.000,-826.000,-2.450,1.120,0.770
-547.697,-213.301,-826.948,-2.441,0.877,0.777
-557.295,-215.833,-825.149,-1.208,0.640,0.841
-562.803,-210.148,-821.791,-0.472,0.360,1.045
-558.739,-206.037,-819.374,-0.821,0.030,0.935
-550.966,-211.795,-815.051,-1.439,-0.204,0.349
-546.384,-216.133,-811.304,-1.840,-0.322,-0.567
-544.816,-206.677,-811.164,-1.173,-0.827,-1.296
-539.605,-185.593,-813.878,-0.000,-1.626,-1.299
-530.394,-169.684,-814.544,0.423,-2.123,-0.491
-520.078,-170.538,-819.618,-0.286,-2.164,0.149
-513.779,-191.148,-831.867,-1.189,-1.986,-0.132
-512.862,-207.402,-844.027,-1.049,-1.780,-0.790
-512.746,-212.059,-851.913,-0.077,-1.433,-1.200
-509.095,-212.534,-856.495,0.968,-1.237,-1.159
-503.000,-208.000,-855.000,1.190,-0.770,-0.910
-506.393,-213.582,-846.262,0.796,0.273,-0.930
-517.504,-217.827,-839.338,0.961,0.953,-1.462
-523.113,-208.678,-829.130,1.440,1.171,-2.049
-528.118,-200.640,-816.204,1.493,1.138,-1.954
-535.568,-200.448,-808.686,0.872,0.823,-1.562
-539.695,-201.115,-807.111,-0.176,0.178,-1.691
-543.295,-208.093,-810.365,-1.115,-0.454,-2.132
-545.077,-225.900,-817.261,-1.732,-0.806,-2.552
-543.227,-229.442,-827.883,-1.376,-1.437,-3.030
-543.054,-213.755,-833.932,-0.090,-2.082,-2.844
-541.084,-194.703,-836.837,0.731,-2.422,-1.953
-534.600,-188.408,-842.679,0.436,-2.531,-1.464
-528.196,-195.619,-846.882,-0.525,-2.249,-1.408
-523.283,-204.760,-849.467,-1.260,-1.648,-1.571
-519.000,-222.000,-853.000,-1.400,-1.050,-1.610
-517.071,-235.528,-852.762,-1.138,-0.621,-1.521
-516.841,-233.322,-844.966,-0.347,-0.304,-1.788
-518.650,-231.647,-836.525,0.347,-0.359,-2.128
-523.377,-233.661,-834.626,0.409,-0.411,-2.828
-525.808,-227.353,-833.847,0.636,-0.354,-3.753
-533.451,-216.899,-825.783,1.044,-0.535,-4.173
-542.363,-211.764,-822.184,0.954,-0.638,-4.119
-543.040,-207.540,-825.980,0.465,-0.884,-4.055
-543.159,-198.793,-821.549,-0.103,-1.112,-4.092
-540.261,-194.640,-817.061,-0.460,-1.163,-3.859
-533.166,-193.789,-816.470,-0.813,-1.502,-3.730
-522.965,-183.621,-815.863,-1.609,-1.735,-3.420
-517.466,-181.141,-819.493,-2.632,-1.638,-2.602
-519.063,-192.056,-826.235,-3.635,-1.520,-1.858
-515.000,-209.000,-836.000,-3.920,-1.260,-1.260
-512.617,-228.825,-846.487,-2.745,-0.775,-0.771
-517.496,-237.185,-854.285,-0.504,-0.367,-0.295
-527.356,-238.240,-852.352,2.010,-0.133,0.267
-537.668,-230.437,-845.593,3.931,-0.029,1.129
-537.708,-224.726,-845.285,5.063,0.041,1.764
-532.951,-231.158,-842.426,5.807,0.279,1.716
-529.879,-223.771,-832.208,6.013,0.581,1.767
-531.600,-204.585,-824.473,5.705,0.708,2.014
-537.787,-182.258,-817.064,5.036,0.383,2.235
-540.958,-165.189,-809.875,3.332,0.106,2.668
-539.716,-172.181,-813.324,0.830,0.229,3.089
-536.255,-189.597,-821.225,-0.954,0.144,2.945
-535.050,-201.080,-826.272,-1.666,0.187,2.690
-536.004,-211.608,-830.878,-1.537,0.171,2.738
-533.000,-217.000,-840.000,-0.700,-0.280,2.660
-528.381,-210.377,-848.085,0.510,-0.491,2.632
-527.703,-204.674,-840.620,1.525,-0.404,2.955
-528.221,-208.797,-832.445,1.754,-0.237,3.232
-527.045,-218.781,-834.275,1.561,-0.224,2.873
-525.418,-230.153,-835.057,1.503,-0.161,2.190
-526.597,-236.687,-839.413,2.197,-0.069,1.515
-530.267,-232.227,-842.939,3.290,-0.144,0.788
-532.820,-218.200,-836.784,3.835,-0.198,0.187
-536.074,-204.359,-824.893,3.638,-0.480,-0.477
-538.572,-196.904,-814.979,2.316,-0.760,-1.087
-534.749,-196.271,-820.399,0.881,-0.995,-1.828
-527.724,-200.592,-835.688,0.300,-1.133,-2.616
-525.042,-212.815,-843.297,-0.026,-0.750,-2.683
-531.414,-230.469,-846.549,-0.116,-0.406,-2.603
-539.000,-242.000,-848.000,0.560,-0.630,-2.800
-540.052,-256.215,-840.676,2.094,-0.774,-2.919
-539.654,-267.724,-830.781,4.186,-0.922,-3.168
-534.963,-246.298,-827.261,6.958,-1.739,-3.505
-526.308,-214.628,-825.396,9.403,-2.366,-3.290
-521.913,-198.186,-822.352,9.660,-2.754,-2.610
-522.424,-176.376,-831.111,7.774,-3.014,-2.280
-526.420,-160.512,-841.199,5.025,-2.531,-2.147
-533.347,-161.586,-834.821,1.754,-1.617,-1.533
-543.307,-171.610,-826.315,-2.066,-0.736,-0.841
-555.272,-195.113,-819.473,-4.839,-0.693,-0.835
-566.657,-218.473,-810.617,-5.907,-1.376,-1.210
-572.212,-238.202,-809.974,-6.427,-2.451,-1.403
-565.615,-257.247,-817.671,-5.984,-3.845,-1.773
-550.514,-266.331,-826.297,-3.861,-4.905,-2.498
-535.000,-253.000,-836.000,-0.980,-5.880,-3.150
-520.943,-215.037,-847.694,1.439,-6.452,-3.383
-510.648,-184.718,-849.121,1.904,-5.849,-2.982
-508.298,-174.529,-835.781,-0.299,-4.419,-2.525
-512.623,-177.298,-825.598,-3.305,-2.989,-2.675
-515.105,-194.780,-820.716,-4.962,-2.103,-3.082
-512.136,-210.377,-811.691,-4.796,-1.578,-3.095
-511.100,-212.917,-805.891,-3.440,-1.409,-2.537
-512.116,-211.976,-807.782,-1.608,-1.784,-1.871
-508.075,-212.894,-809.078,-0.188,-2.085,-1.152
-506.244,-212.067,-809.694,0.438,-2.158,-0.569
-511.636,-208.994,-818.401,1.287,-2.366,-0.413
-514.608,-208.107,-831.334,2.127,-2.069,0.114
-517.673,-211.076,-834.510,2.196,-1.166,0.939
-527.618,-214.696,-829.214,1.907,-0.215,1.548
-533.000,-224.000,-829.000,1.540,0.350,1.750
-532.628,-236.210,-835.263,1.434,0.353,1.332
-537.944,-233.405,-836.166,1.937,0.483,1.083
-541.994,-223.715,-832.183,2.547,0.660,1.331
-538.027,-225.558,-828.475,2.185,0.834,1.828
-534.061,-231.266,-821.072,1.471,1.283,2.164
-537.220,-224.228,-822.551,1.410,1.278,1.968
-541.025,-214.750,-830.398,1.153,1.123,1.981
-535.729,-218.505,-833.621,0.832,1.315,2.355
-527.013,-223.084,-841.824,1.343,1.482,2.646
-526.381,-229.496,-848.552,2.297,1.858,3.103
-529.708,-235.747,-852.396,3.918,2.180,3.486
-530.047,-230.825,-855.265,6.045,2.155,3.671
-535.285,-225.543,-847.492,7.134,2.450,4.177
-539.998,-217.389,-835.198,7.542,2.830,4.679
-533.000,-210.000,-824.000,7.420,2.800,5.040
-526.071,-211.835,-813.351,6.226,2.793,5.372
-529.511,-205.979,-808.214,5.153,2.704,5.303
-530.166,-180.480,-814.167,4.698,2.278,5.291
-519.996,-157.287,-818.847,3.956,2.275,6.059
-520.401,-165.352,-814.239,1.837,2.931,7.311
-530.821,-181.790,-820.657,-0.401,3.220,7.538
-531.911,-193.284,-829.182,-1.215,3.075,6.650
-533.682,-218.720,-827.116,-1.275,3.146,5.991
-535.589,-244.152,-830.199,-0.782,2.934,5.319
-531.532,-253.018,-837.087,0.580,2.245,4.357
-527.634,-236.954,-835.230,2.877,1.530,3.491
-524.980,-208.070,-824.898,4.328,0.951,3.135
-524.930,-191.600,-820.813,3.560,0.621,2.983
-521.061,-188.244,-822.044,1.538,0.489,2.142
-517.000,-197.000,-821.000,-0.770,0.770,1.050
-520.269,-208.947,-820.918,-2.262,1.124,-0.034
-524.582,-211.450,-822.117,-2.590,0.768,-1.051
-529.964,-210.475,-824.736,-2.179,0.091,-1.571
-535.570,-211.525,-824.046,-1.561,-0.583,-1.997
-536.700,-210.040,-827.355,-0.938,-1.344,-2.500
-532.650,-209.081,-837.086,-0.289,-2.038,-2.982
-526.621,-207.574,-844.591,0.006,-2.548,-3.381
-524.035,-196.931,-851.732,-0.231,-2.670,-3.439
-525.217,-190.812,-850.068,-1.306,-2.396,-3.302
-528.653,-202.516,-848.776,-3.094,-2.054,-3.430
-526.246,-221.282,-853.622,-4.626,-1.844,-4.160
-518.900,-230.492,-850.010,-4.960,-1.673,-5.088
-520.714,-231.149,-842.866,-4.422,-1.621,-5.542
-527.937,-233.154,-837.394,-3.628,-1.886,-5.697
-531.000,-226.000,-837.000,-2.240,-2.520,-5.950
-531.830,-209.032,-836.619,-0.728,-3.107,-5.988
-532.474,-201.153,-832.307,-0.149,-3.208,-5.664
-528.791,-195.299,-833.802,-0.620,-3.343,-5.640
-523.564,-187.719,-837.420,-1.400,-3.398,-5.786
-525.310,-191.441,-837.647,-2.226,-2.959,-5.560
-526.509,-195.346,-836.718,-3.150,-2.706,-5.470
-520.479,-198.507,-834.748,-4.065,-2.571,-5.445
-516.151,-207.321,-829.451,-5.107,-2.259,-5.128
-514.482,-216.912,-827.072,-5.724,-2.160,-5.204
-512.332,-231.846,-832.917,-5.452,-2.191,-5.812
-511.803,-235.577,-835.822,-4.285,-2.096,-6.189
-511.745,-222.107,-836.368,-2.569,-2.008,-6.046
-510.490,-215.529,-838.456,-1.447,-2.029,-5.703
-510.206,-219.960,-839.152,-1.169,-1.743,-5.432
-514.000,-225.000,-842.000,-0.840,-1.190,-5.460
-518.421,-223.144,-844.314,0.008,-1.045,-5.720
-523.001,-213.104,-837.132,0.439,-0.956,-5.541
-529.254,-207.549,-824.367,-0.592,-0.512,-4.641
-531.224,-218.799,-822.279,-2.298,-0.288,-3.885
-531.026,-231.527,-823.717,-3.038,-0.419,-3.928
-532.206,-232.625,-820.025,-2.491,-0.600,-3.819
-533.148,-232.082,-817.963,-2.263,-0.785,-2.929
-537.514,-233.084,-818.838,-2.834,-1.028,-2.014
-543.795,-228.142,-821.388,-2.929,-1.335,-1.445
-547.578,-219.681,-824.176,-2.723,-1.535,-0.890
-546.641,-222.807,-829.104,-2.785,-1.459,-0.214
-540.947,-236.845,-834.008,-2.501,-1.227,0.213
-535.608,-247.026,-839.833,-1.275,-1.236,0.278
-532.674,-246.268,-841.593,0.469,-1.509,0.290
-532.000,-239.000,-835.000,1.820,-1.610,0.490
-532.298,-229.645,-829.572,2.694,-1.659,0.803
-527.860,-218.029,-826.467,3.221,-1.800,0.990
-523.331,-204.071,-825.464,3.222,-1.802,1.264
-522.134,-194.297,-823.084,2.278,-1.634,1.751
-518.688,-204.236,-820.180,0.100,-1.215,2.305
-521.152,-224.348,-821.500,-2.180,-0.866,2.498
-522.743,-237.640,-824.207,-2.853,-0.923,1.976
-517.253,-237.653,-824.317,-2.038,-1.049,1.482
-518.118,-226.873,-817.527,-1.274,-0.955,1.564
-520.684,-222.759,-813.680,-1.049,-0.787,1.636
-521.513,-223.597,-814.047,-0.749,-0.801,1.264
-524.533,-227.115,-814.161,0.150,-0.861,0.757
-527.640,-232.647,-819.089,1.448,-0.954,0.391
-526.579,-239.045,-828.583,2.630,-1.148,0.095
-526.000,-239.000,-836.000,3.920,-1.260,-0.140
-532.831,-221.056,-835.240,4.908,-1.321,-0.099
-537.748,-206.460,-836.529,4.810,-1.350,0.063
-537.430,-198.159,-839.790,3.579,-1.180,0.047
-536.503,-191.434,-836.043,1.440,-0.663,0.177
-537.551,-200.699,-831.625,-0.700,-0.083,0.438
-537.549,-220.416,-830.938,-2.371,0.164,0.473
-534.913,-233.715,-829.859,-3.325,0.133,0.342
-536.754,-243.131,-828.909,-3.139,0.013,0.345
-538.807,-253.076,-832.017,-1.976,-0.256,0.323
-539.681,-252.926,-835.243,-0.271,-0.688,0.145
-539.174,-251.795,-836.434,1.527,-1.041,0.217
-537.483,-247.652,-837.145,3.094,-1.289,0.301
-539.964,-237.407,-838.435,3.586,-1.302,0.403
-542.340,-236.161,-838.769,3.316,-1.177,0.577
-546.000,-234.000,-834.000,2.940,-1.120,0.700
-547.448,-233.889,-827.712,2.044,-0.936,1.223
-542.672,-243.143,-824.465,1.249,-0.915,1.835
-537.630,-244.385,-823.353,0.964,-1.184,2.193
-534.767,-240.190,-826.492,0.854,-1.503,2.654
-535.076,-241.784,-840.401,0.745,-1.739,3.038
-531.630,-238.363,-853.526,1.157,-1.493,3.113
-526.857,-229.252,-848.153,2.257,-0.704,3.792
-527.051,-215.548,-838.551,3.166,-0.090,4.780
-523.418,-190.522,-830.471,3.761,-0.057,5.215
-517.658,-163.064,-819.423,3.815,0.039,5.868
-512.891,-144.358,-810.327,2.447,0.633,6.874
-507.621,-153.571,-800.619,-0.228,1.581,7.986
-506.072,-186.788,-800.226,-1.728,2.323,8.408
-509.929,-212.708,-805.468,-1.003,2.258,8.168
-518.000,-219.000,-806.000,0.350,1.890,8.330
-526.759,-218.933,-807.777,1.892,1.645,8.520
-534.106,-232.045,-808.360,2.769,1.412,8.573
-539.316,-243.002,-813.262,3.311,1.055,7.835
-542.098,-236.757,-822.814,5.058,0.379,6.551
-543.287,-218.819,-828.872,6.379,-0.144,5.911
-544.057,-194.837,-834.051,5.594,-0.178,5.519
-542.812,-185.152,-835.985,3.296,0.261,5.388
-539.352,-196.794,-835.038,0.783,0.944,5.036
-533.531,-207.134,-835.677,-0.343,1.084,3.939
-528.291,-200.506,-835.152,-0.084,1.006,3.366
-528.537,-190.097,-826.603,-0.172,1.106,3.670
-528.715,-185.566,-817.657,-1.166,0.957,3.919
-529.556,-189.481,-817.602,-2.211,0.945,3.738
-530.939,-200.271,-820.474,-2.130,1.045,3.011
-527.000,-200.000,-824.000,-0.910,0.770,2.240
-519.930,-201.275,-825.895,0.223,0.389,2.035
-517.097,-214.598,-828.007,0.953,0.242,1.894
-521.049,-215.178,-836.429,1.903,0.019,1.195
-520.417,-203.289,-843.925,3.239,-0.467,0.140
-514.923,-199.427,-842.459,3.648,-0.482,-0.403
-514.885,-211.748,-839.817,2.082,-0.149,-0.653
-527.397,-223.294,-843.516,-0.218,-0.155,-1.569
-544.220,-216.222,-852.264,-1.123,-0.523,-2.982
-546.809,-196.851,-860.116,-0.965,-0.898,-3.728
-543.574,-178.423,-860.151,-2.067,-0.664,-3.264
-542.234,-176.464,-852.549,-4.577,0.017,-2.427
-545.010,-195.741,-844.921,-7.125,0.536,-1.789
-549.788,-217.313,-842.279,-8.642,0.478,-1.862
-547.435,-224.424,-835.323,-8.773,0.078,-2.275
-545.000,-228.000,-823.000,-8.260,-0.420,-2.170
-539.235,-232.493,-817.884,-7.681,-1.375,-1.982
-534.358,-237.849,-821.238,-6.443,-2.307,-1.807
-537.356,-247.222,-826.645,-4.045,-2.968,-1.663
-532.961,-240.581,-831.709,-1.132,-3.676,-1.485
-521.247,-221.889,-841.161,1.955,-4.238,-0.906
-509.140,-208.544,-852.038,4.449,-4.413,0.243
-499.600,-201.639,-857.241,5.489,-4.250,1.637
-500.619,-197.316,-858.156,5.180,-3.888,2.605
-504.606,-196.700,-854.070,3.980,-3.332,3.188
-506.003,-202.110,-850.581,2.251,-3.004,3.597
-508.529,-194.049,-848.286,-0.401,-2.718,4.159
-511.611,-190.274,-846.001,-2.955,-1.842,4.885
-518.055,-208.700,-841.660,-4.664,-0.830,5.619
-521.106,-229.072,-829.015,-5.360,-0.035,6.229
-524.000,-249.000,-822.000,-3.430,0.280,6.510
-531.398,-252.213,-816.545,0.431,-0.280,6.922
-531.528,-229.356,-807.535,4.134,-1.181,7.345
-531.645,-206.979,-810.012,6.490,-1.707,7.490
-533.227,-202.571,-814.332,7.226,-1.630,7.140
-531.018,-204.161,-813.284,6.951,-1.120,6.193
-529.423,-200.779,-815.007,6.301,-0.807,5.482
-523.406,-192.106,-824.975,5.926,-0.763,5.082
-518.108,-178.928,-833.847,5.269,-0.461,4.950
-519.277,-172.141,-831.734,3.729,0.224,5.516
-522.863,-186.175,-828.951,1.785,1.096,5.870
-529.507,-222.998,-820.773,0.461,1.759,5.334
-539.878,-243.842,-814.951,0.960,1.829,4.741
-547.690,-233.297,-820.778,2.642,1.102,4.514
-551.775,-220.170,-820.654,4.105,0.178,4.573
-559.000,-207.000,-823.000,4.970,0.070,4.690
-561.412,-197.708,-827.338,5.568,0.272,4.682
-558.362,-193.928,-821.255,6.226,0.311,4.864
-557.362,-193.315,-815.498,6.484,0.418,5.210
-552.940,-199.297,-811.072,6.351,0.151,5.365
-549.021,-198.854,-804.567,6.135,-0.136,5.263
-548.909,-200.459,-805.033,5.924,-0.267,5.046
-545.539,-209.560,-812.513,6.036,-0.739,4.660
-537.629,-213.672,-814.183,6.160,-1.040,4.535
-532.166,-220.569,-813.669,6.149,-1.242,4.804
-533.169,-219.453,-823.117,6.294,-1.723,4.721
-534.704,-197.505,-833.962,6.805,-2.384,4.544
-537.728,-168.735,-840.662,7.251,-2.906,4.784
-542.087,-146.847,-844.553,6.317,-2.772,5.239
-544.276,-139.216,-842.455,4.003,-2.385,5.388
-545.000,-133.000,-841.000,1.190,-1.750,5.390
-540.189,-148.746,-845.803,-1.514,-1.044,5.271
-532.634,-195.837,-854.017,-3.699,-0.743,4.300
-529.379,-223.620,-856.900,-4.728,-0.293,3.232
-531.023,-230.532,-851.481,-3.286,-0.189,2.679
-529.432,-223.920,-850.677,0.157,-0.894,2.199
-523.992,-199.864,-852.615,3.085,-1.672,2.068
-525.440,-177.710,-842.965,3.595,-1.646,2.642
-533.371,-170.696,-831.579,2.419,-1.143,2.835
-539.448,-181.485,-826.550,0.930,-1.055,2.029
-539.962,-196.039,-826.239,-0.567,-0.978,1.242
-541.073,-206.846,-830.851,-0.991,-1.135,0.557
-543.686,-205.767,-830.980,-0.341,-1.417,0.175
-540.326,-201.902,-828.504,0.447,-1.396,0.101
-535.450,-208.295,-829.215,1.150,-1.580,-0.190
-533.000,-217.000,-831.000,1.820,-1.820,-0.560
-531.819,-225.470,-834.359,2.567,-2.230,-1.225
-535.256,-222.374,-839.140,2.995,-2.662,-1.733
-540.087,-210.221,-844.759,3.256,-2.784,-2.026
-540.447,-195.963,-844.433,3.122,-2.505,-2.265
-537.826,-182.412,-836.119,2.295,-1.688,-2.197
-535.452,-176.339,-825.389,1.303,-0.982,-2.045
-532.771,-180.869,-815.401,0.197,-0.372,-1.566
-530.134,-198.420,-810.323,-0.541,0.001,-1.201
-529.711,-217.888,-804.547,-0.285,-0.259,-1.046
-531.291,-234.096,-800.480,1.079,-0.698,-0.783
-532.304,-238.300,-806.787,3.380,-1.669,-0.844
-530.945,-222.607,-815.944,5.379,-2.871,-0.688
-528.174,-199.502,-826.742,5.460,-3.089,0.062
-528.423,-192.551,-838.290,3.816,-2.375,0.966
-534.000,-202.000,-839.000,1.610,-1.330,1.400
-541.023,-203.401,-833.674,-0.171,-0.557,1.118
-545.694,-203.390,-828.487,-1.052,-0.306,0.757
-544.724,-210.577,-819.902,-2.261,-0.232,0.648
-544.548,-224.339,-818.453,-3.715,-0.214,0.533
-547.631,-240.479,-821.612,-3.851,-0.354,-0.115
-541.757,-248.056,-820.784,-2.650,-0.632,-1.025
-533.677,-248.717,-823.353,-0.839,-1.016,-1.488
-533.801,-238.983,-826.899,0.683,-1.567,-1.547
-537.064,-229.297,-826.484,1.464,-1.946,-1.419
-540.234,-221.598,-823.365,1.543,-1.869,-1.454
-536.467,-205.920,-819.858,1.443,-1.827,-1.703
-528.584,-197.681,-817.932,1.826,-1.914,-1.873
-527.634,-192.820,-812.777,1.875,-1.743,-1.739
-532.818,-185.348,-805.013,1.117,-1.617,-1.334
-534.000,-190.000,-804.000,0.140,-1.890,-1.050
-530.834,-203.114,-813.908,-0.755,-2.160,-1.207
-536.919,-212.545,-825.443,-0.822,-2.086,-1.442
-544.115,-215.699,-826.961,-0.107,-1.950,-1.092
-541.934,-219.541,-829.145,0.287,-2.021,-0.636
-539.239,-224.018,-838.335,0.543,-2.117,-0.560
-539.084,-218.817,-840.570,0.789,-1.977,-0.551
-540.068,-207.105,-837.883,0.611,-1.733,-0.483
-540.031,-196.690,-836.292,0.378,-1.496,-0.308
-541.151,-191.389,-830.402,-0.361,-0.992,0.336
-545.009,-200.297,-825.881,-1.474,-0.372,1.264
-545.889,-218.085,-822.591,-1.967,-0.074,1.546
-543.715,-233.761,-821.087,-1.765,-0.140,1.389
-541.373,-241.958,-826.879,-0.603,-0.465,1.195
-541.094,-235.595,-829.090,0.927,-0.818,1.143
-541.000,-232.000,-834.000,2.380,-1.050,1.540
-538.376,-231.220,-842.585,3.381,-1.122,1.921
-537.881,-219.675,-840.534,3.255,-1.048,2.129
-543.686,-209.253,-836.110,2.499,-0.714,2.178
-552.450,-200.097,-829.395,0.998,-0.274,1.943
-557.004,-196.794,-818.982,-0.314,-0.081,1.680
-556.186,-198.282,-809.606,-0.776,0.105,1.815
-547.036,-201.443,-798.240,-0.983,-0.111,2.035
-536.419,-207.653,-794.756,-0.967,-0.789,1.969
-535.500,-212.236,-801.023,-1.388,-1.405,1.818
-537.220,-220.266,-810.111,-1.195,-1.916,1.394
-539.586,-216.583,-818.681,0.355,-2.140,0.953
-541.048,-208.650,-821.629,2.162,-2.318,1.013
-539.440,-210.499,-826.022,4.142,-2.265,1.465
-537.548,-201.347,-833.960,6.259,-2.367,1.505
-533.000,-179.000,-835.000,7.630,-2.730,1.330
-531.010,-169.029,-833.051,6.961,-2.390,1.536
-530.305,-183.312,-833.031,4.249,-2.028,1.206
-531.483,-200.149,-833.204,1.028,-1.683,0.468
-539.592,-218.668,-833.727,-0.780,-1.112,-0.294
-543.475,-231.175,-827.878,-0.801,-0.989,-1.139
-544.549,-221.895,-820.180,-0.636,-1.066,-1.506
-550.658,-213.767,-807.755,-0.863,-1.297,-1.630
-559.519,-210.574,-796.056,-1.172,-2.156,-2.239
-559.159,-198.397,-804.389,-1.154,-3.055,-3.108
-548.096,-187.437,-808.530,-0.553,-3.237,-3.187
-542.560,-189.548,-802.654,-0.285,-3.529,-2.727
-541.562,-196.530,-809.955,-0.773,-3.889,-2.567
-542.427,-209.806,-822.596,-1.337,-3.820,-2.764
-541.497,-220.731,-833.727,-1.537,-3.863,-3.421
-539.000,-220.000,-844.000,-1.190,-3.780,-4.270
-543.272,-220.115,-849.680,-0.776,-3.432,-4.464
-545.715,-217.920,-848.655,-1.070,-2.859,-3.934
-548.204,-223.657,-841.738,-1.608,-2.303,-3.616
-553.587,-239.388,-832.921,-1.593,-2.096,-3.765
-555.209,-245.539,-823.088,-1.106,-2.176,-4.153
-558.000,-238.620,-815.560,-0.257,-2.646,-4.453
-563.370,-228.370,-810.658,0.848,-3.027,-4.475
-565.940,-223.223,-807.140,1.457,-3.204,-4.293
-567.296,-222.391,-807.407,1.429,-3.443,-4.014
-569.975,-225.694,-809.700,1.316,-3.714,-4.060
-568.236,-223.759,-808.768,1.107,-4.087,-4.215
-566.474,-219.383,-808.651,0.693,-4.413,-4.343
-562.903,-217.221,-817.194,0.064,-4.682,-4.530
-550.988,-217.872,-824.598,-0.666,-4.365,-4.531
-540.000,-232.000,-826.000,-1.120,-3.220,-4.200
-528.965,-245.368,-827.935,-0.671,-2.207,-3.751
-517.218,-242.315,-825.063,0.931,-1.663,-3.550
-513.565,-231.921,-818.583,2.851,-1.286,-2.862
-517.268,-231.346,-815.466,4.167,-0.912,-1.665
-521.578,-239.251,-813.050,4.720,-0.423,-0.725
-527.464,-246.147,-815.012,5.627,0.101,0.018
-532.249,-243.206,-820.307,7.421,0.284,0.689
-536.466,-228.945,-821.944,8.708,0.459,1.784
-545.045,-223.596,-824.048,8.561,0.944,3.161
-552.301,-224.780,-828.266,7.230,1.416,4.131
-559.443,-222.227,-832.238,5.955,2.242,4.854
-564.726,-222.682,-834.119,5.597,3.038,5.814
-566.176,-222.067,-830.152,5.614,3.515,7.168
-564.428,-216.181,-822.734,5.678,4.159,8.713
-561.000,-217.000,-813.000,5.670,4.620,10.220
-562.782,-222.762,-804.021,5.924,4.876,11.234
-560.290,-221.392,-797.424,6.694,4.879,11.916
-552.995,-223.555,-789.622,7.339,4.782,12.869
-549.290,-234.191,-787.895,7.867,4.877,13.665
-547.265,-237.849,-789.029,8.862,4.585,13.893
-545.198,-210.794,-789.008,10.364,4.124,13.982
-538.351,-169.542,-786.475,11.366,4.152,14.719
-531.354,-157.567,-774.160,10.579,4.701,16.187
-528.320,-172.828,-761.617,8.035,5.474,17.578
-527.731,-204.820,-759.108,6.149,5.658,17.926
-527.479,-233.235,-770.359,6.939,4.949,17.201
-524.148,-244.214,-787.457,8.602,4.170,16.770
-523.457,-261.622,-803.258,9.285,3.882,16.638
-529.180,-278.289,-825.605,9.697,3.940,15.683
-536.000,-272.000,-841.000,11.200,4.130,14.210
-534.106,-250.521,-839.829,13.505,4.580,13.391
-527.933,-230.351,-833.486,14.516,5.413,13.592
-532.664,-219.219,-824.831,13.650,6.112,13.928
-544.295,-212.319,-820.470,11.636,6.470,14.045
-557.275,-208.345,-821.069,9.572,6.750,13.887
-572.190,-213.928,-819.306,8.190,6.865,13.391
-581.449,-220.217,-816.897,7.063,6.779,12.995
-584.071,-220.090,-816.921,6.396,6.539,12.632
-579.659,-219.699,-817.963,6.117,6.029,12.166
-574.087,-223.657,-816.406,5.461,5.390,11.551
-574.779,-238.552,-812.658,4.266,4.907,10.783
-574.187,-259.497,-814.884,3.553,4.471,9.785
-572.343,-271.951,-817.637,4.689,3.703,8.482
-566.677,-261.806,-808.221,7.209,2.537,7.441
-558.000,-234.000,-804.000,9.660,1.260,7.000
-555.200,-206.903,-808.240,10.419,0.073,6.814
-552.883,-183.197,-800.557,8.504,-0.517,6.649
-551.243,-174.420,-792.008,5.327,-0.636,6.311
-552.629,-188.845,-793.407,2.436,-0.984,5.604
-550.440,-206.699,-797.340,0.442,-1.286,4.821
-546.265,-212.205,-800.667,0.059,-1.650,4.107
-546.087,-208.457,-805.557,0.840,-2.214,3.370
-546.086,-197.087,-812.735,1.341,-2.762,2.517
-547.329,-186.933,-811.011,0.533,-3.073,1.790
-557.964,-194.399,-810.696,-0.737,-3.130,1.320
-568.479,-206.694,-819.095,-1.037,-3.741,0.481
-568.382,-209.469,-820.430,-0.740,-4.340,-0.295
-557.942,-214.515,-820.200,-0.136,-4.672,-0.821
-543.929,-224.106,-821.222,0.302,-5.076,-1.881
-531.000,-225.000,-828.000,0.280,-4.970,-3.360
-518.637,-224.161,-840.814,0.737,-4.896,-4.799
-509.290,-215.705,-843.631,1.316,-4.727,-5.469
-504.234,-194.062,-848.560,1.934,-4.047,-5.177
-511.188,-196.228,-858.502,2.613,-3.289,-4.286
-520.641,-212.754,-856.789,2.432,-2.188,-3.177
-525.399,-226.518,-849.029,2.276,-1.169,-2.814
-535.866,-236.996,-837.985,2.687,-1.233,-3.346
-541.983,-220.939,-826.484,2.629,-1.917,-4.080
-539.285,-199.973,-826.637,1.734,-2.230,-4.609
-531.010,-189.204,-831.019,-0.107,-2.158,-4.869
-517.045,-183.229,-830.000,-2.643,-1.687,-4.846
-507.857,-185.384,-836.205,-4.825,-1.101,-4.509
-507.683,-185.649,-846.087,-6.288,-0.977,-4.040
-514.485,-184.962,-845.514,-7.624,-0.776,-3.290
-525.000,-184.000,-845.000,-8.610,-0.210,-2.380
-526.852,-186.626,-847.209,-8.498,0.168,-1.816
-519.203,-199.765,-840.943,-7.813,0.532,-1.350
-514.031,-216.196,-827.343,-7.211,1.021,-0.927
-515.608,-225.600,-820.817,-6.066,0.827,-1.077
-523.184,-222.087,-820.193,-4.407,0.026,-1.593
-530.318,-208.199,-812.819,-3.107,-0.728,-1.851
-535.374,-193.170,-806.844,-2.433,-1.537,-1.973
-538.855,-191.483,-807.814,-3.042,-2.390,-2.276
-541.617,-201.285,-810.412,-4.759,-3.082,-2.846
-549.040,-215.146,-812.570,-6.565,-3.701,-3.624
-555.326,-237.931,-818.484,-8.390,-4.551,-4.759
-559.942,-255.966,-833.208,-9.341,-5.590,-6.570
-560.016,-249.203,-844.285,-8.723,-6.461,-8.285
-552.710,-229.512,-848.559,-7.931,-6.890,-9.101
-545.000,-227.000,-851.000,-8.610,-6.790,-9.380
-540.955,-234.232,-850.896,-9.907,-6.425,-9.995
-543.310,-224.730,-851.606,-9.896,-6.175,-11.073
-543.336,-211.385,-846.440,-9.149,-6.204,-11.658
-540.259,-201.406,-836.050,-9.248,-6.182,-11.639
-538.450,-195.462,-826.861,-10.489,-5.898,-11.515
-541.195,-207.945,-827.277,-11.450,-5.724,-11.715
-546.156,-219.351,-835.457,-11.142,-5.742,-12.292
-544.239,-220.839,-835.333,-10.164,-5.741,-12.537
-543.000,-223.607,-830.903,-9.190,-5.741,-12.226
-541.359,-225.886,-827.525,-8.580,-5.702,-11.766
-538.278,-236.862,-832.142,-7.462,-5.625,-11.731
-537.354,-240.749,-840.774,-5.840,-5.564,-11.851
-533.462,-222.228,-836.912,-4.392,-5.403,-11.550
-528.091,-207.909,-837.016,-3.253,-5.215,-10.863
-522.000,-208.000,-848.000,-3.570,-4.690,-10.010
-522.974,-212.610,-857.066,-4.805,-3.506,-9.501
-529.392,-210.600,-859.868,-5.616,-2.096,-9.118
-528.120,-202.362,-854.322,-5.823,-0.809,-8.565
-523.804,-201.159,-843.098,-5.902,0.324,-7.784
-523.066,-197.108,-828.293,-6.454,1.515,-6.602
-524.029,-188.994,-817.634,-6.542,2.491,-5.726
-522.976,-198.541,-798.951,-6.786,3.131,-5.046
-528.931,-224.846,-772.417,-8.096,3.814,-4.181
-547.874,-249.029,-763.628,-8.560,3.671,-3.938
-569.013,-261.716,-757.280,-7.277,2.237,-4.188
-584.641,-265.184,-747.997,-5.272,0.422,-4.035
-593.116,-261.507,-753.034,-3.904,-1.415,-3.565
-598.227,-255.222,-768.232,-3.269,-3.150,-3.316
-598.799,-251.633,-786.744,-3.013,-4.245,-3.296
-600.000,-251.000,-800.000,-3.430,-4.690,-3.430
-606.568,-254.299,-807.014,-4.091,-4.939,-3.670
-602.697,-258.237,-813.720,-4.876,-5.120,-4.021
-590.040,-259.421,-821.318,-5.392,-5.351,-4.707
-579.499,-253.449,-827.865,-5.022,-5.516,-5.331
-570.938,-239.116,-828.066,-4.234,-5.379,-5.592
-564.307,-228.305,-822.194,-3.496,-5.112,-5.445
-554.101,-226.065,-813.345,-3.218,-4.812,-4.855
-543.664,-227.950,-806.440,-3.229,-4.871,-4.554
-535.161,-224.780,-801.450,-2.954,-5.360,-4.431
-525.383,-216.711,-803.988,-2.675,-5.645,-3.911
-517.299,-208.906,-813.024,-2.779,-5.630,-3.428
-514.823,-198.190,-809.412,-3.516,-5.174,-2.607
-522.031,-199.526,-804.840,-4.830,-4.408,-1.440
-532.474,-212.906,-808.358,-5.848,-4.116,-1.130
-541.000,-221.000,-807.000,-6.020,-3.990,-1.190
-546.697,-230.192,-811.381,-5.283,-3.845,-1.113
-546.366,-240.424,-821.820,-4.025,-3.927,-1.188
-546.518,-242.163,-826.370,-2.293,-3.793,-1.139
-549.573,-240.648,-826.739,-0.091,-3.716,-1.139
-551.434,-247.618,-827.729,1.159,-3.948,-1.258
-552.026,-251.005,-831.566,1.666,-4.069,-1.775
-554.498,-231.935,-827.316,2.278,-4.061,-2.411
-568.447,-206.504,-817.684,2.344,-4.179,-2.464
-588.452,-192.888,-807.785,1.330,-4.575,-2.142
-598.808,-186.240,-796.687,-0.826,-5.044,-1.623
-599.610,-193.334,-795.062,-3.155,-5.339,-1.397
-595.479,-232.948,-795.779,-5.338,-5.596,-1.874
-589.021,-278.962,-799.188,-6.910,-6.020,-3.510
-585.983,-302.757,-813.532,-6.599,-6.433,-6.000
-590.000,-316.000,-825.000,-4.270,-7.000,-8.610
-601.450,-298.589,-818.554,-1.074,-7.740,-10.836
-619.065,-248.071,-801.729,1.244,-8.407,-11.606
-623.566,-207.010,-800.021,2.209,-9.433,-11.592
-609.175,-188.657,-807.246,1.691,-10.083,-11.367
-599.380,-188.616,-810.015,-0.052,-9.596,-10.562
-593.096,-195.540,-816.540,-2.191,-9.003,-9.698
-583.282,-201.470,-817.752,-4.356,-8.643,-9.218
-576.306,-209.142,-814.122,-6.171,-7.848,-8.983
-576.566,-226.361,-814.085,-7.654,-6.891,-8.608
-583.464,-248.191,-810.735,-7.532,-6.271,-8.518
-584.419,-245.526,-797.437,-5.024,-5.905,-8.787
-581.536,-221.754,-780.757,-1.916,-6.172,-8.927
-575.377,-188.555,-771.663,-0.075,-6.820,-8.825
-568.581,-152.615,-762.526,-0.568,-6.795,-8.280
-570.000,-146.000,-761.000,-2.380,-6.090,-7.280
-565.240,-165.882,-776.520,-3.343,-5.471,-6.403
-560.113,-179.830,-786.566,-2.897,-4.884,-5.657
-558.696,-179.959,-786.251,-1.380,-4.416,-4.329
-551.872,-175.859,-785.666,0.206,-4.433,-2.655
-548.089,-178.623,-789.339,0.693,-3.867,-1.004
-546.540,-195.829,-802.371,1.003,-2.881,0.013
-543.664,-211.608,-812.363,2.789,-2.186,0.544
-535.797,-210.513,-812.251,5.964,-1.391,1.642
-527.668,-202.405,-807.464,9.187,-0.657,3.216
-526.813,-189.833,-801.215,11.394,0.089,5.164
-526.834,-173.698,-799.917,12.679,0.690,6.801
-526.185,-148.158,-803.710,13.247,1.303,7.952
-516.806,-112.489,-802.346,12.536,2.324,9.526
-502.080,-95.374,-794.032,9.722,3.932,11.889
-496.000,-103.000,-798.000,5.670,5.880,14.490
-503.497,-112.321,-807.921,2.596,7.352,16.342
-522.553,-116.183,-799.814,0.447,8.770,18.064
-536.059,-132.054,-785.807,-1.671,9.739,19.650
-541.443,-160.104,-782.578,-3.230,9.953,20.448
-550.699,-174.727,-786.031,-3.109,10.116,20.986
-573.404,-162.812,-780.090,-0.820,9.589,21.496
-603.165,-131.727,-760.228,1.596,8.286,22.746
-624.210,-126.642,-735.863,1.728,6.707,24.657
-617.685,-192.192,-720.759,-1.082,4.952,25.273
-568.163,-300.819,-756.366,-4.138,2.613,22.485
-495.514,-379.882,-842.702,-2.425,0.359,16.328
-444.461,-407.105,-909.035,3.516,0.287,10.479
-456.238,-409.931,-929.120,9.207,1.695,7.151
-502.890,-359.887,-935.810,13.583,2.518,4.654
-537.000,-236.000,-930.000,17.360,2.800,2.730
-556.462,-100.633,-895.875,18.521,3.475,3.304
-561.584,-9.356,-851.599,13.427,4.774,6.138
-569.655,24.501,-821.254,2.937,6.388,9.190
-578.121,9.750,-815.974,-8.205,7.900,10.940
-577.547,-45.641,-824.261,-17.091,8.657,11.032
-581.298,-126.105,-831.777,-23.079,8.719,10.736
-585.050,-201.135,-845.484,-25.438,8.108,10.458
-581.476,-257.473,-867.492,-23.306,6.582,9.423
-578.091,-291.642,-877.796,-17.268,4.655,7.722
-585.985,-290.749,-869.231,-9.604,2.744,5.833
-594.126,-261.057,-858.457,-2.793,1.238,4.209
-596.275,-233.205,-844.313,1.974,0.204,2.377
-591.666,-205.714,-824.927,4.025,-0.292,0.301
-582.612,-177.542,-806.154,3.416,-0.367,-1.355
-569.000,-168.000,-789.000,1.190,-0.700,-2.870
-543.662,-177.529,-777.207,-1.903,-1.127,-4.274
-526.604,-191.229,-774.061,-4.465,-1.682,-5.654
-519.532,-185.188,-784.453,-5.325,-2.727,-6.930
-518.310,-168.126,-796.269,-5.849,-3.611,-7.457
-522.458,-160.556,-801.461,-7.769,-3.605,-7.516
-527.960,-168.772,-802.500,-10.375,-3.097,-7.913
-544.631,-198.963,-797.762,-12.195,-2.631,-8.836
-565.572,-239.186,-801.374,-11.969,-2.561,-10.173
-580.707,-266.626,-805.841,-8.941,-3.325,-11.681
-587.545,-276.709,-799.415,-4.691,-4.364,-12.672
-590.638,-279.434,-800.383,-0.920,-5.510,-13.519
-589.317,-258.178,-816.659,1.954,-6.966,-14.853
-583.231,-219.563,-834.608,3.279,-7.731,-15.816
-580.831,-191.250,-842.704,2.561,-7.292,-16.027
-579.000,-170.000,-845.000,0.140,-6.230,-15.750
-577.085,-164.217,-841.221,-3.119,-5.078,-15.096
-577.502,-171.814,-832.958,-6.352,-3.979,-14.359
-578.904,-177.357,-827.391,-8.769,-3.352,-13.651
-577.866,-180.912,-821.181,-10.155,-3.297,-12.848
-574.487,-186.169,-814.419,-10.842,-3.280,-11.853
-569.603,-187.100,-808.648,-11.085,-3.421,-10.833
-562.416,-177.164,-803.669,-11.053,-3.729,-9.862
-554.577,-171.108,-798.549,-10.991,-3.789,-8.711
-550.404,-170.725,-789.990,-10.921,-3.567,-7.279
-555.918,-175.610,-782.231,-10.345,-3.325,-5.823
-557.347,-192.819,-776.623,-9.152,-3.303,-4.576
-550.663,-215.746,-778.054,-7.468,-3.451,-3.584
-545.350,-234.023,-792.267,-4.619,-3.868,-3.134
-539.098,-230.995,-809.406,-0.349,-4.316,-2.791
-537.000,-212.000,-822.000,3.640,-4.340,-2.030
-538.915,-191.802,-828.574,5.461,-3.955,-0.962
-537.265,-178.836,-829.285,5.176,-3.030,0.273
-533.401,-179.738,-828.494,3.859,-1.833,0.836
-533.357,-180.724,-829.919,2.336,-0.767,0.600
-533.761,-177.258,-833.009,1.005,0.418,0.513
-534.672,-168.354,-831.799,0.098,1.780,0.897
-541.689,-161.053,-821.032,-0.865,2.864,1.681
-551.199,-174.234,-812.256,-2.337,3.406,2.544
-563.048,-198.337,-812.356,-3.375,3.539,2.690
-574.124,-211.078,-815.150,-3.026,3.140,2.106
-580.206,-202.916,-815.387,-1.439,2.451,1.678
-584.912,-192.588,-813.284,0.342,1.985,1.624
-585.473,-194.633,-817.830,1.162,1.670,1.821
-584.196,-203.731,-819.815,0.916,1.621,1.766
-589.000,-215.000,-821.000,0.840,1.610,1.050
-587.376,-219.045,-828.464,1.550,1.249,0.132
-577.837,-216.882,-826.292,2.258,1.004,-0.547
-574.005,-207.519,-818.910,2.447,0.896,-0.587
-570.938,-193.921,-812.315,1.995,0.571,-0.438
-568.128,-184.652,-809.752,1.261,0.245,-0.535
-566.618,-172.682,-809.073,0.508,0.136,-0.546
-567.233,-158.030,-799.110,-0.593,0.218,-0.321
-570.030,-151.043,-792.097,-2.174,0.222,0.174
-565.684,-155.577,-794.608,-3.875,-0.016,0.469
-558.872,-168.973,-800.538,-4.996,-0.123,0.595
-554.162,-188.527,-801.923,-5.476,0.049,0.893
-549.495,-209.440,-803.598,-4.991,-0.042,0.947
-540.838,-226.287,-813.231,-3.058,-0.622,0.529
-533.480,-230.662,-820.783,-0.435,-1.092,-0.085
-535.000,-225.000,-823.000,1.890,-1.120,-0.350
-537.719,-223.163,-821.134,3.340,-0.997,-0.333
-538.963,-219.356,-824.276,4.382,-0.887,-0.588
-539.145,-211.241,-832.481,5.692,-0.669,-0.873
-545.538,-200.148,-832.719,6.592,-0.229,-0.897
-557.364,-183.758,-828.178,6.186,0.216,-0.785
-567.134,-174.998,-825.434,4.603,0.356,-0.704
-576.714,-174.043,-821.543,2.407,0.352,-0.935
-584.524,-178.271,-813.629,-0.087,0.358,-1.178
-588.786,-191.973,-807.699,-2.416,0.098,-1.431
-587.697,-209.973,-804.467,-4.048,-0.328,-1.970
-587.055,-227.245,-800.975,-4.631,-0.822,-2.501
-591.075,-236.824,-804.665,-4.139,-1.739,-3.481
-594.681,-232.103,-811.554,-2.943,-2.846,-4.770
-593.516,-221.971,-811.668,-1.549,-3.669,-5.454
-590.000,-223.000,-811.000,-0.490,-4.130,-5.810
-585.269,-218.838,-814.720,0.622,-4.601,-6.407
-575.483,-192.527,-811.223,2.060,-5.137,-6.906
-570.170,-163.499,-801.278,2.566,-5.450,-6.788
-565.178,-139.901,-800.961,1.474,-5.774,-6.523
-553.380,-126.833,-803.496,-0.722,-5.681,-6.213
-547.030,-126.265,-807.604,-3.198,-5.018,-5.575
-540.201,-127.112,-817.761,-5.010,-4.439,-4.840
-527.887,-132.246,-823.829,-6.157,-3.775,-3.931
-519.728,-146.917,-823.646,-6.950,-2.782,-2.797
-518.960,-173.209,-820.339,-7.211,-1.670,-1.684
-521.846,-201.576,-820.830,-6.412,-0.984,-1.221
-526.184,-214.196,-821.055,-4.022,-0.755,-1.289
-533.381,-209.242,-814.930,-0.593,-0.595,-0.961
-539.670,-198.329,-811.829,2.501,-0.645,-0.317
-541.000,-189.000,-810.000,4.200,-0.560,0.420
-541.507,-185.811,-807.105,4.618,-0.134,1.122
-546.841,-187.365,-809.113,4.495,0.168,1.295
-552.988,-183.845,-816.575,4.176,0.277,1.226
-556.549,-177.638,-825.578,3.704,0.503,1.601
-558.289,-172.185,-834.384,2.820,0.974,2.309
-557.737,-174.793,-842.113,1.469,1.648,2.923
-558.206,-186.926,-839.423,-0.280,2.514,3.311
-565.115,-194.752,-830.683,-1.693,3.065,3.490
-578.906,-193.200,-820.649,-1.796,2.973,3.648
-587.911,-178.528,-810.631,-1.210,2.318,4.084
-585.331,-161.147,-807.324,-0.655,1.428,5.126
-581.347,-160.794,-801.573,-0.523,0.957,6.261
-575.071,-186.577,-800.110,-1.162,0.541,6.300
-559.150,-227.004,-813.736,-1.801,-0.001,5.062
-543.000,-254.000,-831.000,-1.330,-0.350,2.940
-538.489,-250.714,-839.713,0.772,-0.768,0.747
-544.792,-213.368,-838.292,3.256,-1.181,-0.340
-549.937,-166.286,-832.601,3.824,-1.277,-0.321
-552.426,-144.632,-820.344,2.018,-0.782,0.072
-558.784,-154.824,-808.065,-0.665,-0.149,0.013
-566.792,-178.210,-804.933,-2.546,-0.013,-0.881
-573.358,-193.770,-808.471,-2.920,-0.318,-1.885
-574.187,-198.916,-814.718,-2.237,-0.992,-2.549
-571.446,-197.643,-814.674,-1.503,-1.685,-3.036
-569.239,-195.438,-812.538,-1.223,-2.241,-3.644
-565.465,-193.516,-814.731,-1.135,-2.769,-4.668
-562.872,-187.932,-821.217,-0.962,-3.167,-5.863
-559.988,-178.523,-825.154,-0.965,-3.300,-6.839
-559.215,-165.094,-821.364,-1.617,-3.193,-7.314
-561.000,-162.000,-820.000,-2.870,-2.870,-7.280
-560.169,-174.094,-817.654,-4.246,-2.366,-7.197
-558.461,-181.820,-815.281,-4.758,-2.248,-7.406
-551.223,-180.183,-818.642,-3.947,-2.463,-7.527
-543.096,-174.838,-819.840,-2.982,-2.540,-6.934
-540.256,-171.563,-818.247,-2.847,-2.468,-5.892
-540.140,-176.825,-818.160,-3.128,-2.151,-5.008
-541.007,-185.675,-820.191,-2.981,-1.797,-4.528
-540.057,-194.370,-821.946,-2.491,-1.495,-4.354
-541.209,-200.463,-822.072,-1.858,-1.184,-4.040
-544.693,-200.698,-821.266,-1.065,-0.896,-3.447
-547.837,-198.947,-820.533,-0.311,-0.584,-2.949
-551.904,-200.072,-821.180,0.310,-0.460,-2.688
-556.175,-203.932,-820.535,0.407,-0.385,-2.312
-559.521,-200.902,-820.154,0.537,-0.270,-1.811
-564.000,-193.000,-822.000,0.770,-0.280,-1.260
-567.832,-190.857,-822.060,0.546,-0.232,-0.758
-567.769,-192.440,-822.533,0.012,-0.026,-0.440
-570.005,-194.013,-822.788,-1.067,0.326,-0.161
-573.521,-197.789,-816.164,-1.664,0.619,0.004
-575.983,-210.993,-804.499,-1.696,0.544,0.074
-577.942,-220.551,-799.943,-1.464,-0.032,-0.262
-572.348,-212.035,-803.261,0.001,-0.825,-0.716
-564.484,-203.268,-804.897,1.534,-1.368,-0.644
-558.468,-202.073,-808.536,2.080,-1.751,-0.559
-552.415,-201.761,-813.925,2.022,-1.919,-0.554
-549.332,-202.673,-815.624,1.912,-1.805,-0.641
-546.216,-202.503,-818.204,1.818,-1.714,-0.876
-543.616,-200.367,-818.339,1.530,-1.532,-1.010
-546.919,-200.146,-814.409,1.578,-1.211,-1.047
-554.000,-201.000,-812.000,1.960,-0.980,-0.980
-557.138,-198.030,-812.549,2.612,-0.967,-0.927
-554.683,-189.083,-816.158,3.232,-1.045,-0.720
-554.263,-181.380,-817.496,3.140,-1.003,-0.477
-558.122,-182.298,-819.100,2.443,-0.719,-0.357
-560.453,-184.571,-821.105,1.571,-0.238,-0.253
-560.997,-186.748,-817.949,1.030,0.040,-0.290
-559.855,-191.405,-813.661,0.669,0.229,-0.196
-558.928,-197.486,-808.385,0.356,0.418,-0.071
-560.752,-202.146,-806.410,0.570,0.278,-0.079
-559.628,-197.821,-809.695,1.272,-0.028,0.011
-554.579,-191.985,-812.594,2.154,-0.282,0.218
-549.988,-193.652,-817.242,2.695,-0.365,0.635
-547.386,-200.124,-822.633,2.867,-0.331,0.990
-547.162,-205.672,-828.962,3.496,-0.178,1.144
-550.000,-210.000,-832.000,4.410,-0.000,1.400
-553.617,-215.242,-831.836,5.080,0.060,1.767
-555.454,-220.720,-831.973,5.796,0.098,2.046
-557.019,-227.950,-828.686,6.437,-0.066,2.191
-555.302,-225.966,-833.939,6.877,-0.126,2.284
-552.388,-211.840,-835.030,7.079,0.091,2.340
-556.150,-196.986,-821.877,6.408,0.233,2.609
-556.684,-191.051,-814.689,4.985,0.366,2.955
-551.216,-196.510,-808.645,3.158,0.732,2.891
-553.407,-201.005,-801.704,1.495,1.155,2.502
-559.266,-207.660,-800.097,0.948,1.062,1.886
-559.016,-213.399,-799.252,1.153,0.668,1.215
-557.939,-210.208,-798.768,1.683,0.341,0.872
-563.226,-212.586,-801.316,2.396,-0.073,0.696
-569.560,-214.464,-809.447,3.324,-0.663,0.180
-568.000,-201.000,-817.000,4.620,-1.330,-0.350
-561.332,-174.969,-821.375,5.430,-1.670,-0.481
-550.641,-157.381,-824.134,5.048,-1.541,-0.586
-541.441,-162.137,-822.383,3.122,-0.905,-0.753
-541.851,-167.437,-822.349,0.548,-0.017,-1.222
-540.991,-164.723,-821.940,-1.008,0.635,-1.937
-540.268,-162.509,-815.159,-1.767,1.067,-2.275
-542.062,-162.255,-809.752,-2.427,1.347,-2.227
-543.633,-171.937,-807.189,-2.856,1.528,-2.036
-551.153,-183.039,-806.354,-2.682,1.578,-2.249
-557.134,-183.171,-810.430,-1.744,1.279,-2.848
-563.114,-181.575,-812.585,-0.834,0.931,-3.107
-571.468,-187.474,-813.971,-0.582,0.764,-3.031
-576.097,-190.161,-817.936,-0.528,0.440,-3.044
-579.447,-176.228,-817.812,-0.317,0.097,-3.349
-582.000,-163.000,-818.000,-0.490,-0.140,-3.710
-587.910,-160.137,-818.212,-2.079,-0.223,-4.113
-592.246,-161.097,-816.167,-4.709,-0.130,-4.799
-590.904,-170.663,-809.116,-7.317,-0.253,-5.577
-595.064,-188.765,-795.970,-9.688,-0.501,-6.445
-599.913,-213.265,-796.580,-11.087,-1.373,-7.643
-594.734,-222.670,-810.064,-11.178,-3.062,-8.952
-578.434,-214.629,-819.546,-9.944,-4.416,-9.606
-557.436,-220.948,-825.580,-8.273,-5.080,-9.473
-543.110,-232.383,-830.939,-7.883,-5.307,-9.254
-535.974,-240.213,-832.344,-7.851,-5.322,-9.300
-535.714,-252.741,-823.273,-7.399,-5.363,-9.552
-538.649,-254.549,-818.375,-6.619,-5.791,-9.883
-531.749,-242.607,-823.410,-4.952,-6.348,-9.973
-521.850,-227.716,-822.420,-3.390,-6.151,-9.301
-517.000,-214.000,-820.000,-2.800,-5.530,-8.330
-514.067,-207.101,-821.693,-3.047,-4.869,-7.708
-516.666,-209.632,-821.964,-3.905,-4.213,-7.244
-526.617,-212.999,-817.530,-4.735,-3.789,-6.975
-539.148,-216.171,-815.445,-4.853,-3.505,-6.665
-541.057,-224.564,-815.320,-4.301,-3.417,-6.169
-537.673,-230.710,-810.996,-3.601,-3.456,-5.610
-540.290,-228.575,-812.490,-2.484,-3.821,-5.154
-542.872,-221.497,-821.307,-1.136,-4.255,-4.800
-544.600,-218.057,-828.806,-0.286,-4.286,-4.103
-546.111,-216.121,-831.950,0.311,-4.175,-3.386
-548.571,-205.619,-830.347,0.626,-3.769,-2.763
-550.618,-197.301,-824.760,0.354,-3.328,-2.279
-552.899,-195.650,-816.251,-0.715,-3.066,-2.278
-555.066,-198.269,-809.109,-2.626,-2.652,-2.498
-555.000,-219.000,-805.000,-4.340,-2.100,-3.080
-560.885,-247.769,-806.161,-4.727,-1.865,-3.994
-565.045,-259.401,-812.984,-3.214,-2.230,-4.748
-565.071,-253.633,-817.629,-0.663,-2.682,-5.064
-566.235,-240.962,-816.138,1.231,-3.076,-4.921
-563.921,-232.834,-808.929,1.967,-3.234,-4.688
-564.331,-226.862,-807.748,1.851,-3.111,-4.735
-566.317,-211.781,-810.788,2.232,-2.842,-5.063
-577.703,-203.079,-796.640,2.754,-2.587,-5.067
-588.743,-204.407,-780.774,1.600,-2.949,-4.657
-579.588,-209.295,-781.250,-0.066,-3.382,-4.879
-580.145,-216.734,-770.290,-1.588,-3.457,-5.683
-597.337,-204.257,-749.431,-2.738,-3.823,-6.228
-611.354,-186.016,-746.890,-1.971,-4.982,-6.461
-611.681,-184.435,-749.009,-1.217,-6.434,-5.956
-594.000,-189.000,-753.000,-2.800,-7.490,-5.040
-579.863,-198.909,-769.264,-4.956,-8.030,-4.646
-578.323,-214.969,-785.242,-5.810,-7.949,-4.499
-580.293,-233.837,-802.197,-5.997,-7.987,-4.579
-577.356,-239.741,-819.250,-6.112,-8.207,-4.996
-573.241,-235.631,-829.043,-5.578,-7.987,-5.213
-576.776,-232.584,-836.451,-4.485,-7.630,-5.170
-572.196,-217.570,-838.966,-3.186,-7.403,-5.177
-561.599,-205.251,-837.142,-2.022,-6.984,-4.875
-555.407,-206.900,-836.561,-1.532,-6.065,-4.211
-549.362,-212.393,-839.981,-1.154,-4.925,-3.558
-546.565,-217.208,-843.081,-0.474,-3.815,-2.857
-542.387,-206.458,-836.772,0.070,-3.070,-2.209
-536.339,-186.784,-829.863,0.197,-2.429,-1.161
-533.919,-179.378,-832.543,-0.043,-1.444,-0.087
-536.000,-170.000,-827.000,-0.280,-0.280,0.560
-541.132,-157.331,-805.392,-0.737,1.016,1.697
-547.012,-165.439,-787.185,-1.395,1.806,2.657
-553.546,-182.883,-774.365,-1.675,1.930,3.021
-561.423,-199.197,-771.908,-0.985,1.737,3.243
-569.294,-219.712,-788.672,1.300,0.955,3.174
-567.755,-229.587,-804.511,3.525,-0.061,3.160
-564.003,-224.398,-810.295,4.051,-0.505,3.056
-567.608,-217.476,-812.102,3.560,-0.681,2.507
-573.325,-209.560,-808.744,2.657,-0.852,1.677
-580.016,-198.212,-807.141,1.922,-0.691,0.821
-579.242,-191.317,-803.729,1.499,-0.597,0.271
-576.285,-180.796,-792.120,0.791,-0.481,0.096
-581.131,-168.929,-784.202,-0.692,-0.478,0.044
-589.165,-177.337,-777.726,-2.872,-1.006,-0.297
-594.000,-191.000,-770.000,-4.900,-1.610,-1.190
-597.931,-205.006,-773.158,-5.811,-2.489,-2.351
-603.705,-223.232,-790.116,-5.183,-3.612,-3.360
-594.690,-225.621,-812.579,-3.643,-4.491,-4.227
-579.719,-219.515,-830.069,-2.041,-4.935,-4.819
-575.012,-208.983,-834.994,-1.090,-4.936,-5.189
-573.632,-197.143,-827.736,-1.366,-4.796,-5.745
-571.856,-197.313,-819.537,-2.632,-4.686,-6.428
-570.938,-200.049,-815.243,-3.914,-4.692,-7.342
-572.671,-195.780,-813.152,-4.721,-4.544,-8.204
-572.700,-189.861,-812.976,-5.645,-4.283,-8.610
-569.235,-198.198,-817.960,-6.763,-3.999,-9.067
-560.280,-212.713,-828.125,-7.193,-3.431,-9.834
-556.041,-213.850,-827.314,-6.501,-3.101,-10.657
-560.657,-206.899,-821.168,-5.837,-3.077,-11.003
-562.000,-202.000,-813.000,-5.880,-3.080,-10.990
-562.315,-203.223,-806.430,-5.454,-3.315,-11.162
-556.512,-209.854,-813.962,-4.564,-3.444,-11.377
-551.842,-215.148,-811.097,-3.878,-2.936,-11.357
-557.051,-216.304,-807.548,-2.958,-2.327,-10.919
-556.798,-214.525,-807.021,-2.152,-2.565,-10.349
-555.161,-205.710,-794.201,-2.025,-3.001,-9.586
-558.204,-199.705,-793.391,-1.794,-3.086,-8.528
-558.164,-191.128,-793.543,-1.841,-3.155,-7.443
-556.234,-179.116,-786.859,-2.828,-2.851,-6.110
-554.917,-186.244,-793.604,-3.794,-2.316,-5.056
-551.874,-195.927,-806.046,-4.716,-1.680,-4.566
-551.427,-202.581,-808.208,-5.414,-0.938,-4.133
-557.431,-213.470,-804.092,-5.248,-0.557,-3.754
-567.666,-224.681,-806.614,-4.170,-0.499,-3.640
-577.000,-232.000,-806.000,-1.890,-0.770,-3.570
-582.466,-233.619,-805.468,1.126,-1.307,-3.088
-584.136,-233.096,-821.917,4.242,-1.930,-2.839
-584.545,-210.245,-829.054,6.555,-2.315,-2.843
-590.746,-181.472,-812.963,6.674,-2.240,-2.095
-591.539,-177.138,-807.487,4.646,-2.309,-1.525
-581.318,-187.794,-812.052,1.895,-2.452,-2.068
-572.522,-197.599,-804.384,-0.430,-2.215,-2.612
-568.266,-206.218,-806.199,-1.769,-2.027,-2.844
-563.540,-212.757,-814.592,-1.906,-2.241,-3.235
-557.813,-204.755,-815.898,-1.423,-2.419,-3.222
-561.544,-201.907,-826.149,-0.758,-2.237,-2.839
-568.281,-201.432,-828.690,-0.022,-1.990,-2.482
-568.726,-196.354,-822.925,0.638,-1.751,-1.904
-567.847,-200.576,-823.973,1.650,-1.689,-1.416
-567.000,-196.000,-815.000,2.590,-1.750,-1.050
-568.715,-189.878,-799.755,2.384,-1.684,-0.430
-568.215,-194.388,-791.493,1.145,-1.729,-0.278
-564.334,-204.646,-787.438,-0.210,-1.751,-0.891
-564.315,-218.793,-787.829,-1.159,-1.807,-1.474
-562.350,-233.659,-795.774,-1.666,-2.070,-2.096
-557.126,-242.794,-805.606,-1.407,-2.270,-2.903
-559.472,-237.331,-804.499,-0.729,-2.310,-3.384
-565.641,-231.285,-797.338,-0.494,-2.366,-3.682
-569.365,-225.909,-796.588,-0.353,-2.651,-4.103
-570.123,-217.723,-796.773,-0.012,-2.917,-4.456
-566.971,-209.793,-794.989,0.056,-2.887,-4.672
-571.132,-203.304,-796.656,-0.445,-2.730,-4.814
-581.028,-216.171,-793.164,-1.300,-2.638,-4.970
-590.219,-237.877,-793.127,-1.481,-2.696,-5.503
-591.000,-250.000,-808.000,-0.280,-3.290,-6.300
-580.340,-249.404,-818.444,1.830,-3.948,-6.822
-576.121,-236.587,-818.999,3.729,-4.000,-6.828
-574.768,-222.137,-813.575,4.228,-4.034,-6.413
-574.020,-209.584,-805.986,3.545,-4.020,-6.357
-574.685,-200.727,-801.088,2.489,-3.861,-6.683
-570.956,-190.816,-795.779,0.937,-3.632,-6.470
-566.609,-191.825,-795.365,-0.586,-3.103,-5.829
-560.419,-205.316,-805.085,-1.492,-2.495,-5.222
-558.432,-209.004,-814.113,-1.879,-1.935,-4.722
-561.957,-220.471,-816.361,-1.722,-1.454,-4.315
-567.874,-241.577,-822.430,-1.093,-0.935,-4.081
-574.754,-249.337,-828.660,0.212,-0.572,-3.849
-577.289,-243.142,-822.953,2.197,-0.477,-3.333
-578.236,-232.315,-811.337,4.172,-0.498,-2.972
-580.000,-221.000,-803.000,4.830,-0.490,-2.730
-579.347,-214.589,-795.327,3.871,-0.310,-2.684
-577.728,-222.434,-787.484,2.089,-0.125,-3.174
-579.335,-225.816,-784.056,-0.281,0.013,-3.729
-580.040,-223.504,-779.869,-2.352,-0.070,-4.039
-584.877,-232.587,-769.274,-4.011,-0.170,-3.892
-592.982,-244.503,-761.013,-5.762,-0.457,-3.798
-585.942,-254.771,-764.583,-6.500,-1.018,-4.004
-572.740,-262.685,-771.584,-5.278,-1.375,-4.066
-564.915,-261.750,-777.850,-2.680,-1.739,-3.737
-555.653,-251.317,-788.093,0.109,-2.023,-2.913
-552.282,-236.062,-796.572,2.948,-2.205,-2.463
-560.870,-217.230,-797.994,5.203,-2.202,-2.262
-572.230,-206.308,-784.619,5.573,-2.078,-1.963
-579.777,-208.800,-773.450,4.580,-2.211,-1.974
-582.000,-213.000,-775.000,3.500,-2.660,-2.030
-585.299,-211.665,-771.479,2.129,-3.231,-1.991
-586.293,-209.304,-774.355,-0.363,-3.392,-1.655
-575.460,-220.319,-787.608,-3.131,-3.200,-1.431
-565.356,-238.936,-800.093,-4.975,-2.712,-1.533
-562.862,-254.174,-806.093,-5.475,-2.235,-1.517
-568.932,-260.133,-805.931,-4.609,-2.084,-1.460
-572.796,-255.598,-809.486,-3.012,-2.107,-1.479
-565.485,-252.273,-814.928,-1.007,-2.115,-1.727
-565.946,-244.281,-807.878,1.149,-1.764,-1.900
-576.331,-229.665,-790.659,2.982,-1.595,-1.791
-582.606,-224.891,-785.829,4.339,-1.942,-1.718
-576.674,-231.397,-786.994,4.880,-2.483,-1.609
-566.171,-236.102,-789.920,4.516,-2.630,-1.436
-561.714,-242.258,-800.435,3.787,-2.240,-1.586
-563.000,-248.000,-803.000,2.520,-1.820,-1.820
-567.596,-248.413,-803.506,0.851,-1.389,-1.810
-567.917,-255.682,-804.668,-0.297,-1.039,-2.042
-571.617,-259.354,-795.330,-1.105,-0.522,-2.422
-583.484,-256.009,-781.421,-1.619,-0.174,-2.573
-587.956,-252.338,-772.676,-1.825,-0.567,-2.599
-580.886,-248.366,-775.471,-1.963,-1.186,-2.690
-576.068,-246.814,-781.187,-1.642,-1.632,-2.719
-583.216,-244.773,-780.067,-1.214,-1.686,-2.288
-590.090,-256.536,-785.582,-0.883,-1.700,-1.783
-585.170,-271.061,-801.126,-0.255,-1.966,-1.923
-579.314,-265.540,-805.664,0.671,-2.002,-2.307
-587.025,-256.195,-803.148,1.724,-1.803,-2.223
-597.093,-248.565,-805.963,2.090,-1.734,-2.233
-597.747,-245.243,-804.025,1.590,-1.477,-2.761
-596.000,-250.000,-794.000,1.190,-1.120,-3.430
-592.779,-247.069,-785.915,0.742,-1.222,-3.991
-587.178,-242.724,-776.002,-0.126,-1.417,-4.350
-585.733,-243.353,-753.454,-1.031,-1.717,-4.397
-586.912,-240.163,-746.264,-1.443,-2.510,-4.079
-573.720,-242.640,-764.696,-0.893,-3.378,-3.835
-554.745,-239.987,-775.579,-0.246,-3.733,-3.210
-552.310,-229.505,-788.572,0.104,-3.545,-2.013
-557.531,-228.108,-810.539,0.775,-3.123,-1.171
-565.108,-222.564,-825.946,1.745,-2.391,-0.419
-570.080,-220.079,-836.707,3.192,-1.344,0.478
-570.664,-217.977,-835.398,4.868,-0.252,1.171
-577.156,-196.831,-819.685,5.994,0.478,1.948
-579.011,-185.285,-790.894,5.645,0.772,3.083
-581.643,-192.191,-772.333,3.801,1.010,3.751
-581.000,-198.000,-761.000,1.680,0.980,3.780
-576.323,-211.975,-750.206,-0.395,0.673,4.173
-571.457,-231.221,-753.599,-2.035,0.428,4.798
-560.687,-252.350,-765.846,-2.447,0.165,5.330
-557.950,-274.415,-794.273,-1.462,0.015,5.690
-551.296,-273.813,-815.405,0.910,0.009,5.904
-556.575,-259.478,-827.931,3.764,0.229,6.359
-560.715,-245.085,-822.060,5.709,0.819,6.892
-557.816,-237.557,-818.588,6.792,1.362,7.072
-558.875,-221.832,-816.752,7.598,1.941,7.084
-556.894,-201.165,-812.868,8.352,2.570,7.497
-561.102,-197.376,-822.830,8.771,2.933,7.980
-562.178,-186.776,-794.807,7.868,3.369,8.605
-583.299,-196.383,-789.616,6.101,3.549,9.327
-574.609,-217.270,-779.072,4.649,3.050,9.173
-569.000,-228.000,-782.000,3.920,2.520,8.960
-567.081,-238.669,-786.229,3.786,2.274,9.162
-558.634,-249.163,-779.296,3.697,1.994,8.944
-574.259,-254.429,-797.664,3.514,1.717,8.113
-559.924,-240.602,-769.512,3.639,1.664,6.850
-587.513,-245.112,-801.881,4.249,1.374,5.495
-570.946,-236.080,-779.082,4.936,0.886,4.227
-582.381,-232.553,-795.878,5.965,0.606,3.698
-580.541,-225.844,-802.958,6.697,0.116,3.472
-553.611,-214.265,-784.876,6.899,-0.361,2.705
-590.216,-222.391,-849.826,6.673,-0.536,2.025
-519.369,-191.581,-759.108,5.326,-0.489,1.524
-637.572,-235.049,-913.434,4.208,-0.055,1.190
-439.135,-162.258,-617.019,2.094,0.137,0.604
