acc_x[mg],acc_y[mg],acc_z[mg],gyro_x[dps],gyro_y[dps],gyro_z[dps]
510.000,21.000,852.000,1.960,1.890,-0.280
538.007,24.175,891.858,2.632,1.491,-0.397
505.102,27.030,808.621,2.971,0.902,-0.549
564.097,31.218,892.309,2.901,0.838,-0.509
512.983,35.555,819.571,1.863,0.648,-0.529
527.860,46.878,878.880,1.014,0.819,-0.519
500.949,47.104,850.841,0.083,0.654,-0.305
523.485,45.061,864.466,-0.117,0.630,-0.119
534.514,46.099,858.805,0.324,0.440,0.309
531.622,40.119,842.691,0.501,0.419,0.889
543.462,23.224,865.091,0.217,0.741,1.645
525.887,13.465,844.679,-0.607,1.031,2.047
529.215,24.457,862.898,-1.183,1.437,1.833
509.751,29.227,851.156,-1.666,1.521,1.765
501.539,16.613,870.059,-2.598,1.277,1.809
491.000,6.000,878.000,-3.010,0.840,1.400
504.484,11.981,868.660,-2.039,0.417,0.592
534.020,22.288,864.500,-0.847,-0.065,0.282
539.676,14.102,851.745,-0.779,-0.427,0.622
541.649,2.836,854.949,-1.143,-0.533,0.813
530.944,12.691,841.093,-1.029,-0.550,0.608
533.544,19.406,841.354,-0.932,-0.484,0.716
529.960,5.822,841.787,-1.377,-0.566,1.218
514.014,-0.329,845.413,-1.758,-0.445,1.154
507.832,8.554,847.357,-1.143,-0.111,0.652
519.159,16.985,843.517,-0.347,-0.089,0.409
530.272,16.420,842.572,-0.340,-0.144,0.520
534.236,10.351,837.550,-0.289,0.214,0.704
541.735,9.193,844.758,-0.362,0.696,0.796
537.371,8.547,849.491,-0.853,1.119,0.943
523.000,1.000,858.000,-1.470,1.540,1.260
511.436,-11.606,868.042,-2.125,1.738,1.433
514.927,-12.475,874.139,-1.938,1.733,0.922
519.461,0.092,878.629,-0.943,1.462,0.331
525.088,6.106,878.587,0.146,0.964,0.118
535.432,9.427,873.948,0.814,0.113,-0.068
537.610,11.117,859.354,1.004,-0.925,-0.159
527.617,14.465,852.028,0.960,-1.734,-0.371
506.254,15.669,858.339,0.290,-2.229,-0.439
505.413,2.631,865.445,-0.826,-1.975,-0.107
531.888,7.155,864.037,-1.550,-1.247,-0.133
555.322,20.017,860.272,-1.853,-0.591,0.137
554.269,8.544,863.851,-2.127,-0.056,1.010
541.784,1.078,860.141,-1.585,0.152,0.988
538.904,10.628,845.701,-0.118,-0.143,0.426
532.000,12.000,834.000,0.910,-0.630,0.280
509.883,-0.652,832.161,0.846,-0.829,0.129
490.503,1.085,839.792,0.337,-0.895,-0.432
492.909,18.040,845.777,-0.165,-0.912,-0.861
503.269,29.179,852.519,-1.388,-0.951,-0.512
518.629,38.460,849.228,-2.605,-1.108,-0.241
546.105,41.876,831.809,-2.864,-1.224,-0.282
557.978,36.317,819.378,-2.635,-1.493,-0.203
549.911,24.850,815.053,-2.269,-1.558,-0.143
537.100,20.129,816.487,-1.854,-1.204,-0.099
524.957,22.033,817.526,-1.571,-0.863,0.242
518.300,5.335,820.192,-2.104,-0.332,1.143
511.640,-11.739,830.249,-2.488,0.423,1.511
509.523,-11.801,842.237,-1.542,1.095,1.242
515.984,-4.813,848.736,0.111,1.413,1.015
517.000,-2.000,856.000,1.190,1.260,0.840
515.533,-7.174,863.174,1.255,1.128,0.705
520.666,3.383,856.354,1.511,1.000,-0.090
521.858,15.730,854.158,1.481,0.683,-0.553
517.397,5.152,861.550,0.355,0.439,-0.265
518.890,-5.339,860.443,-0.602,0.171,-0.515
531.187,-2.770,857.628,-0.435,-0.036,-0.789
537.875,2.320,856.954,0.174,-0.231,-0.689
528.902,5.773,856.929,0.348,-0.538,-0.568
520.565,8.311,857.495,0.363,-0.782,-0.535
520.779,13.837,851.404,0.196,-1.071,-0.735
522.690,24.246,839.870,-0.191,-1.341,-0.940
517.688,20.886,836.928,-1.035,-1.377,-0.817
514.354,9.827,839.505,-2.226,-1.056,-0.695
526.716,15.831,838.676,-2.864,-0.554,-0.772
543.000,24.000,835.000,-3.290,-0.070,-0.490
546.579,13.878,832.636,-3.691,0.469,0.124
541.779,-2.538,836.530,-3.373,1.115,0.457
540.806,0.775,835.204,-1.728,1.721,0.153
535.373,8.151,838.341,0.339,1.756,0.039
519.625,0.541,849.543,1.257,1.576,0.542
511.286,1.828,850.496,1.530,1.724,0.476
510.833,11.484,851.275,1.674,1.739,0.211
503.750,9.687,854.804,1.243,1.493,0.470
498.634,0.582,857.448,0.664,1.187,0.450
511.912,6.902,857.024,0.914,0.899,-0.154
529.721,23.302,851.789,1.493,0.514,-0.675
529.170,18.983,856.698,1.069,0.131,-0.455
521.680,6.258,864.169,0.325,0.097,-0.320
527.493,11.023,859.720,0.417,0.222,-0.768
531.000,27.000,852.000,0.910,0.210,-0.770
518.985,25.372,853.091,0.835,0.253,-0.105
511.597,11.289,857.470,0.523,0.454,0.304
514.733,18.743,853.066,0.835,0.494,0.134
520.196,27.258,850.503,0.943,0.547,0.342
532.878,16.300,855.066,0.329,0.813,0.891
547.395,2.419,861.235,-0.787,1.133,1.163
546.276,-2.024,862.883,-1.954,1.574,1.259
529.782,-5.180,861.003,-2.247,1.820,1.134
501.394,-21.872,862.023,-2.016,1.632,0.927
472.834,-33.435,860.664,-0.998,1.088,0.309
459.474,-28.236,863.741,0.960,0.186,-0.680
461.031,-12.472,867.209,2.278,-0.565,-1.430
487.718,9.638,860.276,2.461,-0.801,-1.942
522.567,23.148,854.394,1.447,-0.745,-1.913
545.000,26.000,850.000,-0.210,-0.420,-1.540
559.112,27.865,844.655,-1.224,-0.042,-1.424
559.014,25.381,840.550,-1.937,0.227,-1.038
557.763,17.640,834.300,-2.587,0.725,-0.495
554.955,15.951,827.305,-2.788,1.197,-0.404
537.859,12.254,827.108,-2.795,1.385,-0.114
513.124,-1.497,836.310,-2.684,1.480,0.253
494.210,-10.019,840.923,-2.175,1.387,0.034
495.326,-0.162,835.539,-0.888,1.205,-0.523
504.222,8.762,830.414,0.312,0.966,-0.736
512.559,2.834,829.790,0.422,0.869,-0.576
524.938,9.802,829.336,0.685,1.300,-0.881
536.599,22.271,829.251,1.458,1.841,-1.002
537.740,20.421,833.311,1.700,2.337,-0.435
528.575,16.935,833.515,1.978,2.968,-0.035
523.000,23.000,830.000,2.870,3.500,0.140
515.977,32.576,833.096,3.542,3.820,0.541
499.611,29.680,838.527,3.407,3.955,1.092
484.690,28.339,843.214,3.150,4.089,1.211
489.761,37.864,844.744,3.412,4.074,0.991
508.839,46.156,842.575,3.512,3.672,0.943
513.264,40.088,850.554,2.559,3.413,1.389
508.971,28.690,855.847,1.173,3.592,1.594
514.413,33.572,850.299,0.519,3.838,1.264
517.882,27.816,849.850,-0.024,3.951,1.663
510.663,5.071,848.487,-0.698,4.235,2.080
501.986,-9.689,849.464,-0.269,4.690,1.882
500.074,-16.359,854.736,1.092,5.069,1.805
501.988,-18.530,853.214,2.374,5.423,1.718
491.311,-21.446,858.909,3.083,5.719,1.676
476.000,-20.000,874.000,3.430,6.090,1.470
486.130,-9.923,878.482,3.640,6.028,0.929
513.162,0.995,874.435,3.381,5.449,0.433
528.586,-4.969,875.237,2.303,5.151,0.321
524.559,-34.063,877.856,0.700,4.868,0.250
510.027,-53.387,878.011,0.242,4.612,-0.647
497.559,-53.462,882.542,0.818,4.310,-1.637
489.480,-50.601,890.622,0.902,3.734,-2.061
482.599,-39.248,898.398,0.843,3.130,-2.674
476.022,-23.805,906.328,0.650,2.452,-3.269
484.735,-12.052,910.860,0.267,1.897,-3.712
510.226,7.645,904.100,-0.135,1.274,-4.545
525.260,33.110,891.639,-1.111,0.629,-5.158
520.846,44.697,889.238,-2.992,0.006,-5.020
504.270,49.321,886.864,-5.478,-0.547,-4.921
493.000,64.000,875.000,-7.280,-0.700,-5.180
489.972,69.918,871.118,-8.647,-0.892,-4.770
482.401,60.447,880.707,-10.149,-0.731,-3.734
489.706,57.332,888.105,-10.493,-0.170,-3.239
511.798,68.580,884.886,-9.508,0.114,-2.921
523.776,81.396,876.855,-8.226,0.257,-1.735
522.678,73.078,874.244,-7.500,0.270,-0.071
513.302,54.938,880.654,-6.449,0.203,0.717
507.439,47.345,887.619,-4.058,-0.035,0.638
494.454,41.808,893.200,-1.622,-0.622,0.706
470.498,31.381,900.238,-0.161,-1.183,1.049
463.313,12.906,897.769,0.468,-1.506,1.323
471.381,0.239,888.732,1.391,-1.652,1.084
482.290,2.327,882.286,3.320,-1.565,0.825
488.261,3.924,881.576,5.304,-1.462,1.200
489.000,4.000,889.000,6.510,-1.400,1.610
501.295,8.939,889.623,7.028,-1.320,1.799
514.972,13.751,888.713,7.006,-1.492,1.919
512.958,6.111,898.265,5.920,-1.503,2.049
503.895,-3.822,902.596,4.675,-1.337,1.818
496.456,5.898,896.938,4.367,-1.675,0.991
491.948,18.427,885.986,4.085,-2.554,0.516
484.199,12.005,871.937,3.117,-3.810,0.481
475.278,0.485,858.110,1.521,-4.849,0.055
478.065,-0.669,845.943,0.278,-5.190,-0.710
485.975,1.369,849.326,-0.816,-4.909,-0.924
496.681,-0.322,857.935,-2.647,-3.986,-0.431
522.413,-0.825,851.537,-3.986,-2.851,-0.092
546.114,-2.319,844.065,-4.516,-1.894,0.310
543.859,-15.936,836.810,-4.199,-1.173,0.910
521.000,-34.000,835.000,-2.450,-0.840,0.910
498.620,-34.553,843.009,-0.014,-0.652,0.316
483.812,-23.700,847.819,1.941,-0.639,-0.259
474.658,-23.524,858.010,2.254,-0.858,-0.430
482.330,-29.438,867.567,1.366,-0.913,-0.689
496.460,-17.592,864.835,0.751,-0.934,-1.440
500.038,5.255,860.074,0.610,-1.107,-2.053
500.077,8.662,855.487,0.395,-1.592,-2.259
501.056,11.685,844.972,0.085,-2.332,-2.866
497.382,37.013,836.133,-0.107,-2.710,-3.749
494.233,56.195,838.745,-0.923,-2.710,-3.797
506.509,66.040,839.201,-2.477,-2.493,-3.348
527.637,71.831,837.344,-4.296,-1.958,-2.570
541.586,55.938,836.354,-6.103,-1.227,-1.280
534.355,33.179,836.640,-6.976,-0.248,-0.401
514.000,23.000,844.000,-6.510,0.910,0.000
504.715,21.894,844.353,-5.075,1.630,0.365
498.582,21.235,845.331,-3.680,1.766,0.696
490.112,15.668,849.626,-2.697,1.632,0.825
480.028,6.601,854.413,-1.743,1.224,0.653
475.301,-5.283,868.461,-1.133,0.886,0.354
492.189,-5.207,874.070,-0.421,0.727,-0.222
511.008,6.688,875.352,0.556,0.470,-0.636
517.933,5.693,879.922,1.157,0.231,-0.379
511.586,-2.072,877.782,1.652,-0.123,-0.226
495.505,7.035,874.162,2.654,-0.411,-0.635
491.035,32.031,866.552,4.099,-0.735,-1.064
490.950,44.357,862.203,4.307,-1.476,-0.861
483.553,35.860,866.283,2.703,-1.721,-0.249
484.443,37.856,866.723,1.050,-1.242,-0.073
506.000,55.000,864.000,-0.140,-0.700,0.070
530.929,54.766,860.468,-1.564,-0.202,0.889
534.058,28.101,859.280,-3.191,0.083,1.868
528.397,-1.979,862.450,-3.973,0.339,2.445
527.398,-16.006,863.708,-3.700,0.864,2.448
519.349,-15.524,858.517,-3.294,1.158,2.126
497.758,-28.496,859.630,-3.152,0.780,2.127
469.166,-58.956,873.061,-3.120,0.248,1.820
461.347,-62.469,880.854,-1.664,-0.109,0.217
475.050,-35.175,881.083,1.071,-0.584,-1.252
484.936,-15.756,879.870,2.823,-1.013,-1.531
499.462,-10.858,876.954,3.433,-1.233,-1.622
525.249,-2.583,871.633,3.470,-1.214,-1.874
541.225,19.850,860.354,3.264,-0.967,-2.049
528.298,35.649,856.357,2.286,-0.737,-1.641
502.000,27.000,862.000,0.420,-0.490,-0.980
491.102,26.245,862.387,-0.864,-0.341,-1.068
492.338,35.481,861.556,-1.455,-0.541,-1.210
487.087,22.124,869.491,-2.006,-0.736,-0.794
477.983,7.480,878.630,-2.608,-0.600,-0.624
489.440,14.781,872.765,-2.494,-0.634,-1.003
512.023,27.081,860.469,-1.956,-1.100,-1.087
512.077,26.399,853.719,-2.210,-1.492,-0.907
495.199,15.691,854.603,-2.581,-1.732,-1.094
487.760,12.795,859.655,-2.512,-1.937,-1.456
497.872,19.950,858.820,-2.191,-1.918,-1.693
503.240,20.853,861.726,-2.100,-1.544,-1.199
496.840,8.356,868.801,-2.114,-0.830,-0.331
499.027,2.218,873.276,-1.235,-0.058,0.087
508.341,16.089,875.955,0.228,0.483,0.311
513.000,36.000,870.000,1.540,0.630,0.490
507.687,38.759,864.161,2.157,0.238,0.740
494.488,24.441,864.805,2.026,-0.439,0.699
480.875,25.387,863.755,1.897,-0.968,0.175
475.523,38.361,858.836,1.810,-1.252,-0.031
480.395,35.630,854.987,1.085,-1.509,0.316
486.241,20.287,856.530,-0.220,-1.683,0.796
494.977,12.071,856.861,-0.760,-1.278,0.981
511.599,22.013,853.335,-0.130,-0.601,0.970
525.878,27.479,850.049,0.352,-0.211,1.377
523.172,17.653,851.822,0.185,0.132,2.046
514.545,10.782,851.563,0.287,0.492,2.126
518.985,9.858,841.723,0.974,0.711,1.868
515.504,5.337,836.746,1.387,0.781,2.069
494.405,-13.515,843.741,1.313,0.864,2.316
476.000,-27.000,859.000,1.470,1.120,1.960
477.483,-12.296,871.195,2.195,1.327,1.272
497.544,2.148,873.817,2.535,1.166,1.019
503.062,-3.818,880.116,1.709,0.797,1.072
498.548,-8.895,885.513,0.988,0.652,0.508
509.762,6.059,879.267,1.193,0.427,-0.382
521.476,26.196,867.033,1.274,-0.146,-0.705
514.643,21.735,860.054,0.478,-0.741,-0.385
490.637,4.689,869.920,-0.448,-1.051,-0.132
485.657,9.270,878.849,-0.560,-0.784,-0.475
509.146,31.640,878.121,-0.348,-0.623,-0.469
512.977,35.327,881.084,-1.129,-0.810,0.640
496.518,14.896,881.102,-2.368,-0.673,1.513
494.321,9.178,879.737,-2.146,-0.680,1.123
503.383,17.711,875.809,-1.309,-0.949,0.681
506.000,10.000,866.000,-1.120,-1.190,0.840
492.604,-7.010,864.381,-1.293,-1.341,0.813
483.088,-13.362,868.880,-1.299,-1.127,0.422
493.174,-4.787,871.803,-0.500,-1.000,0.036
493.045,6.166,873.440,0.092,-1.124,0.102
485.663,9.919,871.634,0.477,-1.236,0.325
494.764,16.500,864.893,1.229,-1.468,0.031
499.934,33.451,854.221,1.942,-1.770,-0.365
497.208,47.461,847.313,2.326,-1.951,-0.239
492.816,50.604,843.205,1.422,-2.074,0.230
484.682,52.520,838.260,-0.299,-2.078,0.767
482.555,47.180,840.047,-2.052,-1.627,1.296
486.331,34.016,846.827,-3.364,-0.935,1.757
498.894,26.185,848.982,-3.774,-0.179,2.379
515.120,19.887,849.309,-3.946,0.503,2.931
524.000,11.000,854.000,-3.990,0.840,3.150
524.063,-2.032,859.366,-3.614,1.033,3.120
513.179,-9.966,861.517,-2.611,0.997,2.726
499.144,-10.926,858.627,-1.569,0.626,2.385
478.924,-26.655,863.514,-1.207,0.229,2.192
464.112,-40.268,880.416,-0.829,0.156,1.585
478.112,-24.289,888.756,0.315,0.195,0.645
498.114,-3.059,891.306,1.373,-0.099,0.446
507.474,-2.592,894.920,1.292,-0.346,0.958
514.268,-0.764,892.598,1.077,-0.335,0.771
522.649,21.090,881.591,1.327,-0.571,0.256
527.470,34.208,864.213,1.043,-1.126,0.311
511.899,24.657,858.043,-0.158,-1.600,0.655
487.503,8.053,860.444,-1.729,-2.018,0.871
480.128,-0.076,858.474,-2.861,-2.244,0.736
485.000,8.000,856.000,-3.570,-2.030,0.700
486.912,9.552,860.638,-4.577,-1.723,1.229
491.060,-2.762,866.351,-5.593,-1.428,1.647
507.505,-4.603,857.302,-5.698,-1.119,1.316
522.454,-3.665,850.850,-5.092,-0.798,1.015
524.659,-10.699,847.643,-4.295,-0.414,0.916
520.355,-11.561,839.661,-3.345,-0.183,0.538
505.425,-11.108,841.341,-2.460,-0.217,0.347
485.960,-10.410,842.212,-1.736,-0.220,0.290
484.376,-2.100,841.081,-0.912,-0.033,0.197
498.529,5.960,847.271,-0.067,0.046,0.369
510.549,14.861,851.670,0.284,0.171,0.705
517.585,22.766,849.183,0.212,0.322,1.101
516.185,19.762,845.986,-0.287,0.267,1.519
506.724,9.564,839.619,-1.073,0.474,1.674
504.000,5.000,832.000,-1.120,0.770,1.470
500.361,-0.207,837.135,-0.799,0.935,1.500
491.530,-12.877,850.265,-0.537,1.340,1.734
488.014,-13.512,860.015,0.262,1.646,1.725
481.751,-7.444,861.904,1.129,1.687,1.864
475.197,-12.081,863.134,1.590,1.666,2.095
479.290,-21.962,870.838,1.585,1.722,1.947
502.529,-20.108,875.114,1.709,2.138,1.268
536.091,-4.757,876.732,1.979,2.503,0.766
544.179,-8.109,881.777,1.092,2.695,1.243
521.775,-23.196,884.689,-0.088,2.683,1.637
491.873,-23.276,880.322,-0.267,2.126,1.193
473.295,-17.397,871.495,0.366,1.410,0.571
464.176,-17.222,864.757,1.040,0.443,0.196
456.589,-26.054,869.336,0.846,-0.352,-0.051
469.000,-17.000,874.000,0.630,-0.490,-0.560
496.482,7.608,866.200,0.184,-0.563,-0.752
511.987,12.264,862.257,-1.487,-0.348,-0.145
516.933,3.591,858.884,-3.287,0.117,0.333
521.428,-2.139,849.821,-3.916,0.684,0.048
524.342,-2.293,844.408,-3.076,1.361,-0.246
515.175,-14.207,842.745,-2.249,1.749,0.095
489.854,-29.600,844.404,-1.609,2.053,0.119
467.957,-30.925,857.387,-0.555,2.234,-0.078
466.005,-34.049,879.923,-0.024,2.378,0.134
487.297,-25.691,889.603,0.612,2.721,-0.106
513.898,-7.426,886.558,1.491,2.783,-0.391
517.606,-8.738,886.037,1.866,2.516,-0.142
511.821,-22.375,885.328,2.156,2.087,-0.274
512.134,-14.963,881.248,2.953,1.524,-1.123
509.000,6.000,877.000,3.640,0.980,-1.610
491.322,2.344,877.377,2.829,0.311,-1.193
461.733,-10.172,883.022,1.304,-0.128,-1.024
450.272,-6.465,888.075,0.684,-0.074,-1.433
465.054,12.688,888.375,0.992,-0.135,-1.703
487.130,29.145,885.742,1.022,-0.221,-1.448
501.034,26.587,883.508,0.184,-0.211,-0.965
507.710,27.667,879.419,-0.676,-0.122,-1.002
522.692,40.142,865.454,-0.969,0.192,-1.199
532.216,43.468,848.899,-1.379,0.233,-0.654
517.587,23.234,846.851,-2.690,0.242,0.398
493.896,-6.375,851.576,-3.685,0.600,0.884
484.702,-14.070,854.265,-3.148,1.038,0.591
476.528,-7.649,866.530,-1.986,1.307,0.577
452.311,-15.050,891.962,-1.515,1.340,1.218
446.000,-22.000,906.000,-1.120,1.540,1.260
471.101,-3.647,896.491,0.316,1.462,0.454
498.979,10.041,880.225,1.474,1.054,0.124
506.758,-3.127,869.808,1.778,0.851,0.125
499.986,-13.071,868.874,2.316,0.442,-0.231
496.688,-6.013,864.083,3.032,-0.027,-0.592
481.564,3.702,859.903,2.839,-0.441,-0.488
455.363,5.962,863.298,1.492,-0.630,-0.122
446.751,5.895,869.159,0.158,-0.623,-0.131
457.417,7.132,883.335,-1.031,-0.677,-0.111
481.827,5.546,886.288,-2.247,-0.276,-0.041
508.346,4.855,871.854,-2.993,0.199,-0.350
519.785,1.109,855.848,-3.516,0.639,-0.366
513.517,-13.199,847.963,-3.545,0.956,-0.311
498.761,-26.080,850.431,-2.512,0.905,-0.702
487.000,-24.000,850.000,-0.980,1.050,-0.980
473.752,-20.580,857.254,-0.103,1.178,-0.761
455.516,-23.877,878.140,-0.207,1.328,-0.436
453.781,-14.557,892.236,-0.226,1.470,-0.555
477.531,2.553,892.032,0.318,1.237,-0.819
497.225,3.932,883.424,0.430,0.967,-0.815
501.388,-10.563,879.923,0.101,0.923,-0.900
504.313,-13.138,881.012,0.638,1.060,-1.449
508.713,9.154,879.204,1.635,1.062,-1.765
507.723,21.430,878.281,1.583,0.833,-1.178
487.980,8.649,883.873,0.644,0.576,-0.457
466.835,-0.859,889.716,0.210,0.351,-0.418
466.871,7.464,889.611,0.708,0.081,-0.800
470.823,16.421,893.838,0.969,-0.110,-0.765
477.794,13.185,895.366,0.446,-0.240,-0.457
492.000,12.000,885.000,-0.420,-0.560,-0.420
498.081,14.267,875.014,-1.438,-0.870,-0.373
495.295,8.753,869.519,-2.634,-1.156,-0.221
490.264,0.447,864.657,-3.703,-1.487,-0.329
477.377,-3.661,865.895,-4.220,-1.712,-0.639
458.740,-5.814,878.479,-4.841,-1.715,-0.558
462.798,-3.175,887.859,-5.612,-1.484,-0.632
489.095,15.894,883.352,-6.133,-1.406,-0.991
508.327,33.711,876.226,-6.979,-1.593,-0.680
507.496,23.293,878.432,-8.394,-1.705,-0.033
495.975,2.837,883.238,-9.632,-1.459,0.106
488.927,2.713,881.171,-9.397,-1.229,-0.430
474.965,6.283,884.553,-8.787,-1.303,-0.194
459.490,-15.791,889.813,-9.062,-1.201,0.808
457.315,-35.255,888.647,-8.568,-1.032,0.677
464.000,-33.000,886.000,-6.650,-0.980,0.140
481.031,-33.333,884.688,-4.100,-1.245,-0.034
497.015,-36.382,887.698,-1.856,-1.832,-0.368
504.257,-32.308,885.930,-0.351,-2.107,-0.747
506.301,-22.365,881.808,0.741,-2.258,-1.068
500.740,-17.490,878.554,1.060,-2.277,-1.059
489.360,-20.686,876.813,0.901,-2.040,-0.793
482.797,-17.347,874.660,1.397,-1.803,-0.856
480.368,-6.728,870.966,2.382,-1.679,-0.924
474.691,-1.290,874.976,3.010,-1.705,-0.621
475.469,1.826,876.345,3.174,-1.457,-0.493
483.087,15.695,876.550,2.957,-1.218,-0.383
494.105,25.645,881.103,1.870,-1.145,0.129
497.023,22.395,886.981,-0.340,-0.889,0.605
489.059,17.128,890.925,-2.596,-0.682,0.778
490.000,11.000,883.000,-3.710,-0.770,0.700
487.695,6.880,873.097,-4.034,-1.295,0.571
473.476,-2.900,866.654,-4.070,-1.969,0.483
461.569,-12.929,862.479,-3.668,-2.636,0.183
462.200,-11.259,860.898,-3.244,-3.219,-0.146
476.351,-12.293,857.265,-3.292,-3.341,-0.040
493.935,-15.285,852.725,-3.549,-2.948,0.383
508.970,-14.998,845.391,-3.558,-2.173,0.801
517.620,-15.908,838.475,-3.254,-1.320,1.168
519.164,-17.334,832.193,-2.646,-0.666,1.326
507.739,-22.448,829.694,-1.703,-0.313,1.330
488.337,-32.288,833.344,-0.793,0.010,1.259
481.795,-35.903,835.852,0.049,0.531,0.779
481.669,-26.638,840.992,0.819,0.932,0.353
481.241,-23.523,846.488,0.861,1.055,0.538
484.000,-28.000,846.000,0.420,1.050,0.630
482.975,-20.028,843.267,0.329,1.107,0.270
488.824,-8.841,842.688,0.479,1.110,-0.023
500.907,-5.422,844.149,0.343,0.832,-0.134
498.304,-8.067,848.907,-0.412,0.665,-0.093
488.937,-12.132,854.355,-1.406,1.038,0.043
488.959,-11.780,853.399,-1.977,1.584,0.082
497.814,-14.473,854.346,-2.092,1.988,0.306
503.314,-23.196,860.492,-1.666,2.295,0.613
490.254,-35.042,869.058,-0.834,2.416,0.803
478.066,-44.686,882.257,0.118,2.696,0.832
488.963,-36.069,887.831,1.322,3.091,0.369
502.964,-19.837,888.588,2.196,3.119,0.095
502.023,-22.896,893.735,2.268,2.942,0.255
489.993,-28.761,898.632,2.087,2.599,0.078
483.000,-16.000,900.000,2.310,2.240,-0.490
488.899,1.309,894.121,2.724,1.679,-0.849
490.739,3.575,889.164,2.280,0.645,-0.540
476.704,-11.182,889.850,1.216,-0.129,-0.383
460.503,-14.356,891.381,0.560,-0.585,-0.856
463.833,3.624,887.298,0.199,-0.976,-1.178
477.535,11.940,879.664,-0.605,-1.241,-0.847
481.025,3.163,881.511,-1.995,-1.240,-0.251
485.200,-2.221,886.988,-2.792,-0.683,-0.323
499.498,6.532,880.176,-2.532,-0.135,-0.441
509.052,10.195,867.101,-2.438,0.039,0.165
495.991,-8.634,865.616,-2.896,0.113,0.672
473.527,-21.722,867.942,-2.859,0.144,0.576
466.274,-8.369,861.650,-1.928,-0.009,0.054
463.041,-0.600,859.180,-1.680,-0.417,0.058
457.000,-15.000,860.000,-2.660,-0.700,0.420
465.241,-17.099,855.618,-2.927,-0.709,0.016
485.269,-0.791,854.316,-2.679,-0.615,-0.197
500.180,-0.652,856.401,-3.432,-0.352,0.371
502.413,-14.281,856.683,-4.329,0.171,0.803
493.834,-20.301,855.034,-4.392,0.793,0.806
482.382,-24.457,854.149,-3.492,1.293,0.678
473.585,-34.989,858.444,-2.069,1.711,0.709
473.690,-47.278,862.773,-1.160,2.076,0.835
476.286,-51.614,868.303,-0.776,2.417,0.804
474.432,-45.729,882.508,-0.425,2.893,0.628
477.876,-35.916,893.110,-0.077,2.949,0.474
482.763,-30.694,895.304,-0.072,2.359,0.380
486.102,-32.940,894.034,-0.620,1.938,0.195
489.309,-32.557,887.911,-1.093,1.621,-0.301
489.000,-30.000,882.000,-1.190,1.260,-0.770
482.821,-32.310,878.979,-1.352,1.069,-0.794
468.251,-37.050,882.654,-1.691,1.057,-0.610
459.287,-36.516,888.703,-1.625,1.294,-0.498
466.275,-25.184,887.539,-0.899,1.250,-0.455
474.804,-22.312,890.117,-0.522,1.085,-0.097
466.927,-33.433,898.473,-0.866,1.139,0.226
460.377,-32.116,897.576,-0.879,1.276,-0.274
479.026,-14.379,892.186,-0.191,1.469,-1.079
499.135,-4.950,893.678,0.068,1.267,-1.199
499.552,-13.861,899.541,-0.274,1.053,-0.829
488.778,-11.771,899.780,-0.020,1.003,-0.812
478.123,2.673,891.575,0.638,0.627,-0.747
463.487,-2.972,885.941,0.981,0.127,-0.267
444.629,-13.695,884.944,1.252,-0.343,-0.077
443.000,-9.000,886.000,1.890,-0.490,-0.280
468.464,4.655,886.734,2.325,-0.247,-0.263
502.510,15.588,877.774,1.828,-0.099,0.309
511.477,5.014,874.551,0.849,0.109,1.100
497.199,-14.171,884.469,0.361,0.690,1.364
484.675,-15.236,888.614,1.076,1.049,0.930
471.292,-11.016,891.951,1.627,0.940,0.912
452.520,-21.235,895.285,1.143,0.837,1.268
437.521,-36.294,905.656,0.775,0.838,0.892
443.505,-35.956,920.361,0.985,0.816,0.251
472.944,-19.004,914.911,1.651,0.440,-0.102
493.587,-4.083,907.355,1.793,-0.158,-0.086
487.688,-0.081,903.023,1.300,-0.847,0.023
474.446,1.760,892.721,0.980,-1.858,-0.135
470.121,4.311,883.411,0.812,-2.602,-0.297
476.000,5.000,869.000,0.350,-3.010,-0.280
477.319,-1.700,858.947,-0.945,-3.122,0.230
464.855,-20.532,865.693,-2.410,-2.575,0.967
464.107,-31.576,872.747,-3.106,-1.620,1.315
482.865,-26.538,869.552,-2.843,-0.580,1.521
491.520,-28.296,872.394,-2.371,0.033,1.749
480.610,-34.618,880.114,-1.834,0.345,1.589
470.742,-28.129,877.429,-0.275,0.404,0.923
471.979,-19.200,868.586,1.204,-0.032,0.371
465.304,-22.984,865.306,1.257,-0.426,0.238
452.418,-29.408,869.552,0.579,-0.658,0.003
454.149,-25.675,871.607,0.089,-0.687,-0.295
471.483,-22.366,871.445,-0.185,-0.581,-0.179
494.186,-22.863,865.199,-0.258,-0.432,0.068
500.598,-19.349,857.110,0.161,-0.266,0.327
493.000,-16.000,852.000,0.770,-0.280,0.560
479.976,-9.970,847.727,1.061,-0.281,0.443
459.551,-10.050,853.227,0.603,-0.262,0.476
450.748,-25.504,856.674,-0.617,0.113,0.687
452.254,-29.175,865.070,-1.676,1.014,0.459
462.589,-24.644,879.638,-2.052,1.941,0.425
480.591,-36.713,884.518,-2.300,2.560,0.966
489.562,-44.892,885.963,-2.194,2.890,1.020
500.955,-35.845,881.476,-0.965,2.960,0.337
508.169,-30.802,878.580,0.449,2.325,-0.178
497.509,-40.859,879.837,0.756,1.394,-0.162
483.567,-51.377,875.282,0.332,0.747,-0.252
468.497,-50.670,869.945,-0.391,0.139,-0.694
454.778,-51.143,873.051,-1.571,-0.326,-0.864
455.102,-56.357,883.692,-2.366,-0.593,-1.217
468.000,-49.000,892.000,-2.240,-0.700,-1.960
483.861,-34.491,897.286,-1.962,-0.590,-2.184
493.915,-29.410,900.238,-2.246,-0.334,-2.088
494.909,-26.585,897.225,-2.921,0.155,-2.236
491.710,-17.496,892.716,-3.360,0.674,-2.529
482.661,-10.243,891.665,-4.037,0.874,-2.569
470.026,-11.737,890.760,-4.939,0.685,-2.529
457.036,-11.687,892.213,-5.413,0.088,-2.674
449.112,-2.157,891.467,-5.483,-0.516,-2.916
450.726,15.444,885.098,-4.896,-1.244,-3.124
450.143,22.011,890.264,-4.788,-2.205,-2.578
457.989,10.720,895.330,-5.735,-2.608,-1.896
481.368,20.747,883.915,-5.963,-2.515,-1.957
498.760,40.736,866.888,-5.451,-2.188,-1.467
501.485,27.944,856.164,-5.226,-1.853,-0.152
491.000,-3.000,858.000,-4.690,-1.610,0.630
478.267,-18.288,863.554,-2.894,-1.071,0.701
471.660,-9.682,864.180,-0.496,-0.591,0.872
459.394,-15.992,865.727,0.821,-0.240,1.665
445.783,-43.246,876.446,1.362,0.379,2.384
449.971,-40.986,884.993,2.786,1.239,1.968
466.951,-14.439,887.646,4.631,1.728,1.530
477.280,-7.421,891.150,5.242,1.587,2.006
475.293,-18.222,888.519,4.736,1.224,2.255
473.961,-22.774,879.646,4.358,0.695,1.728
469.267,-16.769,867.068,4.281,0.104,0.977
450.206,-18.150,859.356,3.540,-0.547,0.889
439.024,-38.278,861.732,1.752,-0.965,1.099
441.407,-46.928,868.503,0.057,-0.817,0.790
451.131,-43.051,879.785,-0.898,-0.325,0.730
467.000,-49.000,886.000,-1.820,0.420,0.910
478.374,-44.370,884.102,-2.529,1.001,0.775
489.475,-44.150,885.541,-2.876,1.207,0.963
492.285,-61.295,883.630,-3.282,1.426,0.941
483.997,-63.902,875.156,-3.053,1.604,-0.030
475.263,-63.414,870.932,-2.507,1.440,-0.734
459.655,-73.109,871.596,-2.684,1.114,-0.972
443.131,-74.688,879.899,-3.022,0.823,-1.362
440.630,-65.202,888.774,-2.898,0.763,-1.785
446.855,-44.918,889.234,-2.460,0.844,-2.199
451.012,-29.739,897.236,-2.324,0.810,-2.161
463.529,-23.125,905.372,-2.348,0.961,-2.210
489.804,3.681,897.967,-1.603,1.057,-2.744
510.521,19.364,888.796,-1.250,0.940,-2.302
512.037,0.511,884.345,-2.386,0.822,-1.096
499.000,-13.000,879.000,-3.220,0.770,-0.490
478.654,-20.304,878.007,-2.877,0.839,-0.191
454.811,-32.042,890.671,-2.554,0.752,0.096
442.911,-38.896,912.442,-2.377,0.566,0.163
451.487,-36.526,929.158,-1.856,0.154,0.076
466.218,-29.739,928.545,-1.404,-0.411,-0.201
473.861,-27.628,916.926,-1.100,-0.773,-0.699
475.167,-21.195,901.696,-0.341,-1.156,-1.462
480.530,-9.802,885.084,0.707,-1.763,-2.016
481.062,-0.634,874.497,1.056,-2.520,-1.906
469.362,3.156,870.306,0.377,-2.863,-1.439
465.939,-0.524,873.802,-0.843,-2.520,-0.755
479.896,2.814,879.006,-1.679,-1.848,-0.166
495.654,2.798,887.659,-1.875,-1.218,0.688
497.599,-17.845,901.713,-2.423,-0.596,1.906
497.000,-37.000,903.000,-2.870,0.070,2.240
500.333,-42.632,894.583,-2.477,0.411,1.935
488.604,-48.102,882.561,-1.851,0.236,1.675
453.237,-72.409,876.227,-1.393,-0.409,1.485
412.309,-104.121,886.306,-1.001,-0.929,0.882
399.919,-97.841,891.316,0.429,-1.279,-0.767
424.068,-65.169,892.951,2.314,-1.907,-1.861
468.609,-52.944,898.240,2.863,-2.487,-1.730
505.396,-55.021,898.086,2.425,-2.797,-1.669
512.929,-49.729,896.976,1.975,-2.515,-1.928
507.086,-35.407,887.391,2.175,-2.017,-2.412
496.799,-26.643,870.971,2.305,-1.994,-2.415
477.866,-41.623,864.480,1.717,-2.019,-1.832
447.903,-59.230,867.060,1.364,-1.923,-1.712
422.609,-52.921,869.086,1.592,-1.708,-1.912
421.000,-42.000,870.000,1.680,-1.540,-1.890
428.438,-40.899,876.665,0.921,-1.713,-1.799
444.733,-40.669,882.853,0.202,-1.879,-2.251
474.074,-36.153,880.186,0.125,-1.846,-3.158
497.127,-23.327,872.080,-0.112,-1.568,-3.758
497.009,-16.495,864.345,-0.824,-1.209,-3.798
482.697,-23.803,859.824,-1.810,-1.011,-3.523
471.037,-23.567,852.431,-2.005,-0.826,-3.663
450.285,-19.891,851.445,-1.504,-0.647,-3.672
419.937,-21.940,862.906,-1.066,-0.313,-3.149
413.900,-9.545,875.051,-0.174,0.071,-3.075
451.123,15.946,883.169,0.626,0.176,-2.889
496.185,28.996,885.357,0.543,0.281,-2.133
511.519,15.325,888.020,-0.288,0.627,-1.295
508.172,-7.901,888.599,-0.662,1.214,-0.809
503.000,-18.000,884.000,0.420,1.610,-0.840
494.537,-28.435,883.403,1.999,1.564,-0.568
468.883,-45.382,891.894,3.616,1.395,-0.166
438.019,-51.607,910.622,5.222,1.142,-0.231
439.319,-41.385,925.241,6.607,0.736,-0.524
459.069,-16.458,932.987,7.684,0.055,-0.924
471.766,2.382,944.769,7.751,-0.730,-1.141
489.650,2.975,948.560,6.919,-1.376,-1.202
505.640,11.707,931.809,5.703,-1.925,-1.514
497.843,25.864,910.570,4.431,-2.263,-1.614
474.777,27.672,896.035,3.727,-2.416,-1.130
457.752,39.085,880.582,3.534,-2.506,-0.574
446.588,47.687,881.140,2.616,-2.694,0.192
433.033,28.950,894.535,0.338,-2.947,0.913
432.644,19.207,897.887,-1.901,-3.289,0.685
456.000,25.000,893.000,-3.570,-3.850,0.210
482.929,25.696,875.597,-5.093,-4.291,0.086
495.107,30.185,853.198,-5.456,-4.594,0.014
489.410,25.742,840.778,-5.027,-4.862,0.476
478.166,1.130,841.705,-5.261,-4.848,1.416
469.491,-22.456,845.644,-5.580,-4.561,1.969
460.228,-32.764,843.182,-5.042,-4.173,2.231
460.418,-44.178,843.262,-3.735,-3.665,2.460
465.746,-57.546,849.375,-2.158,-2.997,2.398
471.083,-54.537,858.690,-0.323,-2.172,2.136
488.008,-43.279,866.848,1.514,-1.244,2.147
501.273,-30.680,865.658,2.258,-0.431,2.352
496.519,-15.672,856.419,2.155,0.177,2.179
474.285,-14.871,852.778,1.810,0.336,1.880
441.053,-25.294,852.783,0.967,0.106,1.537
420.000,-24.000,852.000,-0.000,0.070,0.980
422.100,-12.432,860.205,-1.150,0.143,0.814
438.134,-8.501,870.548,-3.178,0.083,1.127
457.428,-16.794,877.734,-5.463,0.115,1.551
478.813,-25.723,879.160,-6.758,0.357,1.697
500.861,-23.151,869.615,-6.673,0.506,1.406
510.098,-28.265,865.000,-5.578,0.270,1.267
497.587,-49.384,868.196,-4.154,-0.012,1.323
482.651,-51.061,868.088,-2.449,-0.008,1.005
477.242,-35.737,869.582,-0.985,0.110,1.137
470.789,-36.396,877.018,-0.946,0.269,2.111
468.356,-44.172,883.204,-1.549,0.472,2.504
472.505,-44.968,888.301,-1.877,0.643,2.409
484.610,-46.562,890.778,-2.058,0.946,2.184
495.570,-44.208,884.946,-1.820,1.115,1.407
488.000,-41.000,882.000,-1.120,0.840,0.770
477.186,-43.196,879.357,-0.088,0.426,0.354
469.066,-36.583,866.991,0.652,-0.160,-0.112
458.416,-26.093,857.005,0.508,-0.680,-0.299
445.679,-20.464,856.252,-0.277,-1.036,-0.217
438.259,-18.848,858.948,-1.447,-1.320,-0.123
456.326,-15.065,861.434,-2.424,-1.004,-0.256
487.295,-0.973,861.880,-3.227,-0.610,-0.259
513.409,1.658,855.814,-4.571,-0.256,0.299
523.583,-11.827,844.774,-5.942,0.464,0.830
509.151,-33.734,840.688,-6.489,1.135,1.156
493.065,-56.702,840.827,-5.702,1.847,1.297
480.647,-58.753,842.269,-3.680,2.361,1.123
461.322,-63.808,853.487,-1.826,2.705,1.531
438.751,-81.256,872.166,-0.589,3.051,1.970
430.000,-85.000,893.000,0.840,3.290,1.540
456.681,-69.187,903.094,2.936,3.673,0.705
494.554,-39.249,898.470,4.925,3.593,-0.108
509.124,-26.257,895.725,5.314,2.977,-0.143
501.956,-32.322,890.920,4.448,2.275,-0.219
482.808,-22.605,877.791,3.839,1.551,-1.015
460.833,-7.026,873.046,3.524,0.897,-1.217
438.381,-14.052,877.481,2.321,0.236,-0.813
424.329,-20.359,886.982,0.547,-0.068,-0.638
430.945,-12.843,899.535,-0.951,0.065,-0.390
460.007,-13.444,899.380,-2.109,0.521,0.116
487.517,-17.958,895.210,-2.662,1.166,0.504
492.368,-28.617,901.332,-3.014,1.719,0.815
497.258,-29.795,903.337,-2.771,2.249,0.537
497.768,-19.437,896.791,-2.295,2.450,0.227
478.000,-33.000,890.000,-2.800,2.310,0.770
441.588,-52.521,892.257,-3.237,2.073,0.724
405.655,-53.204,907.856,-2.642,1.814,0.082
410.724,-31.846,920.695,-1.113,1.560,-0.334
442.737,-2.277,923.687,0.041,0.963,-0.284
470.892,1.701,926.037,-0.260,0.399,0.746
488.700,-7.710,927.832,-1.067,0.392,1.461
493.126,7.880,922.409,-1.249,0.645,1.404
490.822,21.417,916.270,-1.169,0.586,1.956
469.794,5.163,914.198,-1.748,0.157,2.873
443.827,-5.698,914.488,-1.965,-0.125,3.204
431.769,-5.875,918.626,-1.252,-0.391,3.277
426.408,-6.377,922.922,-0.582,-0.653,3.645
436.205,-13.369,930.248,-0.289,-0.715,4.245
462.455,-22.358,926.952,0.102,-0.874,4.557
486.000,-16.000,906.000,1.120,-1.120,4.410
492.929,-24.999,893.007,1.844,-1.418,4.577
491.716,-51.947,885.322,2.174,-1.770,4.505
480.468,-58.831,875.076,3.045,-2.210,3.605
456.537,-54.211,872.607,3.860,-2.707,3.143
440.520,-62.657,874.735,3.755,-3.063,2.984
435.194,-68.816,876.043,2.969,-3.343,2.435
436.514,-60.272,874.902,2.583,-3.344,1.692
449.662,-54.383,875.754,2.531,-2.975,1.082
467.608,-44.658,878.341,2.353,-2.535,0.807
488.798,-28.828,871.630,2.064,-2.240,0.722
508.431,-18.429,855.336,1.267,-2.068,0.936
498.770,-20.612,844.273,0.175,-1.854,1.293
467.932,-44.849,844.875,-1.082,-1.586,1.746
454.531,-62.954,847.183,-1.680,-1.094,1.768
456.000,-57.000,851.000,-1.050,-0.420,1.330
449.846,-55.355,870.559,-0.296,0.082,1.641
439.716,-73.301,898.420,0.193,0.406,2.285
451.096,-88.207,906.959,0.903,0.688,2.306
481.437,-74.084,895.192,2.536,1.013,1.583
494.082,-60.043,885.775,4.289,1.102,1.109
478.487,-77.651,889.576,5.242,0.836,1.065
448.647,-88.491,896.499,6.829,0.538,0.190
425.870,-65.308,905.107,9.827,0.234,-0.674
425.260,-42.466,917.404,12.809,-0.028,-0.640
442.859,-35.837,928.085,15.033,-0.152,-0.209
470.213,-29.636,941.146,16.987,-0.004,0.345
493.210,-17.523,948.762,18.261,0.398,0.863
503.033,-1.377,945.196,18.922,0.570,1.308
486.143,5.098,942.142,19.005,0.366,1.473
446.000,2.000,951.000,18.830,-0.210,1.330
426.879,-2.667,962.539,19.725,-1.054,0.861
433.076,0.900,959.057,21.200,-1.958,0.448
436.806,6.142,955.611,21.954,-2.807,0.910
441.342,-11.294,957.353,21.489,-3.291,1.451
457.979,-12.771,951.832,21.444,-3.673,0.827
481.834,11.210,939.274,22.502,-4.408,0.036
486.254,21.154,919.496,22.882,-5.560,0.166
468.430,19.292,904.030,22.569,-6.841,0.235
454.359,18.895,887.037,22.163,-7.894,-0.293
443.310,33.769,866.389,21.483,-8.805,-0.651
434.459,45.023,853.648,19.880,-9.097,-0.458
438.888,51.118,840.661,17.696,-8.626,-0.189
460.871,66.107,829.748,15.812,-8.119,-0.092
496.064,65.816,814.006,13.619,-7.607,0.476
511.000,59.000,798.000,10.920,-6.790,1.260
504.395,57.347,793.054,8.378,-5.582,1.638
505.728,54.332,780.868,6.571,-4.542,1.967
494.218,47.543,769.076,4.845,-3.938,2.455
468.532,31.464,776.026,2.658,-2.983,3.030
461.185,18.569,795.875,0.847,-1.820,3.226
475.444,16.954,810.011,-0.615,-0.924,3.158
492.864,9.854,815.518,-1.983,-0.078,3.460
494.311,-12.949,826.050,-2.841,0.588,3.650
493.870,-34.740,836.939,-2.589,1.095,3.159
495.061,-35.204,845.438,-0.914,1.349,2.094
474.961,-26.134,855.008,0.832,1.229,1.524
452.070,-33.427,868.662,1.366,1.003,1.697
443.308,-39.825,883.227,1.308,0.676,1.363
445.519,-27.616,900.188,1.348,0.660,0.867
469.000,-15.000,922.000,1.400,0.910,0.840
501.811,-6.050,930.851,0.748,0.982,0.954
520.277,-3.129,930.508,-0.612,0.874,1.085
512.483,-6.394,926.676,-1.483,0.397,0.722
480.936,-6.568,922.956,-1.364,-0.389,-0.128
444.845,-3.025,933.132,-0.754,-1.518,-0.912
426.820,6.473,945.031,-0.714,-2.583,-1.510
447.905,11.965,951.441,-1.808,-3.184,-1.592
487.666,8.168,953.366,-4.070,-3.374,-1.213
500.914,12.365,943.537,-6.289,-2.961,-1.153
485.051,23.175,936.449,-6.915,-2.938,-1.266
465.876,24.913,932.856,-6.660,-3.906,-1.314
450.223,27.312,921.390,-6.046,-5.250,-1.839
430.325,37.248,917.848,-5.473,-6.375,-2.351
431.663,49.311,910.738,-5.202,-6.925,-2.540
462.000,66.000,892.000,-4.970,-7.420,-2.310
491.986,58.278,882.727,-5.593,-7.670,-1.053
516.083,32.601,876.602,-6.163,-7.033,-0.163
530.264,41.298,868.342,-5.155,-6.025,-0.149
525.021,55.483,864.412,-3.747,-5.435,0.629
492.733,41.559,865.648,-3.569,-5.431,1.776
456.618,27.086,863.456,-3.542,-5.554,1.980
447.040,28.376,852.121,-2.580,-5.682,1.508
452.278,25.245,846.874,-2.089,-5.750,1.511
466.518,3.444,851.132,-2.425,-5.392,1.792
485.649,5.532,851.542,-2.029,-4.718,1.295
500.066,36.257,847.270,-0.686,-4.234,0.941
506.492,41.746,847.483,-0.111,-4.281,1.537
501.566,26.991,847.578,-0.206,-4.557,2.042
495.714,27.332,845.617,0.228,-4.602,1.922
501.000,39.000,839.000,0.420,-4.340,1.890
505.119,36.139,829.387,-0.731,-4.203,2.632
489.807,3.763,833.370,-3.119,-3.997,3.626
477.640,-29.995,839.592,-4.471,-3.071,3.684
486.169,-27.075,843.138,-3.357,-2.160,2.966
498.698,-18.066,851.194,-1.676,-1.643,2.876
513.497,-23.636,858.277,-0.975,-1.384,3.070
519.650,-13.989,861.010,-1.083,-1.639,2.703
503.720,-14.708,858.375,-1.936,-1.886,2.657
482.317,-31.855,851.866,-3.119,-1.835,2.186
465.557,-27.784,845.395,-3.373,-1.891,0.789
463.886,-27.593,850.472,-3.004,-2.370,0.204
488.226,-39.212,855.518,-3.126,-2.779,-0.033
506.577,-27.881,848.196,-3.166,-2.526,-0.668
498.960,-12.137,843.878,-2.730,-2.131,-0.730
487.000,-22.000,844.000,-2.450,-2.170,-0.420
479.684,-30.092,839.308,-2.065,-2.385,-0.613
477.289,-14.386,830.082,-1.336,-2.041,-1.252
475.605,2.439,826.277,-1.223,-1.340,-1.467
475.809,4.299,827.097,-2.125,-0.947,-1.117
480.734,1.740,824.710,-3.234,-0.642,-0.985
483.984,8.007,824.307,-3.342,-0.251,-1.162
496.402,14.274,828.466,-2.687,0.251,-1.180
514.004,17.672,835.490,-2.509,0.678,-0.934
521.677,19.278,839.741,-2.737,0.913,-0.584
518.790,9.577,839.859,-2.988,1.293,-0.151
507.829,-0.004,839.834,-2.797,1.709,0.140
498.965,-2.810,840.601,-1.731,1.832,0.095
482.553,-5.097,850.481,-0.511,1.713,0.092
465.642,-12.149,869.938,0.130,1.779,0.127
468.000,-11.000,883.000,0.280,1.960,-0.140
473.161,2.775,892.880,-0.192,2.065,-0.240
483.525,2.219,906.987,-1.485,2.410,-0.040
501.416,-1.675,912.309,-2.477,2.609,-0.425
512.701,1.824,910.586,-2.589,2.292,-1.080
508.699,-0.941,908.282,-2.813,1.569,-1.166
483.157,-7.401,916.379,-3.569,0.625,-1.133
465.809,-7.444,932.838,-4.556,-0.201,-1.356
476.790,6.842,932.479,-5.518,-1.053,-1.731
484.943,11.617,931.466,-6.919,-1.786,-1.605
477.304,-4.091,936.251,-8.740,-2.093,-1.069
475.384,-10.431,930.050,-9.241,-2.333,-1.275
485.699,-4.190,924.986,-8.368,-2.672,-1.458
500.557,-7.188,916.339,-7.812,-2.801,-1.064
510.862,-15.066,907.522,-7.694,-2.621,-0.796
510.000,-25.000,912.000,-7.840,-2.310,-0.280
504.963,-39.830,916.802,-8.019,-1.831,0.074
494.994,-39.727,916.902,-7.336,-1.428,0.012
478.272,-46.454,918.324,-6.318,-1.514,0.340
469.951,-69.573,920.198,-5.439,-1.928,0.173
465.535,-60.472,913.299,-3.652,-2.629,-1.120
457.713,-32.965,907.331,-1.461,-3.821,-2.208
464.233,-27.241,904.532,-0.703,-5.455,-2.695
485.343,-29.348,893.955,-1.093,-7.104,-3.361
502.651,-15.513,882.998,-1.158,-8.079,-4.303
508.150,7.713,875.940,-1.195,-8.425,-4.697
507.242,14.993,873.930,-2.266,-8.753,-4.073
509.306,14.960,864.441,-3.834,-8.894,-3.393
511.024,23.834,843.272,-4.459,-8.532,-3.149
508.409,20.987,828.638,-4.140,-8.050,-2.616
505.000,-0.000,826.000,-3.920,-7.490,-1.890
507.224,-6.998,823.308,-3.434,-6.485,-1.729
509.137,14.346,813.863,-2.435,-5.297,-1.714
497.981,18.487,818.637,-2.272,-4.355,-0.841
487.910,-8.275,831.902,-3.000,-3.844,-0.026
492.457,-13.857,828.613,-2.976,-3.628,-0.224
507.354,-0.420,815.747,-2.029,-3.263,-0.533
507.971,0.508,804.548,-1.852,-3.005,-0.637
486.444,-14.249,809.014,-2.423,-3.073,-0.696
481.294,-36.544,821.339,-2.285,-3.058,-0.917
496.265,-31.682,824.805,-1.099,-2.691,-1.620
508.546,-4.591,825.171,0.684,-2.039,-1.767
509.377,-5.513,830.387,1.478,-1.557,-0.809
500.842,-30.419,844.779,1.043,-0.937,0.032
508.639,-37.042,853.246,1.215,0.180,0.031
524.000,-23.000,848.000,1.890,1.120,-0.140
512.346,-22.637,844.302,1.731,1.580,0.216
480.443,-43.776,856.599,0.753,1.563,0.275
463.574,-55.698,874.623,0.257,1.171,-0.667
479.616,-43.291,873.636,0.478,0.511,-1.649
494.466,-36.803,865.993,-0.115,-0.451,-1.909
483.434,-58.301,871.149,-1.707,-1.170,-1.942
480.916,-74.059,880.441,-2.684,-1.575,-2.832
503.235,-60.474,876.931,-2.416,-2.131,-4.071
514.922,-48.838,864.463,-2.365,-2.351,-4.350
507.601,-52.245,863.763,-3.263,-2.071,-4.510
507.305,-45.404,867.714,-3.749,-1.833,-5.255
513.941,-22.428,860.684,-3.492,-1.701,-5.740
514.830,-4.474,842.212,-3.504,-1.680,-5.559
496.911,-7.600,839.741,-4.105,-1.587,-5.121
473.000,-17.000,858.000,-4.690,-1.470,-4.970
482.497,-8.289,858.412,-4.445,-1.318,-5.209
514.008,14.858,852.840,-3.857,-0.801,-5.187
534.091,13.670,859.159,-4.269,-0.304,-4.145
542.583,-16.717,866.405,-4.932,0.296,-3.197
545.374,-17.974,868.621,-3.783,0.994,-3.500
540.900,2.162,862.142,-1.446,0.958,-3.655
522.058,-3.161,859.155,-0.001,0.212,-3.114
496.618,-15.654,863.692,0.769,-0.641,-3.115
481.259,-10.715,865.192,1.898,-1.333,-3.675
474.420,7.461,864.496,2.843,-1.812,-3.881
487.437,16.959,865.682,3.109,-1.888,-3.486
523.634,20.490,865.028,2.995,-1.741,-3.052
551.071,33.475,859.698,2.721,-1.401,-2.764
554.736,41.140,849.260,2.460,-0.925,-2.112
528.000,32.000,841.000,1.540,-0.840,-1.330
492.467,12.640,837.637,0.212,-0.901,-1.154
478.642,1.275,833.275,-0.338,-1.041,-1.542
470.367,-2.965,836.649,-0.701,-1.250,-1.898
479.113,-8.993,847.780,-1.372,-1.238,-1.974
501.737,-7.091,849.679,-2.429,-1.313,-1.942
511.263,-2.654,837.347,-3.815,-1.531,-1.878
512.654,-8.843,823.129,-5.065,-1.928,-1.981
498.472,-17.889,813.750,-6.285,-2.416,-2.469
484.497,-9.114,802.610,-7.247,-2.883,-3.154
476.786,4.998,793.316,-8.769,-3.402,-3.556
465.917,-1.940,792.073,-11.513,-3.444,-3.492
475.707,-21.710,794.541,-14.089,-2.928,-3.448
501.155,-41.038,787.668,-15.140,-1.794,-3.776
525.082,-44.095,781.060,-13.788,0.202,-4.157
534.000,-36.000,790.000,-10.990,2.380,-3.710
531.980,-35.414,795.934,-8.245,4.234,-2.589
529.100,-26.316,796.675,-5.727,5.615,-2.031
503.253,-17.666,803.101,-3.680,6.639,-1.738
475.910,-28.456,813.671,-1.979,7.502,-1.393
475.185,-35.618,820.257,-0.519,7.975,-1.620
485.281,-25.907,819.929,0.778,8.256,-1.918
491.139,-16.832,825.820,1.643,8.478,-1.722
489.255,-22.349,838.922,1.627,8.414,-1.351
487.653,-24.886,852.452,1.519,8.265,-1.235
490.510,-12.048,859.095,1.718,8.315,-1.432
492.168,0.988,858.286,2.316,8.241,-1.673
484.121,-1.653,865.402,2.969,7.881,-1.585
476.832,-13.809,873.207,2.964,7.785,-1.379
478.471,-6.444,871.687,2.950,7.934,-1.665
481.000,7.000,876.000,2.590,8.120,-1.540
482.027,3.729,891.390,0.899,8.315,-0.726
483.960,2.595,905.048,-1.313,8.341,-0.387
498.172,1.345,907.282,-3.400,8.256,-0.195
506.228,-7.092,904.141,-5.672,7.857,-0.005
490.294,-18.672,904.802,-8.198,7.258,-0.163
479.251,-24.995,908.545,-10.720,6.513,-0.641
483.317,-16.271,905.485,-13.309,5.365,-1.373
478.981,-19.598,900.093,-16.600,4.269,-1.482
467.401,-41.424,902.135,-19.558,3.550,-1.643
474.112,-47.291,905.977,-20.437,3.117,-2.516
487.154,-42.871,916.458,-20.500,2.953,-2.798
497.903,-48.075,927.469,-20.387,3.328,-2.929
520.462,-49.907,923.523,-18.119,3.942,-3.406
531.791,-59.106,917.561,-13.864,4.239,-3.104
515.000,-89.000,917.000,-9.520,4.690,-2.170
491.595,-95.474,916.084,-5.335,5.214,-1.807
479.320,-60.056,917.327,-1.522,5.134,-1.862
464.309,-30.566,925.296,0.212,4.407,-1.191
443.251,-25.929,936.371,-0.019,3.300,-0.530
441.552,-11.216,937.967,0.134,2.155,-1.141
461.513,21.291,931.251,1.023,0.979,-2.136
483.320,34.760,925.689,0.993,-0.226,-2.209
491.965,20.240,919.860,-0.246,-1.080,-1.703
486.879,13.746,901.564,-1.228,-1.334,-1.714
469.493,16.869,882.096,-1.562,-1.228,-1.540
450.771,-4.444,886.301,-2.173,-0.817,-0.498
455.227,-27.106,899.004,-2.403,-0.030,0.050
473.320,-17.635,905.911,-1.328,0.822,0.015
483.879,-6.941,914.472,-0.247,1.656,0.639
483.000,-19.000,922.000,0.000,2.030,1.610
473.051,-26.131,921.660,0.330,1.702,1.745
458.754,-11.939,916.654,0.957,0.906,1.202
451.443,-0.574,909.783,1.304,-0.343,0.805
454.610,-2.370,898.623,0.694,-1.736,0.658
448.470,-17.521,892.641,-1.136,-3.050,0.892
447.008,-31.934,891.722,-2.692,-3.492,0.931
449.736,-13.971,893.485,-3.098,-3.121,0.792
446.427,-4.776,904.179,-3.703,-2.829,1.844
469.653,-30.472,907.810,-4.580,-2.186,2.951
500.590,-35.582,894.426,-3.959,-1.094,2.887
505.707,-28.013,880.589,-1.812,0.050,3.137
486.376,-46.246,882.471,0.012,0.475,3.910
453.842,-68.198,887.789,0.914,0.050,4.101
430.906,-77.026,888.186,1.374,-0.324,3.707
431.000,-85.000,891.000,1.330,-0.630,3.290
440.324,-89.784,893.880,0.859,-0.940,2.982
441.788,-91.909,906.841,0.288,-1.186,2.738
452.102,-92.075,917.676,-0.036,-1.446,2.366
477.563,-74.128,906.500,0.154,-1.873,1.544
499.487,-56.179,890.450,0.221,-2.470,0.850
496.476,-55.883,881.139,-0.611,-2.977,0.562
472.144,-59.052,873.436,-1.757,-3.385,0.016
456.549,-54.708,868.198,-2.597,-3.508,-0.601
454.303,-44.729,866.540,-3.495,-3.282,-0.732
458.154,-40.234,862.999,-4.338,-3.097,-0.470
458.974,-39.963,861.378,-5.094,-3.016,0.091
469.575,-35.473,858.019,-5.845,-2.469,0.414
496.112,-16.022,844.260,-6.283,-1.683,0.233
510.959,-9.771,835.517,-6.908,-1.378,0.587
505.000,-38.000,836.000,-7.420,-1.190,0.980
480.563,-53.837,835.995,-6.891,-0.779,0.675
468.951,-54.313,837.858,-5.559,-0.265,0.591
469.099,-61.642,849.442,-4.212,0.014,0.754
451.607,-68.377,873.920,-3.088,0.201,1.202
460.035,-73.015,893.399,-1.306,0.694,1.643
500.083,-62.881,896.541,0.911,1.032,1.472
523.878,-44.030,890.368,2.794,1.198,1.329
522.172,-44.315,882.450,4.375,0.961,1.278
497.746,-48.802,879.218,5.603,0.116,0.803
474.864,-33.514,877.721,6.824,-0.520,0.050
470.731,-13.542,875.959,7.469,-1.044,-0.159
462.216,-11.272,879.199,6.621,-1.678,0.573
449.261,-32.498,887.561,4.564,-1.871,1.620
458.162,-37.980,890.842,3.035,-1.364,1.943
485.000,-10.000,888.000,3.080,-0.840,1.820
501.943,-6.324,892.075,2.114,-0.835,2.801
504.919,-37.305,892.386,-0.644,-0.719,3.619
504.745,-50.537,878.030,-2.453,-0.441,2.838
501.240,-46.658,867.782,-2.873,-0.291,2.274
485.751,-65.368,867.843,-3.274,-0.497,2.321
452.594,-93.259,878.624,-3.679,-1.128,2.090
429.530,-102.996,897.264,-3.138,-1.480,1.638
443.022,-91.613,905.852,-1.785,-1.535,1.083
468.540,-72.526,906.770,-0.662,-1.601,0.943
493.443,-76.723,905.256,-0.065,-1.643,1.052
517.240,-85.524,893.140,0.586,-1.766,0.715
517.587,-76.519,878.719,1.623,-1.825,0.164
499.663,-66.310,869.915,2.567,-1.855,-0.363
476.129,-60.528,871.153,3.234,-2.253,-0.645
454.000,-61.000,883.000,3.430,-2.730,-0.560
447.391,-55.843,887.324,2.970,-2.868,-0.387
458.113,-45.318,884.540,2.182,-2.841,-0.021
476.958,-50.792,882.697,0.745,-2.599,0.441
482.335,-58.041,881.592,-0.575,-2.060,0.342
479.778,-47.808,883.554,-0.407,-1.486,-0.208
485.290,-40.626,880.695,0.258,-1.345,-0.429
484.689,-41.988,874.513,0.590,-1.472,-0.425
484.529,-38.380,864.184,1.433,-1.342,-0.612
491.645,-35.040,850.072,3.156,-1.351,-0.693
485.339,-38.307,854.717,4.537,-1.514,-0.106
469.634,-46.344,868.943,4.614,-1.226,0.809
465.143,-26.751,872.800,4.414,-0.653,0.945
458.488,7.069,882.779,3.805,-0.388,1.291
448.799,-6.615,901.114,1.917,-0.427,2.453
468.000,-23.000,897.000,0.560,-0.350,2.310
502.810,-4.391,871.694,0.826,-0.110,1.551
518.808,-4.022,852.273,1.067,0.111,1.958
506.517,-25.361,840.612,0.731,0.135,2.511
479.358,-36.748,840.088,0.877,0.250,2.826
466.047,-26.579,843.588,1.484,0.810,3.111
459.928,-5.825,844.610,1.518,1.362,3.601
450.687,-1.455,850.360,0.364,1.790,4.710
458.624,-9.748,847.737,-1.471,2.521,5.444
478.542,-4.048,836.559,-3.175,3.477,5.446
495.315,4.877,825.204,-5.128,4.534,5.753
499.119,-5.114,815.399,-7.812,5.692,6.491
491.053,-18.381,814.937,-10.427,7.003,7.114
486.632,-30.304,823.435,-11.956,8.372,7.554
474.488,-50.862,842.845,-12.408,9.277,8.168
464.000,-83.000,871.000,-12.110,9.870,8.960
464.659,-116.439,892.695,-11.016,10.162,9.096
455.097,-132.114,903.914,-9.184,9.847,8.444
449.961,-149.541,909.108,-6.594,9.037,7.524
450.446,-171.991,912.869,-3.453,7.458,6.051
444.625,-178.499,915.301,-0.253,5.606,4.166
441.054,-171.205,915.147,2.501,3.739,2.313
432.193,-154.773,921.800,3.653,1.588,0.738
430.169,-143.726,928.997,3.079,-0.231,-0.401
449.505,-127.710,924.257,2.356,-1.621,-1.720
470.143,-105.610,921.820,1.735,-2.551,-2.768
484.328,-100.217,918.431,0.524,-2.853,-3.120
494.178,-87.922,902.750,-0.571,-2.845,-3.625
488.646,-69.646,889.923,-1.268,-2.637,-3.971
477.785,-61.602,880.135,-2.080,-2.155,-3.993
472.000,-44.000,866.000,-2.660,-1.680,-3.920
462.432,-24.813,858.480,-3.501,-1.386,-3.339
456.966,-16.436,853.346,-5.085,-0.889,-2.660
457.664,-6.164,841.011,-6.698,-0.328,-2.275
458.281,5.711,835.000,-8.269,0.067,-1.834
462.111,7.625,834.226,-9.642,0.566,-1.255
475.034,9.205,829.818,-10.398,1.199,-0.933
496.621,13.830,826.914,-10.409,1.793,-0.496
509.741,-3.754,826.145,-9.986,2.452,0.796
506.285,-28.651,822.233,-8.887,3.597,1.951
494.344,-30.134,819.080,-6.113,4.958,2.539
480.159,-32.697,827.173,-2.623,5.953,3.600
466.976,-47.825,838.641,0.728,6.724,4.717
453.854,-49.550,848.224,4.485,7.535,5.226
442.812,-42.050,862.320,8.148,8.293,5.686
442.000,-38.000,875.000,10.920,8.750,6.230
446.649,-37.165,885.229,12.530,8.825,6.538
447.473,-47.454,896.900,13.011,8.846,6.822
450.655,-53.387,905.570,12.993,8.965,6.710
450.292,-49.266,917.050,12.745,8.613,6.417
441.713,-62.471,934.268,11.512,7.791,6.860
440.396,-77.696,942.841,10.011,6.925,6.705
439.658,-74.635,945.329,9.258,5.700,5.828
433.438,-77.286,951.539,8.171,4.178,5.482
428.282,-85.929,955.551,6.387,2.617,4.904
423.544,-88.978,956.420,4.509,0.961,3.931
428.412,-91.530,953.330,2.559,-0.532,3.023
437.234,-92.091,946.092,0.354,-1.678,2.271
439.482,-95.874,935.208,-1.818,-2.568,1.746
445.291,-104.419,924.908,-3.523,-3.321,1.343
453.000,-113.000,922.000,-4.760,-3.710,0.910
456.635,-115.296,918.013,-5.296,-3.718,0.348
458.113,-115.933,911.444,-5.401,-3.638,0.124
456.837,-130.255,908.539,-5.632,-3.247,0.181
454.732,-139.519,913.961,-5.496,-2.287,-0.010
451.630,-129.978,924.810,-4.320,-1.125,-0.451
449.812,-119.383,929.162,-2.412,-0.579,-0.628
447.594,-119.283,927.909,-0.567,-0.643,-0.565
438.738,-121.249,927.901,1.128,-0.881,-0.932
433.025,-111.284,930.705,2.848,-1.430,-1.681
433.753,-88.485,938.087,4.189,-2.346,-2.601
435.198,-63.379,946.780,4.274,-3.632,-3.042
446.925,-53.391,945.411,3.055,-5.073,-3.019
461.088,-47.090,934.452,1.744,-6.414,-3.470
461.496,-37.073,927.290,0.763,-7.496,-3.788
461.000,-38.000,922.000,-0.210,-8.330,-3.710
465.618,-32.178,913.925,-1.062,-8.967,-3.779
463.569,-20.716,911.944,-2.109,-9.213,-3.477
455.315,-29.003,914.375,-3.887,-9.249,-2.541
459.459,-35.813,903.970,-5.261,-8.955,-2.216
468.546,-20.101,888.637,-5.383,-8.409,-2.512
453.839,-21.402,894.976,-6.210,-8.060,-1.895
438.706,-37.325,901.826,-7.794,-7.905,-1.563
445.183,-21.909,893.660,-8.378,-7.967,-2.081
453.183,-8.357,886.207,-8.982,-8.229,-1.871
453.227,-24.404,874.734,-10.184,-8.789,-1.440
447.250,-50.209,873.271,-10.921,-9.290,-1.149
456.320,-69.197,879.052,-10.422,-9.194,-1.102
481.326,-58.963,866.746,-8.322,-8.737,-1.369
490.910,-46.135,855.028,-5.822,-8.263,-0.643
481.000,-69.000,851.000,-4.200,-7.840,0.770
464.341,-94.946,847.187,-2.686,-7.149,1.280
453.713,-86.338,844.919,-0.363,-6.070,1.021
454.136,-64.918,830.083,1.917,-5.136,1.104
453.720,-66.645,816.335,2.719,-4.478,1.653
447.691,-86.824,816.303,2.228,-3.447,2.028
447.550,-89.547,814.423,2.526,-1.963,1.592
447.774,-66.187,818.744,3.784,-0.687,1.282
446.541,-57.547,826.858,3.716,0.277,2.161
462.688,-63.527,822.345,2.585,1.291,2.738
491.406,-57.951,810.645,1.957,2.323,2.662
509.537,-65.849,800.338,1.610,3.160,2.967
499.845,-84.616,805.711,1.446,4.106,3.206
474.505,-86.800,819.355,1.740,4.968,3.111
462.411,-78.654,821.776,2.142,5.282,3.090
461.000,-72.000,821.000,2.030,5.670,3.220
447.614,-72.316,825.807,1.109,6.230,3.397
440.400,-76.937,832.117,-0.217,6.646,3.545
464.190,-70.685,826.527,-1.084,7.169,3.160
489.709,-52.369,819.559,-1.738,7.671,2.704
498.710,-57.103,826.183,-3.298,8.048,3.069
495.392,-80.231,828.153,-4.881,8.427,3.154
487.337,-80.195,820.443,-5.085,9.015,2.627
470.318,-73.602,820.268,-4.764,9.694,2.628
433.534,-91.891,837.717,-5.020,9.885,3.186
415.461,-120.297,855.779,-5.033,9.867,3.245
430.676,-120.822,857.480,-3.431,10.154,2.218
446.315,-102.133,863.683,-1.239,10.480,1.480
445.275,-104.024,879.453,-0.251,10.297,1.573
443.859,-110.769,884.903,0.051,9.525,1.134
458.000,-97.000,880.000,0.490,8.750,0.140
468.633,-81.926,878.203,0.873,8.147,-0.573
466.354,-82.216,887.546,1.023,7.484,-0.686
456.779,-86.933,895.619,1.138,6.872,-0.486
442.849,-85.551,899.200,1.167,6.441,-0.348
425.148,-83.824,914.263,0.837,6.091,-0.103
418.614,-83.290,933.640,0.840,5.614,-0.027
435.978,-71.723,941.190,1.364,4.987,-0.381
465.669,-60.041,941.123,1.310,4.256,-0.565
489.041,-69.524,938.726,0.287,3.655,-0.430
487.948,-78.732,934.908,-0.741,3.416,-0.535
477.449,-70.760,928.637,-0.956,3.217,-0.672
455.743,-68.129,926.195,-1.134,2.801,-0.177
416.486,-83.688,937.112,-1.830,2.434,0.507
403.775,-88.432,945.576,-1.875,2.291,0.330
423.000,-64.000,949.000,-0.910,2.030,-0.210
453.760,-62.069,955.885,-1.014,1.650,0.287
482.946,-91.854,947.494,-2.190,1.554,0.760
484.459,-94.209,932.024,-1.855,1.894,0.047
467.286,-77.091,930.159,-0.367,2.456,-0.404
455.213,-68.622,927.975,0.794,2.375,-0.140
448.909,-66.043,920.212,1.205,1.773,0.335
446.943,-69.155,915.844,0.873,1.692,0.790
445.211,-64.701,914.198,0.391,1.762,0.837
444.207,-59.341,911.360,-0.329,1.471,1.092
449.740,-63.159,910.200,-1.412,1.247,1.306
452.230,-55.372,904.026,-2.385,1.025,0.942
440.931,-53.660,899.264,-3.394,0.515,1.059
422.826,-74.499,903.791,-4.853,0.123,1.219
414.555,-76.274,894.939,-5.448,-0.113,0.594
415.000,-64.000,889.000,-5.040,-0.490,0.350
420.565,-66.304,889.862,-5.185,-0.864,0.558
428.517,-67.152,883.729,-5.535,-1.092,0.409
426.808,-63.064,888.502,-5.725,-1.130,0.341
427.868,-57.808,890.670,-5.939,-1.115,0.541
435.885,-49.670,890.142,-6.543,-1.145,0.828
437.213,-45.079,887.412,-7.848,-1.430,1.319
425.766,-59.952,882.068,-9.666,-1.921,1.854
412.460,-86.466,888.610,-11.142,-2.098,2.038
412.467,-97.786,886.675,-11.276,-2.146,1.841
411.248,-105.608,881.401,-11.023,-2.213,1.964
406.079,-120.847,879.605,-10.897,-2.008,2.204
407.240,-134.426,880.146,-10.469,-1.658,1.928
413.045,-137.574,889.048,-9.617,-1.267,1.570
416.907,-132.179,900.004,-8.241,-0.867,1.018
408.000,-131.000,916.000,-6.930,-0.980,0.560
400.292,-138.301,924.057,-6.379,-1.431,0.524
413.929,-148.385,921.063,-6.419,-1.493,-0.053
428.459,-151.598,919.377,-5.988,-1.486,-0.948
427.914,-160.234,928.068,-5.147,-1.592,-1.333
438.422,-172.221,940.722,-4.412,-1.612,-1.615
457.355,-165.975,943.151,-3.693,-1.603,-2.145
459.546,-152.209,949.869,-3.192,-1.536,-2.304
448.191,-148.015,958.793,-2.951,-1.594,-2.293
431.024,-146.334,956.904,-2.863,-1.927,-2.651
415.179,-138.648,953.867,-3.049,-2.374,-2.957
407.919,-127.537,949.385,-3.436,-2.711,-3.692
413.742,-108.599,941.664,-3.089,-3.027,-4.641
418.516,-97.930,943.916,-2.738,-3.407,-4.670
422.558,-98.393,945.060,-3.414,-3.763,-4.302
440.000,-81.000,933.000,-3.850,-4.060,-4.270
451.167,-59.722,930.161,-4.168,-4.241,-4.072
458.960,-55.448,919.051,-4.955,-4.542,-3.446
470.031,-57.154,893.716,-5.557,-5.052,-3.122
465.139,-60.487,890.251,-5.906,-5.404,-2.987
454.556,-69.754,891.499,-5.823,-5.633,-2.680
450.362,-74.490,880.786,-4.804,-6.053,-2.357
445.384,-80.949,881.590,-3.567,-6.219,-1.688
435.516,-93.562,888.672,-2.863,-5.784,-1.015
437.918,-90.614,890.327,-1.587,-5.233,-0.653
450.270,-90.492,885.669,-0.062,-4.658,-0.156
451.836,-107.376,882.055,0.669,-4.006,0.370
452.329,-117.149,889.978,1.696,-3.310,0.444
450.100,-104.940,895.992,3.333,-2.746,-0.035
453.096,-80.550,904.825,4.875,-2.769,-0.362
457.000,-69.000,894.000,5.110,-3.150,-0.210
449.736,-75.153,888.119,3.823,-3.640,-0.131
436.467,-87.066,898.396,2.258,-3.921,-0.234
432.707,-85.770,897.357,1.453,-3.889,-0.414
442.677,-67.766,906.932,1.280,-3.994,-0.445
439.436,-66.156,900.131,0.123,-4.098,0.321
451.086,-85.075,900.135,-1.212,-4.345,1.161
457.874,-88.540,879.705,-1.777,-4.556,1.022
462.983,-81.373,870.181,-1.893,-4.665,0.782
463.679,-77.609,867.288,-2.155,-5.219,0.503
436.517,-78.832,848.232,-3.430,-5.936,0.293
430.853,-91.369,852.588,-4.456,-6.394,0.074
421.771,-96.802,824.204,-4.964,-6.376,-0.698
418.399,-95.847,856.244,-5.261,-6.015,-0.793
410.910,-94.524,854.925,-5.670,-5.243,-0.791
453.000,-88.000,866.000,-5.740,-4.200,-0.770
503.085,-74.996,869.274,-5.109,-2.951,-0.749
519.038,-68.343,844.773,-3.705,-1.584,-0.545
551.878,-66.307,885.833,-1.387,-0.729,0.251
528.343,-41.955,823.655,0.524,-0.365,0.486
549.156,-30.498,896.384,2.841,-0.654,1.838
486.227,-42.898,831.159,3.650,-0.974,2.881
476.055,-65.768,884.304,4.394,-1.607,4.290
452.690,-63.020,902.807,4.801,-1.822,4.808
71.635,-9.441,146.112,0.801,-0.295,0.785
