acc_x[mg],acc_y[mg],acc_z[mg],gyro_x[dps],gyro_y[dps],gyro_z[dps]
357.000,-8.000,944.000,-3.010,0.490,-0.840
375.755,-5.930,982.078,-3.262,0.456,-0.828
344.960,-2.955,891.488,-3.016,0.329,-0.532
378.898,-7.511,984.445,-3.255,0.408,-0.398
345.651,-9.471,905.062,-2.849,0.435,-0.387
367.493,-8.109,969.007,-2.465,0.540,-0.682
354.007,-2.225,934.496,-1.516,0.652,-0.868
362.690,5.508,954.315,-0.880,0.698,-0.905
361.586,9.873,953.819,-0.512,0.575,-0.658
354.810,8.304,937.319,-0.493,0.389,-0.377
360.913,1.987,952.684,-0.745,0.209,-0.335
348.337,-2.201,927.708,-0.789,0.070,-0.407
358.238,-5.937,950.389,-0.886,0.107,-0.565
353.094,-10.064,936.323,-0.904,0.276,-0.636
355.145,-10.817,952.037,-0.710,0.522,-0.633
355.000,-8.000,950.000,-0.070,0.560,-0.700
354.934,-6.895,946.487,0.593,0.436,-0.711
357.800,-6.772,952.021,1.446,0.325,-0.670
353.484,-3.866,941.430,2.298,0.181,-0.832
356.272,-2.351,952.349,2.706,0.109,-0.954
352.575,0.077,943.805,2.904,0.048,-1.007
357.938,0.937,946.174,2.638,0.096,-1.044
360.873,2.237,940.142,2.286,0.217,-0.893
360.797,3.276,938.549,1.862,0.333,-0.649
362.328,-2.291,940.068,1.388,0.673,-0.485
361.422,-1.098,938.975,1.242,1.061,-0.567
362.089,2.956,941.059,1.031,1.403,-0.388
357.229,2.849,937.039,0.669,1.798,0.035
352.969,2.848,944.524,0.314,2.250,0.149
350.916,0.595,948.634,0.038,2.825,0.231
355.000,-0.000,959.000,-0.070,3.430,0.350
361.448,4.129,966.387,-0.174,3.928,0.404
363.251,8.202,973.876,-0.513,4.205,0.571
360.110,5.396,979.670,-0.764,3.962,0.684
349.900,4.523,976.289,-0.484,3.169,0.491
341.580,8.235,979.249,0.087,2.208,0.131
338.437,9.327,976.843,0.587,1.032,-0.321
336.953,15.792,973.802,0.854,-0.313,-0.807
337.018,25.580,966.926,0.979,-1.705,-1.236
336.783,24.683,955.254,0.713,-3.196,-1.351
339.330,18.299,944.254,-0.011,-4.301,-1.346
343.206,19.619,926.503,-0.330,-5.119,-1.751
346.823,17.986,915.293,-0.416,-5.782,-1.856
350.850,11.509,911.779,-0.728,-5.833,-1.620
351.017,14.085,906.005,-0.826,-5.554,-1.524
355.000,24.000,899.000,-0.420,-5.180,-1.330
360.701,31.633,893.354,0.427,-4.579,-1.044
360.398,30.753,891.933,1.159,-3.999,-0.520
359.737,30.279,887.389,1.725,-3.501,-0.084
360.233,34.644,885.905,2.396,-2.842,0.060
361.637,40.290,886.625,2.848,-2.086,0.216
363.223,44.368,884.643,2.706,-1.275,0.613
364.116,40.453,885.056,1.958,-0.427,1.233
365.945,32.590,885.014,0.982,0.362,1.595
364.074,25.431,885.090,0.193,1.060,1.777
359.383,19.951,883.933,-0.168,1.506,1.932
355.309,14.170,885.254,-0.222,1.736,1.989
348.585,6.130,890.389,-0.191,1.877,2.084
344.430,-2.885,897.237,-0.103,2.005,2.196
346.629,-10.846,903.806,0.111,2.207,2.148
352.000,-11.000,909.000,0.350,2.520,1.960
356.629,-6.621,917.691,0.419,2.844,1.834
357.811,-3.311,924.714,0.422,2.850,1.760
358.316,-5.268,934.545,0.389,2.678,1.736
356.517,-13.248,946.296,0.315,2.449,1.511
354.875,-11.581,946.871,0.435,2.110,0.963
357.691,-2.163,944.832,0.765,1.826,0.467
357.853,-0.117,943.724,0.582,1.517,0.279
356.047,-1.969,936.613,-0.402,1.334,0.348
356.059,-0.078,933.091,-1.504,1.329,0.210
354.877,5.216,938.907,-2.619,1.333,-0.046
352.228,8.407,941.901,-3.810,1.281,-0.036
350.348,6.951,941.508,-4.875,1.118,-0.002
351.770,6.282,938.729,-5.511,1.160,-0.117
354.199,8.002,937.354,-5.509,1.269,-0.207
353.000,2.000,943.000,-5.460,1.400,0.000
350.273,-5.780,945.784,-5.366,1.821,0.202
349.159,-3.265,948.582,-5.002,2.175,0.239
348.774,-1.235,952.180,-4.706,2.323,0.421
349.215,-3.070,953.226,-4.296,2.208,0.496
348.182,-4.397,954.172,-3.647,1.927,0.344
345.395,-3.407,955.365,-2.798,1.688,0.067
343.928,0.248,958.239,-1.896,1.294,-0.229
343.047,1.945,959.989,-1.168,0.810,-0.411
342.976,2.207,959.291,-0.686,0.224,-0.445
342.027,0.512,957.963,-0.569,-0.395,-0.304
339.259,0.994,958.243,-0.503,-0.712,-0.333
339.719,7.689,958.916,-0.364,-0.807,-0.460
343.100,16.698,957.070,-0.375,-0.981,-0.369
346.409,20.927,953.468,-0.615,-1.221,-0.084
346.000,13.000,952.000,-1.050,-1.330,0.280
340.625,1.173,953.754,-1.268,-1.398,0.362
340.403,-1.433,954.226,-1.040,-1.284,0.287
346.023,5.356,953.233,-0.615,-0.962,0.297
349.140,11.493,952.285,-0.479,-0.717,0.498
350.359,9.228,951.584,-0.757,-0.461,0.941
351.084,3.976,948.877,-0.907,-0.349,1.128
350.936,-0.477,942.570,-0.675,-0.427,1.124
348.340,-9.344,940.037,-0.371,-0.489,1.192
343.731,-11.088,938.687,-0.041,-0.444,0.991
342.372,0.627,935.971,0.484,-0.411,0.710
343.950,4.938,935.968,0.641,-0.714,0.797
342.938,1.353,932.198,0.148,-1.031,0.958
340.648,-0.497,924.891,-0.314,-1.280,0.859
343.798,-2.154,921.815,-0.415,-1.572,0.670
348.000,-1.000,920.000,-0.280,-1.610,0.420
349.653,1.747,915.556,-0.201,-1.606,0.211
352.319,1.283,913.425,-0.346,-1.582,0.384
354.002,-3.881,910.370,-0.602,-1.397,0.693
356.485,-7.263,905.595,-0.734,-1.036,0.813
358.128,-8.683,907.217,-0.513,-0.474,0.856
356.436,-9.966,910.265,-0.219,0.035,0.936
353.797,-6.640,908.792,0.101,0.451,1.056
352.028,-3.129,906.151,0.473,0.815,1.053
352.156,-2.758,905.081,0.473,1.121,1.091
350.135,-4.657,904.157,0.199,1.420,1.160
347.578,-8.876,904.806,-0.174,1.753,1.022
346.316,-14.750,911.007,-0.630,2.131,0.985
344.342,-19.023,914.179,-1.020,2.349,0.959
342.848,-22.743,914.145,-1.288,2.386,0.909
343.000,-28.000,916.000,-1.260,2.520,0.840
344.812,-29.903,918.300,-0.909,2.764,0.483
345.034,-30.880,925.108,-0.436,2.967,0.143
345.813,-29.335,934.595,0.095,3.045,-0.090
347.861,-24.852,942.459,0.617,2.921,-0.368
347.784,-26.207,943.455,0.932,2.736,-0.673
348.115,-27.907,943.250,1.075,2.651,-0.876
347.948,-24.653,945.101,1.118,2.662,-1.070
347.106,-19.458,946.738,0.996,2.663,-1.317
344.147,-13.282,951.670,0.722,2.604,-1.393
339.220,-8.910,957.315,0.208,2.522,-1.446
336.453,-6.930,963.524,-0.566,2.256,-1.494
333.279,-5.158,964.172,-1.263,1.836,-1.629
330.227,-3.531,963.113,-1.633,1.541,-1.898
328.910,-1.661,965.284,-2.040,1.373,-2.041
330.000,-0.000,967.000,-2.660,1.120,-2.030
333.462,-0.859,970.648,-3.325,0.914,-1.957
336.393,0.001,970.983,-3.937,1.002,-2.066
337.425,2.510,972.713,-4.226,1.110,-2.037
335.871,0.518,976.812,-4.553,1.138,-1.710
334.750,0.859,980.731,-4.934,1.226,-1.608
335.124,3.145,987.294,-4.854,1.256,-1.587
336.084,1.972,988.926,-4.676,1.181,-1.383
336.105,4.675,987.148,-4.315,0.999,-1.263
334.887,7.022,985.880,-3.653,0.709,-1.216
336.352,7.688,986.932,-2.996,0.326,-1.085
337.030,11.283,984.356,-2.316,-0.213,-1.022
337.287,11.636,978.172,-1.849,-0.857,-0.907
337.853,10.909,972.882,-1.496,-1.418,-0.720
335.638,9.602,962.297,-1.141,-1.891,-0.614
335.000,6.000,956.000,-0.840,-2.310,-0.490
335.920,1.692,952.945,-0.529,-2.570,-0.371
335.577,-0.841,945.767,-0.268,-2.611,-0.202
333.321,4.596,941.338,0.292,-2.533,-0.013
333.895,10.290,937.123,0.973,-2.542,0.187
336.704,8.553,929.922,1.414,-2.611,0.454
335.470,2.484,923.897,1.863,-2.564,0.672
335.142,-2.189,921.962,2.430,-2.362,0.772
338.668,-2.966,920.315,3.162,-2.178,0.707
342.470,-3.836,914.490,3.810,-2.119,0.681
343.291,-3.986,908.583,4.243,-1.976,0.765
342.402,-4.711,904.592,4.673,-1.764,0.750
341.051,-7.388,904.450,4.868,-1.613,0.845
338.296,-11.271,907.978,4.673,-1.383,0.998
339.438,-12.764,908.943,4.364,-1.078,0.791
341.000,-8.000,908.000,4.060,-0.910,0.560
339.289,-7.234,906.215,3.699,-0.793,0.499
337.053,-14.588,906.752,3.326,-0.660,0.439
333.555,-19.645,911.194,3.002,-0.536,0.308
333.532,-12.600,913.787,2.720,-0.260,-0.118
335.702,-1.885,916.041,2.351,-0.127,-0.405
337.344,-4.834,921.250,1.601,-0.124,-0.323
337.993,-11.103,925.155,0.474,0.089,-0.366
338.785,-6.541,925.081,-0.376,0.271,-0.736
342.423,-2.653,925.879,-0.903,0.429,-1.041
342.772,-5.777,932.651,-1.623,0.760,-0.991
340.724,-8.312,939.990,-2.201,1.106,-1.024
339.174,-12.565,945.016,-2.501,1.201,-1.021
337.646,-18.140,948.735,-2.550,1.195,-1.012
338.271,-14.932,948.920,-1.979,1.173,-1.309
341.000,-9.000,950.000,-1.260,0.910,-1.470
342.225,-11.267,954.256,-1.045,0.603,-1.467
339.667,-13.809,958.324,-1.109,0.306,-1.544
338.625,-9.059,959.083,-1.099,0.029,-1.848
339.302,-2.920,958.740,-0.957,-0.220,-2.182
340.633,1.795,958.304,-0.789,-0.693,-2.245
342.102,7.493,953.547,-0.771,-1.130,-2.349
340.864,14.489,948.777,-0.690,-1.423,-2.446
339.980,17.137,946.277,-0.687,-1.731,-2.196
340.802,14.138,941.322,-0.888,-1.880,-1.966
340.669,17.619,935.334,-0.900,-1.902,-1.984
338.836,25.551,928.408,-1.023,-1.813,-1.815
339.804,26.730,922.311,-1.324,-1.539,-1.413
341.102,25.961,917.111,-1.519,-1.241,-0.996
341.042,25.911,909.951,-1.617,-0.926,-0.653
341.000,25.000,906.000,-1.610,-0.490,-0.350
339.965,24.290,905.935,-1.660,0.060,0.013
340.948,20.684,905.618,-1.862,0.474,0.378
339.498,15.579,902.471,-2.198,0.777,0.723
336.383,12.476,899.716,-2.363,1.256,0.937
333.947,7.721,900.327,-2.413,1.685,1.141
331.520,0.228,902.725,-2.539,2.051,1.373
329.882,-6.429,908.582,-2.431,2.484,1.475
329.797,-9.933,916.437,-2.070,2.970,1.477
334.643,-8.668,922.847,-1.345,3.434,1.347
339.188,-6.310,926.647,-0.346,3.605,1.394
340.061,-5.910,930.500,0.456,3.743,1.550
337.102,-6.248,936.671,0.993,3.909,1.501
332.796,-7.393,941.127,1.345,3.915,1.477
329.464,-9.516,945.782,1.376,3.922,1.555
326.000,-15.000,950.000,1.050,3.920,1.610
323.433,-18.153,956.462,0.793,3.926,1.439
320.550,-15.779,965.630,0.629,3.761,1.233
319.703,-13.671,968.012,0.394,3.282,1.053
320.564,-13.003,973.912,0.115,2.684,0.735
325.682,-16.892,978.012,-0.315,2.092,0.438
333.366,-18.847,974.325,-0.718,1.677,-0.060
334.941,-16.893,976.252,-1.157,1.454,-0.432
333.212,-15.271,976.221,-1.584,1.211,-0.485
329.725,-10.722,974.684,-1.932,0.959,-0.559
327.905,-9.483,975.586,-2.376,0.735,-0.536
327.921,-5.629,972.448,-2.687,0.460,-0.674
328.348,2.034,970.445,-2.889,0.294,-0.781
328.612,2.586,970.917,-3.073,0.145,-0.662
324.231,2.054,966.987,-3.428,-0.198,-0.631
322.000,2.000,960.000,-3.780,-0.490,-0.630
322.870,1.112,959.583,-3.950,-0.613,-0.629
324.236,0.701,960.251,-4.267,-0.770,-0.637
326.470,3.121,954.839,-4.393,-0.991,-0.545
327.225,6.041,951.579,-4.478,-1.063,-0.251
328.421,3.916,950.517,-4.529,-1.056,-0.125
327.346,2.904,951.365,-4.273,-1.147,-0.016
323.765,-0.471,953.104,-3.958,-1.270,0.298
322.045,-6.673,953.988,-3.287,-1.394,0.352
322.514,-8.905,952.648,-2.386,-1.408,0.395
325.058,-8.543,950.568,-1.387,-1.421,0.472
326.877,-7.772,951.166,-0.417,-1.562,0.573
329.470,-10.603,947.858,0.147,-1.619,0.795
332.500,-12.192,947.791,0.525,-1.608,0.833
330.449,-14.663,951.332,0.713,-1.610,0.850
328.000,-18.000,953.000,0.770,-1.610,0.910
328.008,-16.287,957.506,0.840,-1.664,0.858
327.401,-15.311,958.203,0.726,-1.821,0.731
325.782,-13.939,958.725,0.321,-2.058,0.658
324.013,-15.851,960.240,-0.244,-2.313,0.572
322.056,-23.381,959.901,-0.899,-2.670,0.456
319.525,-34.837,961.005,-1.624,-2.999,0.395
320.206,-42.059,958.844,-1.965,-3.162,0.027
323.704,-37.413,960.625,-1.894,-3.404,-0.529
328.502,-36.170,964.077,-1.979,-3.766,-0.751
335.035,-41.020,961.915,-2.215,-4.129,-0.881
338.583,-51.167,959.521,-2.475,-4.468,-1.165
338.613,-65.041,958.744,-2.600,-4.519,-1.490
335.879,-72.708,960.654,-2.199,-4.253,-1.997
332.641,-76.309,960.686,-1.401,-4.125,-2.512
332.000,-74.000,957.000,-0.350,-4.060,-2.800
335.144,-66.251,954.898,0.711,-3.868,-3.154
340.774,-58.418,957.089,1.348,-3.874,-3.582
343.702,-49.880,958.525,1.694,-4.041,-4.024
346.709,-38.562,956.471,1.930,-4.265,-4.575
347.627,-26.695,953.352,1.895,-4.647,-5.070
343.976,-18.604,945.734,1.388,-5.170,-5.374
339.689,-15.951,936.415,0.725,-5.706,-5.542
337.038,-14.349,930.412,0.244,-6.009,-5.725
337.806,-7.534,926.161,-0.265,-6.044,-5.792
337.855,-4.156,928.134,-1.081,-5.859,-5.358
339.189,-6.721,930.675,-2.045,-5.523,-4.783
342.065,-6.298,926.183,-2.504,-5.135,-4.536
343.533,-4.660,922.136,-2.338,-4.685,-4.351
347.878,-3.747,922.304,-1.504,-4.194,-4.271
353.000,1.000,926.000,-0.210,-3.710,-4.270
354.910,9.831,928.118,0.740,-3.334,-4.044
355.138,14.621,925.523,1.210,-3.084,-3.640
353.668,15.298,918.948,1.234,-2.836,-3.213
349.461,13.210,910.196,1.213,-2.629,-2.981
345.654,5.894,906.045,1.395,-2.432,-2.773
342.022,-1.941,907.729,1.372,-2.070,-2.438
337.707,-14.087,913.580,1.170,-1.569,-2.071
335.092,-23.826,921.430,0.921,-1.020,-1.764
335.486,-21.667,928.478,1.025,-0.570,-1.680
337.549,-21.618,933.386,1.521,-0.277,-1.706
338.575,-25.321,933.461,2.191,-0.196,-1.879
341.342,-31.402,935.118,3.073,-0.372,-2.181
341.609,-36.168,936.905,3.891,-0.398,-2.737
342.628,-25.704,934.790,4.839,-0.362,-3.538
348.000,-15.000,937.000,5.320,-0.560,-3.850
347.421,-13.348,941.460,4.531,-0.637,-3.783
345.939,-9.350,943.424,3.251,-0.574,-3.824
345.616,-6.082,939.659,2.088,-0.548,-3.921
344.258,-2.958,934.283,1.383,-0.606,-4.090
343.837,1.569,932.059,1.258,-0.768,-4.255
344.207,4.880,929.386,1.364,-0.956,-4.361
344.961,10.448,929.076,1.470,-1.213,-4.410
342.291,13.923,929.109,1.285,-1.520,-4.348
339.348,14.652,927.398,0.970,-1.681,-4.229
338.528,16.768,924.556,0.724,-1.599,-4.105
340.757,21.101,920.724,0.500,-1.441,-3.991
344.448,28.304,921.772,0.377,-1.189,-3.831
346.747,31.293,921.119,0.362,-0.782,-3.543
350.644,32.344,919.024,0.525,-0.446,-3.247
353.000,35.000,921.000,0.770,-0.140,-2.940
352.259,36.573,919.476,1.064,0.227,-2.575
349.930,40.656,917.642,1.440,0.543,-2.216
346.747,43.760,920.193,1.680,0.814,-1.817
341.772,43.772,926.243,1.566,0.974,-1.348
334.154,42.298,928.976,1.187,0.963,-0.892
332.356,40.678,926.328,1.043,0.890,-0.666
336.313,37.584,926.101,0.880,0.758,-0.469
338.918,30.504,927.006,0.263,0.634,-0.220
339.045,26.933,926.849,-0.276,0.672,-0.202
340.170,28.313,928.000,-0.508,0.804,-0.183
345.343,29.049,930.533,-0.647,0.856,-0.030
346.423,23.576,935.528,-0.921,0.841,0.346
343.083,16.473,941.258,-1.136,0.959,0.689
341.808,16.046,940.510,-0.745,1.053,0.612
339.000,11.000,939.000,-0.140,1.050,0.770
337.037,-0.687,942.479,0.230,1.218,1.111
336.512,-3.556,945.012,0.616,1.485,0.939
334.917,2.797,949.659,1.137,1.557,0.733
335.315,5.310,955.640,1.420,1.292,0.858
334.022,0.679,956.721,1.219,0.904,0.895
331.643,-6.775,955.723,1.033,0.551,0.711
332.131,-10.932,954.980,1.138,0.262,0.311
334.750,-2.143,955.834,1.508,0.023,-0.181
337.628,12.494,958.489,1.646,-0.332,-0.363
338.186,19.655,959.183,0.737,-0.697,-0.221
337.160,18.180,958.835,-0.940,-1.098,-0.051
334.566,12.555,960.440,-2.617,-1.505,-0.175
332.705,13.020,957.391,-3.695,-1.879,-0.524
333.133,16.142,953.807,-4.570,-2.386,-0.716
335.000,15.000,953.000,-5.810,-2.730,-0.770
339.374,17.391,947.852,-6.915,-2.968,-0.774
341.824,18.992,943.781,-7.950,-3.189,-0.728
342.168,14.128,940.906,-8.804,-3.281,-0.590
340.514,6.758,939.217,-9.221,-3.467,-0.387
336.993,-2.443,938.254,-9.394,-3.442,-0.378
340.355,-5.926,936.890,-8.813,-3.149,-0.517
345.201,-2.766,939.294,-7.603,-2.844,-0.476
346.003,-1.939,942.813,-6.390,-2.477,-0.170
345.351,-2.814,943.465,-5.231,-2.207,0.208
344.336,-3.769,940.206,-4.100,-2.078,0.450
346.797,-3.401,936.628,-2.839,-1.928,0.502
347.897,-1.210,930.737,-1.496,-1.741,0.507
346.629,-4.984,928.259,-0.541,-1.659,0.714
345.896,-10.255,932.559,-0.083,-1.408,0.931
346.000,-6.000,935.000,0.280,-0.980,1.050
347.094,-1.999,945.133,0.371,-0.845,1.353
344.852,-2.449,951.183,0.288,-0.784,1.533
343.389,0.049,946.520,0.660,-0.844,1.569
344.629,0.597,945.002,1.166,-1.163,1.621
344.875,-4.603,939.874,1.502,-1.408,1.472
343.472,-12.792,943.985,1.378,-1.572,1.389
342.056,-15.916,948.935,0.716,-1.606,1.244
345.648,-12.305,946.921,0.113,-1.541,1.178
348.619,-9.437,948.062,-0.529,-1.591,1.378
351.309,-7.969,938.785,-1.268,-1.630,1.395
353.907,-9.158,931.778,-1.967,-1.564,1.435
349.241,-12.897,929.492,-2.535,-1.537,1.279
346.892,-17.254,928.229,-2.785,-1.538,0.983
345.393,-19.060,929.894,-2.966,-1.543,0.898
340.000,-21.000,926.000,-3.010,-1.540,0.770
338.062,-27.336,926.584,-2.885,-1.372,0.765
337.296,-27.826,926.913,-2.787,-1.104,0.731
337.043,-27.373,923.855,-2.530,-1.001,0.679
339.612,-33.734,921.124,-2.236,-0.896,0.690
343.396,-35.883,917.936,-1.994,-0.559,0.425
346.658,-33.404,918.102,-1.566,-0.308,0.068
349.159,-30.750,919.228,-1.087,-0.123,-0.153
350.030,-27.214,925.428,-0.782,0.061,-0.274
349.210,-25.473,929.971,-0.756,0.174,-0.333
348.211,-21.116,928.613,-0.725,0.327,-0.469
348.183,-13.579,926.577,-0.462,0.342,-0.683
348.905,-12.183,925.851,-0.493,0.387,-0.645
343.886,-13.291,927.368,-0.789,0.407,-0.557
339.859,-15.437,928.228,-1.011,0.348,-0.643
340.000,-15.000,931.000,-1.190,0.350,-0.700
339.455,-7.782,929.669,-1.312,0.224,-0.826
347.035,-7.468,927.142,-1.463,0.277,-0.777
353.669,-12.048,931.515,-1.781,0.529,-0.533
353.897,-13.485,935.937,-2.075,0.734,-0.513
355.804,-14.345,941.129,-1.764,0.898,-0.564
355.427,-15.247,945.430,-1.233,0.993,-0.453
350.543,-17.208,944.984,-0.961,0.976,-0.266
345.281,-19.899,947.632,-0.654,0.973,-0.140
343.175,-17.648,951.530,-0.352,1.059,-0.287
342.701,-10.625,953.757,-0.079,0.917,-0.465
343.931,-12.951,960.471,-0.265,0.781,-0.270
345.487,-18.955,964.821,-0.766,0.729,-0.279
346.174,-16.773,963.427,-0.792,0.454,-0.565
345.743,-13.696,962.945,-0.512,0.083,-0.630
343.000,-13.000,962.000,-0.210,-0.280,-0.630
341.211,-14.009,965.089,-0.175,-0.644,-0.570
339.944,-11.109,969.183,-0.510,-0.974,-0.592
341.540,-4.473,967.232,-0.919,-1.202,-0.651
343.371,-3.023,966.940,-1.660,-1.523,-0.378
340.684,-4.533,963.994,-2.856,-1.871,-0.182
338.627,-6.882,959.066,-3.809,-2.177,-0.322
336.886,-13.591,955.694,-4.300,-2.463,-0.424
336.911,-18.865,952.110,-4.606,-2.456,-0.484
337.270,-18.436,952.705,-4.647,-2.437,-0.512
335.998,-16.552,952.868,-4.486,-2.463,-0.354
336.340,-15.903,953.261,-4.307,-2.457,-0.187
337.793,-18.442,950.545,-4.268,-2.582,-0.134
341.032,-20.265,942.724,-4.093,-2.550,-0.276
343.266,-21.298,939.866,-3.357,-2.352,-0.525
346.000,-24.000,939.000,-2.380,-2.240,-0.700
348.059,-25.905,939.773,-1.460,-2.181,-0.772
347.103,-24.046,938.755,-0.728,-2.112,-0.719
346.712,-16.122,931.862,-0.250,-2.095,-0.665
344.821,-10.947,925.333,0.133,-2.101,-0.565
345.859,-7.079,918.302,0.473,-2.101,-0.459
346.673,-2.367,917.606,0.641,-2.097,-0.407
343.831,-3.104,921.142,0.467,-2.103,-0.346
343.023,-2.189,920.218,0.161,-2.167,-0.287
343.381,-0.861,916.272,-0.091,-2.130,-0.167
347.426,-1.993,910.410,-0.254,-1.970,-0.060
349.593,-6.626,907.769,-0.297,-1.724,0.147
348.374,-16.682,908.099,-0.194,-1.369,0.343
347.870,-19.599,909.389,0.354,-1.011,0.355
349.647,-15.490,909.979,0.979,-0.642,0.531
356.000,-15.000,910.000,1.120,-0.280,0.770
358.954,-14.313,910.150,0.945,0.137,0.841
359.051,-12.913,909.427,0.774,0.592,0.793
357.711,-13.570,912.492,0.803,0.857,0.771
353.503,-15.116,913.535,0.613,0.946,0.961
349.483,-20.329,911.168,0.214,1.012,1.037
346.376,-24.665,912.484,0.041,1.161,0.878
343.752,-27.214,915.296,-0.159,1.345,0.921
340.180,-27.361,920.588,-0.342,1.589,0.986
340.981,-19.654,923.810,-0.446,1.761,0.861
344.827,-16.991,924.760,-0.736,1.607,0.833
343.348,-23.498,927.750,-1.221,1.514,0.805
341.955,-29.020,929.341,-1.622,1.549,0.551
344.895,-29.708,932.253,-1.803,1.553,0.175
344.678,-29.243,937.831,-2.182,1.708,0.082
343.000,-34.000,941.000,-2.800,1.820,0.210
342.329,-36.207,941.728,-3.303,1.936,0.212
339.562,-34.924,944.769,-3.551,2.039,0.222
338.813,-35.061,947.621,-3.544,1.960,0.080
338.601,-31.660,947.571,-3.422,1.765,-0.251
337.655,-27.736,948.502,-3.203,1.373,-0.512
336.593,-23.734,950.051,-3.190,0.958,-0.755
334.958,-15.241,948.968,-3.698,0.525,-0.916
335.894,-7.304,952.459,-4.787,0.159,-0.855
336.786,-7.335,959.030,-6.579,-0.037,-0.568
338.250,-8.339,962.654,-8.769,-0.075,-0.276
339.479,-4.903,968.949,-10.740,0.137,-0.138
341.099,-9.934,970.146,-11.859,0.034,-0.001
344.925,-23.383,967.745,-11.848,-0.173,0.066
343.360,-36.890,970.421,-10.753,-0.234,-0.105
340.000,-43.000,970.000,-8.750,-0.560,-0.280
342.323,-34.037,968.154,-6.531,-0.865,-0.350
345.820,-23.412,967.061,-4.997,-1.218,-0.205
344.520,-21.113,968.584,-4.628,-1.468,0.328
341.505,-20.522,972.351,-4.976,-1.464,0.700
340.940,-20.322,968.738,-5.070,-1.631,0.664
340.923,-25.875,965.768,-4.515,-1.864,0.638
339.861,-34.524,964.802,-3.555,-1.964,0.703
338.038,-36.283,961.235,-2.278,-2.021,0.642
340.020,-29.210,958.728,-0.948,-2.196,0.541
343.082,-20.736,954.465,-0.106,-2.341,0.768
341.764,-18.021,951.063,0.212,-2.476,1.111
340.423,-18.243,948.345,0.131,-2.670,1.395
337.998,-21.400,945.126,-0.181,-2.752,1.686
335.927,-23.779,942.341,-0.642,-2.895,1.742
337.000,-18.000,935.000,-1.260,-2.940,1.680
338.688,-20.230,930.057,-2.045,-2.815,1.737
340.579,-33.158,930.399,-2.672,-2.716,1.804
342.208,-38.925,927.781,-2.645,-2.465,1.884
346.450,-42.109,926.978,-2.398,-2.139,2.066
347.438,-46.081,927.805,-2.276,-1.854,2.218
344.525,-47.670,925.188,-2.222,-1.640,2.344
345.099,-55.808,922.912,-1.922,-1.451,2.452
345.075,-62.843,922.897,-1.427,-1.142,2.328
344.779,-63.571,925.926,-1.141,-0.983,2.083
345.770,-65.851,929.192,-0.592,-0.983,1.849
345.687,-65.300,926.303,-0.081,-0.997,1.576
344.018,-68.356,922.650,0.247,-1.101,1.221
342.861,-72.333,923.533,0.950,-1.103,0.774
342.917,-68.120,926.590,1.712,-1.048,0.456
341.000,-62.000,930.000,2.170,-1.120,0.280
340.681,-51.648,927.812,2.145,-1.251,0.091
343.293,-44.121,922.889,1.724,-1.188,0.019
345.136,-39.008,920.289,1.031,-0.973,-0.131
346.974,-26.747,916.442,0.139,-0.839,-0.435
348.205,-14.962,912.727,-0.782,-0.590,-0.452
347.796,-7.971,911.895,-2.023,-0.384,-0.212
346.951,-8.157,910.855,-3.862,-0.106,0.173
346.940,-7.312,909.017,-5.684,0.448,0.597
347.953,-6.208,912.252,-7.351,0.979,1.154
346.454,-19.095,919.464,-9.078,1.658,1.908
342.742,-31.879,920.815,-9.777,2.098,2.241
341.777,-43.063,922.507,-9.433,2.263,2.403
340.259,-59.867,930.578,-8.517,2.628,2.507
339.111,-67.400,936.719,-6.670,2.621,2.178
342.000,-68.000,940.000,-4.480,2.240,1.890
344.784,-67.136,937.815,-2.551,1.770,1.708
344.702,-69.460,933.312,-1.418,1.181,1.568
342.223,-77.860,933.721,-1.002,0.919,1.419
342.727,-76.396,936.547,-0.408,0.896,1.034
344.242,-68.098,942.429,0.191,0.804,0.793
343.858,-64.531,947.830,0.463,0.765,0.871
342.867,-62.881,950.175,0.561,0.691,0.987
341.045,-62.801,951.977,0.496,0.568,1.050
342.373,-68.294,950.592,0.516,0.492,0.917
344.114,-72.974,947.851,0.784,0.560,0.507
343.000,-68.830,945.323,1.087,0.717,0.189
341.001,-69.935,945.302,1.225,0.619,0.116
339.799,-74.522,947.590,1.157,0.459,-0.099
340.056,-68.621,949.305,1.020,0.407,-0.466
340.000,-61.000,951.000,0.560,0.210,-0.560
340.707,-58.841,948.590,-0.395,-0.042,-0.550
342.717,-61.219,946.503,-1.477,-0.143,-0.654
342.186,-62.437,948.502,-2.562,-0.123,-0.873
339.630,-61.789,948.176,-3.161,-0.200,-1.261
338.525,-64.576,948.673,-3.070,-0.314,-1.426
334.768,-70.406,952.631,-2.787,-0.361,-1.503
330.909,-74.050,950.648,-2.096,-0.425,-1.693
331.910,-71.353,947.955,-0.993,-0.484,-1.812
332.005,-66.979,949.146,-0.084,-0.554,-1.889
333.040,-61.782,946.807,0.474,-0.549,-1.873
335.018,-54.079,945.197,0.824,-0.650,-1.967
337.440,-46.965,943.997,0.894,-0.850,-2.046
342.440,-43.626,943.110,0.550,-0.936,-2.020
343.923,-46.745,946.683,-0.215,-1.066,-1.942
343.000,-49.000,949.000,-1.260,-0.980,-1.890
342.968,-46.004,947.208,-2.018,-0.785,-1.974
343.078,-51.173,948.005,-2.523,-0.688,-1.705
342.363,-55.944,949.829,-2.745,-0.475,-1.607
341.964,-44.486,947.295,-2.005,-0.445,-1.913
343.684,-36.615,949.296,-0.972,-0.668,-1.926
343.576,-38.894,948.760,-0.400,-1.094,-1.782
339.621,-44.482,940.492,-0.285,-1.488,-1.601
335.217,-45.599,938.067,-0.354,-1.543,-1.727
334.600,-31.564,935.643,-0.218,-1.533,-1.877
336.042,-22.065,934.927,-0.437,-1.582,-1.422
335.173,-27.948,935.939,-1.210,-1.641,-0.868
335.484,-39.474,931.240,-1.814,-1.526,-0.462
337.566,-47.345,926.590,-1.562,-1.229,-0.374
339.344,-43.888,922.646,-0.415,-0.846,-0.586
342.000,-37.000,926.000,1.050,-0.490,-0.490
342.189,-35.811,931.887,2.081,-0.359,-0.068
341.656,-37.271,929.258,2.417,-0.301,0.323
342.537,-41.489,926.029,2.451,-0.192,0.609
340.138,-47.774,922.096,2.267,0.133,0.727
337.153,-42.453,915.705,2.316,0.434,0.532
336.978,-35.275,915.463,2.542,0.491,0.431
334.675,-37.281,918.210,2.271,0.407,0.650
330.221,-42.397,922.506,1.601,0.217,0.835
330.195,-50.354,928.488,0.872,0.256,0.759
335.077,-46.562,926.155,0.706,0.291,0.481
343.456,-35.727,916.907,0.819,0.342,0.445
349.842,-32.182,910.728,0.450,0.618,0.690
345.868,-34.459,910.134,-0.611,0.705,1.008
339.114,-43.558,911.144,-2.118,0.801,1.199
333.000,-50.000,912.000,-3.360,1.120,1.120
328.073,-49.340,912.782,-4.288,1.545,1.050
330.157,-48.245,915.958,-4.981,1.892,1.123
331.543,-53.187,923.374,-5.689,2.109,1.367
333.707,-60.855,929.958,-6.219,2.404,1.254
338.630,-65.782,934.535,-5.674,2.537,0.703
339.982,-71.140,938.900,-4.356,2.522,0.467
338.846,-71.763,942.216,-2.822,2.513,0.335
336.183,-67.293,944.774,-1.598,2.264,0.209
335.018,-64.070,948.859,-1.296,2.044,0.280
334.468,-57.533,952.035,-1.570,2.001,0.186
333.015,-54.646,951.273,-2.150,1.868,0.173
330.317,-64.171,956.052,-2.946,1.822,0.333
325.767,-69.194,964.213,-3.190,1.783,0.087
326.667,-65.161,971.153,-2.519,1.486,-0.337
333.000,-57.000,977.000,-1.610,1.190,-0.630
336.912,-44.405,974.643,-0.978,0.901,-0.718
335.190,-42.428,973.140,-0.733,0.466,-0.499
331.664,-51.923,975.177,-0.992,0.192,-0.321
330.730,-51.635,969.740,-1.121,0.068,-0.477
331.261,-41.699,963.709,-0.941,-0.165,-0.630
331.940,-45.090,970.153,-1.452,-0.290,-0.122
328.593,-50.957,974.940,-2.289,-0.364,0.286
324.160,-46.277,971.256,-2.645,-0.673,0.211
323.826,-46.475,968.766,-2.790,-0.944,0.277
324.873,-47.259,964.649,-2.729,-1.098,0.219
328.613,-47.355,964.156,-2.571,-1.396,0.283
332.024,-47.852,961.410,-2.480,-1.794,0.353
331.588,-47.067,954.170,-2.483,-2.110,0.395
329.616,-49.292,952.978,-2.883,-2.252,0.665
327.000,-48.000,950.000,-3.290,-2.310,0.700
327.581,-47.314,946.164,-3.188,-2.372,0.741
329.875,-55.580,946.551,-3.052,-2.395,1.012
329.607,-64.180,947.340,-3.188,-2.281,1.335
331.654,-60.511,945.168,-3.191,-2.040,1.381
337.033,-54.629,941.676,-3.165,-1.962,1.335
340.521,-55.218,939.285,-3.331,-2.050,1.410
342.098,-55.044,935.809,-3.435,-2.104,1.402
342.135,-60.239,935.893,-3.555,-2.166,1.528
339.534,-72.014,936.137,-3.750,-2.142,1.608
337.777,-85.188,937.402,-3.759,-1.849,1.619
334.193,-95.551,944.403,-3.221,-1.420,1.523
328.779,-95.778,946.919,-1.876,-1.183,1.326
328.260,-90.361,943.771,-0.051,-1.094,1.352
329.103,-86.447,940.675,1.717,-1.054,1.308
331.000,-82.000,941.000,2.870,-1.190,1.120
333.747,-79.805,943.748,3.103,-1.322,0.941
335.297,-80.929,943.629,2.844,-1.371,0.676
337.211,-74.779,941.369,2.399,-1.490,0.280
335.470,-68.803,940.700,1.699,-1.573,0.071
333.686,-69.086,940.559,1.043,-1.659,0.063
333.923,-66.120,936.544,0.718,-1.869,-0.015
332.965,-65.104,929.558,0.549,-1.959,0.003
333.884,-66.897,927.017,0.488,-1.895,-0.060
334.837,-67.954,925.869,0.587,-1.796,-0.142
336.454,-66.100,920.721,0.865,-1.523,-0.162
340.807,-61.286,917.110,1.388,-1.239,-0.267
343.833,-64.842,916.893,1.685,-0.999,-0.097
341.822,-69.576,916.830,1.694,-0.671,-0.028
337.455,-67.731,915.743,1.937,-0.469,-0.233
336.000,-70.000,913.000,2.100,-0.280,-0.210
335.307,-76.122,910.894,2.095,0.082,-0.199
332.216,-80.999,914.086,2.144,0.410,-0.265
328.950,-82.795,920.301,2.338,0.660,-0.346
330.552,-79.923,924.861,3.001,0.871,-0.505
336.304,-75.352,925.731,3.786,0.891,-0.579
340.500,-72.399,924.802,4.517,0.844,-0.653
338.677,-68.605,925.053,5.307,0.995,-0.782
335.094,-62.498,925.874,5.917,1.117,-0.966
335.749,-55.780,929.556,6.086,1.167,-1.063
335.171,-46.925,935.360,5.477,1.259,-0.959
331.875,-37.464,938.578,4.126,1.218,-0.806
331.140,-35.347,943.471,2.009,1.192,-0.416
334.035,-40.818,947.641,-0.451,1.166,-0.094
336.124,-44.459,948.220,-2.439,1.031,-0.246
336.000,-51.000,953.000,-3.920,0.980,-0.350
335.216,-60.225,959.191,-4.715,0.928,-0.396
334.405,-62.945,964.861,-4.718,0.768,-0.549
338.210,-68.634,971.208,-4.331,0.529,-0.494
343.252,-74.211,973.137,-3.908,0.315,-0.343
343.240,-75.468,973.052,-3.428,0.134,-0.266
336.928,-75.378,975.643,-2.677,-0.146,-0.409
326.228,-67.223,976.969,-1.827,-0.607,-0.721
320.140,-60.235,974.343,-1.152,-1.402,-0.901
320.551,-58.955,970.304,-1.137,-2.141,-1.023
322.358,-59.473,971.041,-1.859,-2.404,-1.161
323.885,-55.036,970.913,-2.568,-2.564,-1.495
326.024,-44.805,964.881,-2.927,-2.904,-1.718
329.037,-47.145,960.661,-3.003,-3.226,-1.434
333.864,-50.674,952.364,-2.726,-3.284,-1.343
339.000,-44.000,944.000,-1.960,-3.220,-1.400
341.746,-41.041,939.900,-1.028,-3.111,-1.173
342.392,-40.913,932.920,-0.454,-2.840,-0.737
340.228,-41.892,927.299,-0.171,-2.427,-0.158
337.552,-44.938,922.297,0.027,-1.822,0.328
334.875,-52.572,925.564,0.043,-1.129,0.963
332.465,-59.846,932.827,-0.080,-0.388,1.366
329.789,-56.502,930.742,0.259,0.165,1.329
328.889,-52.055,929.137,0.997,0.222,1.457
330.246,-54.036,923.968,1.611,-0.046,1.502
327.636,-58.389,916.381,2.259,-0.485,1.270
328.170,-62.319,913.093,2.894,-0.772,0.842
333.291,-64.790,911.446,3.298,-0.890,0.523
337.047,-62.855,913.986,3.328,-0.864,0.512
340.449,-58.420,916.246,3.113,-0.494,0.759
342.000,-56.000,919.000,2.800,-0.140,1.260
342.127,-56.384,923.411,2.256,0.320,1.695
340.068,-62.392,926.416,1.844,1.000,1.993
336.751,-64.032,927.504,1.966,1.550,1.978
335.714,-60.389,928.790,2.388,1.930,1.825
335.940,-64.278,931.958,2.360,2.033,1.810
334.510,-68.585,931.397,1.921,1.929,1.619
332.923,-71.320,930.094,1.344,1.815,1.385
331.233,-75.785,932.862,0.485,1.817,1.145
328.256,-76.283,931.797,-0.216,1.782,0.824
328.539,-75.297,928.966,-0.819,1.671,0.669
328.914,-74.054,929.215,-1.346,1.731,0.528
329.628,-72.252,930.826,-1.718,1.748,0.350
330.968,-69.943,935.891,-2.154,1.895,0.237
327.180,-65.568,944.682,-2.420,2.119,0.049
322.000,-70.000,958.000,-2.870,2.170,0.140
317.483,-78.746,965.150,-3.076,2.356,0.076
316.935,-74.851,961.637,-2.238,2.362,-0.513
320.820,-73.356,962.047,-1.226,2.232,-0.665
321.915,-81.251,965.779,-0.636,2.252,-0.662
320.468,-79.862,971.813,-0.346,2.046,-0.825
321.543,-70.857,980.647,-0.381,1.552,-0.950
325.356,-61.196,982.976,-0.577,0.927,-1.209
330.594,-52.321,982.920,-0.877,0.137,-1.328
334.073,-54.807,984.512,-1.408,-0.688,-1.334
331.158,-64.468,986.772,-1.877,-1.204,-1.313
325.453,-68.924,989.166,-1.994,-1.503,-1.412
321.267,-67.873,990.169,-1.885,-1.641,-1.438
319.943,-61.651,991.342,-1.562,-1.606,-1.175
321.267,-53.860,991.974,-1.214,-1.801,-1.040
323.000,-47.000,990.000,-0.910,-2.170,-0.980
324.771,-43.198,984.924,-0.587,-2.528,-1.024
326.244,-41.453,978.415,-0.580,-2.987,-1.245
329.695,-35.178,969.044,-0.746,-3.530,-1.523
334.024,-29.027,958.159,-1.043,-4.041,-1.607
334.707,-24.024,952.373,-1.836,-4.375,-1.361
332.282,-20.522,948.627,-2.892,-4.604,-1.143
329.931,-18.788,938.024,-3.520,-4.848,-0.805
331.684,-16.008,927.554,-3.448,-5.029,-0.317
336.713,-20.752,920.941,-3.304,-5.118,0.209
342.105,-29.964,910.737,-3.129,-4.935,0.804
346.112,-33.022,902.771,-2.546,-4.405,1.212
346.731,-33.430,902.203,-2.052,-3.744,1.779
343.758,-37.809,902.728,-1.692,-2.977,2.525
339.377,-45.261,899.330,-1.079,-2.289,3.091
336.000,-54.000,896.000,-0.280,-1.750,3.570
332.509,-59.623,892.794,0.724,-1.196,3.665
330.209,-62.292,887.210,2.073,-0.796,3.472
329.520,-69.155,884.772,3.434,-0.462,3.356
328.357,-73.511,885.059,4.365,-0.072,3.203
330.140,-74.538,886.613,4.946,0.268,3.159
333.588,-77.923,888.105,5.101,0.661,3.230
335.141,-81.134,889.215,4.964,1.162,3.136
337.828,-79.400,893.667,5.031,1.710,2.949
337.661,-73.836,896.517,5.023,2.157,2.931
335.117,-71.639,899.326,4.682,2.511,2.917
335.108,-69.540,902.402,4.038,2.904,2.788
334.697,-69.702,903.162,2.942,3.185,2.668
335.117,-73.165,906.139,1.625,3.337,2.447
332.103,-79.295,910.805,0.376,3.533,2.293
325.000,-88.000,917.000,-0.700,3.710,2.100
320.385,-90.112,922.415,-1.510,3.776,1.789
319.996,-89.406,925.323,-2.053,3.784,1.524
323.859,-86.775,927.340,-2.359,3.749,1.048
324.891,-84.273,931.684,-2.558,3.648,0.700
325.984,-87.565,940.673,-2.868,3.532,0.569
331.221,-86.872,949.636,-3.213,3.498,0.148
335.266,-77.226,953.073,-3.287,3.416,-0.458
337.942,-74.497,952.987,-3.281,3.166,-0.638
335.500,-84.350,954.349,-3.467,3.116,-0.539
327.502,-85.545,957.317,-3.460,3.270,-0.723
318.580,-78.911,962.118,-3.179,3.266,-0.720
312.843,-72.835,968.730,-3.056,3.166,-0.598
310.404,-62.762,970.933,-3.096,2.903,-0.643
310.240,-56.607,969.965,-3.166,2.442,-0.628
314.000,-57.000,970.000,-3.360,1.890,-0.700
317.670,-56.492,966.550,-3.659,1.334,-0.878
318.908,-52.221,965.895,-4.072,0.933,-1.045
318.949,-49.475,968.606,-4.905,0.665,-0.953
318.925,-48.478,965.335,-6.174,0.435,-0.693
319.084,-50.746,962.133,-7.493,0.198,-0.338
320.317,-58.818,961.951,-8.511,0.154,-0.026
321.037,-62.021,963.277,-8.735,0.292,0.000
323.584,-64.452,970.275,-8.243,0.473,0.124
329.306,-75.109,979.389,-7.396,0.675,0.315
328.846,-86.198,983.688,-6.117,0.711,0.484
323.576,-91.038,983.346,-4.497,0.681,0.640
318.989,-87.298,982.060,-2.609,0.538,0.583
316.450,-82.175,978.899,-0.975,0.269,0.595
314.608,-85.977,978.186,-0.116,0.034,0.793
312.000,-89.000,979.000,0.420,-0.210,0.700
311.901,-83.154,979.416,0.974,-0.497,0.440
312.524,-76.621,984.352,1.346,-1.012,0.375
314.850,-71.350,982.269,1.451,-1.541,0.255
315.945,-66.711,975.393,1.500,-2.011,0.206
314.813,-64.157,971.291,1.562,-2.453,0.180
317.925,-61.082,967.193,1.621,-2.611,0.045
320.026,-56.719,965.940,1.519,-2.741,0.081
319.979,-55.014,963.322,1.031,-2.802,0.324
320.126,-54.977,959.625,0.267,-2.790,0.694
319.203,-55.589,956.049,-0.571,-2.819,0.935
319.077,-55.806,949.751,-1.184,-2.753,1.046
321.156,-55.125,945.194,-1.769,-2.716,1.196
323.325,-61.953,943.578,-2.550,-2.627,1.393
321.515,-72.645,942.982,-3.151,-2.593,1.559
319.000,-84.000,943.000,-3.360,-2.590,1.610
318.898,-90.899,942.096,-2.867,-2.525,1.499
319.713,-89.920,942.523,-1.894,-2.482,1.374
320.505,-90.752,942.939,-1.046,-2.381,1.544
321.745,-87.635,939.985,-0.314,-2.421,1.583
323.422,-86.419,938.833,0.265,-2.445,1.408
322.604,-88.076,938.640,0.630,-2.466,1.305
322.076,-90.565,935.788,0.852,-2.519,1.184
323.874,-102.206,934.905,0.913,-2.457,1.190
324.912,-104.653,937.340,0.809,-2.303,1.049
324.584,-96.614,938.530,0.637,-2.048,0.795
322.908,-95.869,936.529,0.375,-2.111,0.789
323.742,-101.339,938.078,-0.053,-2.158,0.666
325.262,-99.401,938.049,-0.075,-2.247,0.173
327.717,-96.046,932.186,0.236,-2.635,-0.347
333.000,-98.000,931.000,-0.000,-2.590,-0.700
330.066,-94.453,933.608,-0.650,-2.450,-1.018
325.105,-95.147,935.237,-1.595,-2.462,-1.075
325.388,-94.505,932.067,-2.769,-2.408,-1.075
323.950,-87.215,924.810,-3.652,-2.331,-1.359
324.803,-86.548,921.343,-4.446,-2.166,-1.483
327.473,-88.216,923.644,-5.177,-1.878,-1.597
329.131,-86.668,925.025,-5.467,-1.520,-1.988
330.039,-79.557,925.872,-5.461,-1.466,-2.109
329.051,-76.443,926.449,-5.542,-1.439,-1.925
329.619,-79.366,923.884,-5.847,-1.258,-1.834
329.710,-80.952,925.631,-6.011,-1.020,-1.771
328.174,-85.236,929.176,-5.818,-0.520,-1.569
326.445,-86.692,931.903,-5.225,-0.109,-1.344
326.190,-83.513,934.072,-4.150,0.184,-1.245
328.000,-82.000,933.000,-2.800,0.350,-1.050
326.430,-82.851,934.546,-1.341,0.286,-0.849
324.854,-82.217,937.120,-0.034,0.288,-0.846
325.213,-77.207,940.732,0.792,0.180,-0.772
324.589,-73.493,944.219,1.042,-0.048,-0.607
325.470,-72.982,945.624,0.730,-0.174,-0.420
325.853,-72.808,949.862,0.033,-0.216,-0.357
324.989,-68.394,949.834,-0.590,-0.291,-0.506
326.720,-58.651,948.939,-0.645,-0.535,-0.691
331.627,-55.222,948.656,-0.490,-0.893,-0.671
336.898,-60.230,945.414,-0.548,-1.238,-0.506
337.954,-63.427,944.024,-0.526,-1.420,-0.493
336.021,-64.494,938.752,-0.476,-1.498,-0.273
334.371,-64.764,934.198,-0.519,-1.411,0.112
330.118,-62.795,934.018,-0.952,-1.056,0.588
324.000,-66.000,935.000,-1.960,-0.630,1.330
320.217,-75.455,939.356,-2.789,-0.200,1.668
320.423,-85.673,941.795,-3.136,0.163,1.770
322.186,-95.369,942.120,-2.919,0.586,1.826
324.150,-95.383,940.299,-1.851,0.863,1.403
326.688,-91.454,936.917,-0.451,0.656,1.023
325.354,-99.759,938.680,0.741,0.469,0.979
324.060,-108.230,939.931,1.672,0.414,0.900
325.880,-105.464,938.082,2.340,0.349,0.775
326.859,-99.390,939.717,2.663,0.410,0.805
326.730,-92.464,945.950,2.357,0.388,1.016
324.346,-82.880,948.825,1.309,0.290,1.265
324.644,-74.750,949.643,-0.112,0.092,1.330
326.094,-71.494,954.371,-1.563,-0.227,1.220
324.734,-72.391,954.623,-2.926,-0.367,1.104
323.000,-78.000,952.000,-3.990,-0.630,0.980
321.869,-87.742,950.322,-4.634,-0.962,0.745
324.130,-90.773,948.844,-4.783,-0.937,0.504
325.941,-82.898,949.366,-4.744,-0.900,0.611
325.594,-79.728,947.170,-5.017,-0.905,0.962
324.486,-85.897,946.046,-5.356,-0.942,1.169
323.915,-93.846,948.361,-5.337,-1.080,1.067
322.882,-101.502,947.916,-4.688,-1.202,0.746
322.822,-104.178,947.935,-3.589,-1.390,0.505
325.674,-97.497,947.642,-2.429,-1.403,0.309
325.825,-87.563,943.459,-1.459,-1.538,0.352
327.073,-87.498,940.755,-1.180,-1.844,0.736
327.775,-92.922,943.646,-1.344,-1.715,0.815
327.005,-88.558,946.178,-1.388,-1.608,0.669
328.054,-81.332,943.267,-1.234,-1.597,0.717
326.000,-81.000,937.000,-1.260,-1.470,0.840
322.495,-80.433,930.601,-1.575,-1.410,0.962
320.050,-77.481,929.376,-1.734,-1.341,1.077
321.100,-77.175,931.301,-2.266,-1.288,1.241
322.106,-79.240,931.972,-3.323,-0.993,1.430
322.316,-82.335,931.508,-4.417,-0.688,1.604
324.364,-87.396,929.221,-5.580,-0.613,1.680
325.095,-94.560,925.799,-6.416,-0.480,1.604
327.796,-100.619,924.963,-6.893,-0.421,1.606
327.765,-106.792,925.147,-7.429,-0.330,1.664
324.471,-118.296,924.159,-7.935,-0.056,1.767
323.873,-128.961,922.722,-8.074,0.281,1.859
323.810,-136.346,919.495,-7.649,0.699,1.756
322.178,-142.170,925.251,-6.896,1.197,1.651
318.496,-140.343,937.223,-6.004,1.497,1.411
318.000,-138.000,936.000,-4.690,1.610,0.910
319.845,-139.099,935.705,-3.049,1.735,0.478
320.584,-135.984,946.893,-1.467,1.807,0.073
322.521,-128.010,954.106,0.097,1.791,-0.386
325.814,-116.946,957.563,1.149,1.448,-0.700
328.884,-110.796,958.878,1.143,0.912,-0.769
328.553,-114.557,957.617,0.432,0.364,-0.677
325.787,-122.536,955.834,-0.401,-0.014,-0.715
323.191,-125.146,954.838,-0.643,-0.065,-1.085
321.202,-122.330,960.840,-0.344,-0.229,-1.396
320.856,-121.787,968.595,-0.116,-0.390,-1.268
321.206,-117.178,970.065,0.322,-0.502,-1.151
323.170,-107.435,969.508,1.020,-0.764,-1.228
327.422,-100.195,966.607,1.532,-1.080,-1.281
331.437,-96.656,962.669,1.752,-1.363,-1.423
331.000,-95.000,962.000,1.330,-1.470,-1.470
326.596,-92.415,955.562,0.425,-1.581,-1.464
323.705,-90.771,946.610,-0.560,-1.776,-1.450
321.312,-92.985,942.016,-1.745,-1.849,-1.253
322.095,-96.786,937.281,-2.648,-1.772,-1.174
326.578,-96.244,935.632,-2.896,-1.756,-1.198
328.065,-95.024,934.525,-2.626,-1.736,-1.174
329.161,-97.271,934.113,-1.973,-1.679,-0.956
330.966,-101.690,934.312,-1.185,-1.683,-0.709
329.709,-101.659,926.286,-0.244,-1.576,-0.653
326.184,-92.460,918.273,0.772,-1.413,-0.467
323.596,-90.177,915.537,1.228,-1.152,-0.133
322.439,-95.107,914.064,0.942,-0.843,0.211
322.227,-95.696,910.591,0.766,-0.514,0.266
325.644,-93.628,907.988,0.843,-0.073,0.304
327.000,-92.000,910.000,0.770,0.280,0.490
324.193,-92.818,909.312,0.821,0.530,0.595
324.683,-94.591,908.028,0.840,0.705,0.903
324.210,-101.513,907.979,0.516,0.992,1.012
321.689,-110.206,911.395,0.260,1.432,0.969
320.471,-114.017,918.387,0.493,1.806,0.964
318.548,-116.708,922.942,0.936,1.980,0.911
318.027,-120.259,929.646,1.283,2.037,0.981
318.037,-121.192,936.682,1.527,2.164,0.795
318.431,-116.921,938.760,1.659,2.129,0.480
321.357,-114.840,940.052,1.683,2.040,0.229
321.014,-114.829,941.954,1.379,1.981,0.023
317.373,-113.063,943.705,0.899,1.813,-0.170
317.561,-111.663,947.259,0.389,1.725,-0.421
320.404,-110.829,951.557,-0.240,1.488,-0.582
322.000,-107.000,953.000,-0.910,1.190,-0.770
322.093,-98.894,951.229,-1.645,1.068,-0.905
321.225,-98.087,951.784,-2.261,0.937,-0.870
320.811,-105.045,955.544,-2.953,0.900,-0.798
321.032,-106.307,953.938,-3.544,0.912,-0.985
320.866,-98.628,949.838,-3.507,0.915,-1.256
321.063,-97.081,953.329,-3.564,0.897,-1.026
320.956,-109.027,958.207,-4.024,0.840,-0.688
320.071,-116.882,958.968,-4.208,0.906,-0.755
319.208,-116.154,960.468,-3.934,0.868,-0.903
318.174,-116.659,961.448,-3.612,0.781,-0.898
318.377,-115.614,959.169,-3.247,0.706,-0.996
321.971,-108.352,956.737,-2.688,0.391,-1.216
325.816,-109.108,954.131,-2.550,0.039,-1.233
325.827,-121.666,952.974,-2.844,-0.244,-1.115
325.000,-120.000,952.000,-2.940,-0.280,-1.330
323.602,-105.497,949.925,-2.964,-0.150,-1.505
317.479,-102.631,952.711,-3.600,-0.103,-1.018
310.045,-106.427,955.277,-4.602,0.033,-0.649
306.783,-103.412,953.042,-5.066,0.042,-0.839
307.676,-99.099,947.607,-5.091,-0.169,-1.038
310.705,-105.461,944.944,-4.926,-0.498,-1.146
313.164,-114.216,947.143,-4.826,-0.707,-1.353
315.749,-108.694,945.416,-4.647,-0.822,-1.667
319.256,-105.486,938.600,-4.348,-1.131,-1.560
321.317,-114.279,932.792,-4.425,-1.263,-1.198
318.646,-118.845,931.813,-4.168,-1.263,-1.022
314.450,-118.470,933.993,-3.375,-1.220,-0.822
315.862,-116.747,936.732,-2.312,-1.081,-0.755
316.832,-122.516,938.071,-1.354,-0.948,-0.501
315.000,-130.000,938.000,-0.630,-0.560,-0.280
315.689,-124.626,936.529,0.673,-0.122,-0.517
318.139,-111.852,932.566,2.131,0.152,-0.733
320.193,-97.829,933.621,3.242,0.300,-0.715
318.630,-103.335,940.885,3.472,0.430,-0.083
316.193,-120.035,944.273,2.973,0.642,0.321
314.509,-116.494,942.447,3.106,0.801,-0.014
311.780,-106.598,943.306,3.436,0.916,-0.056
309.167,-107.598,948.661,3.188,0.856,0.191
307.948,-113.069,950.813,2.595,0.568,0.356
308.509,-115.672,952.854,2.040,0.242,0.185
310.659,-115.901,958.098,1.682,0.016,-0.063
317.584,-113.842,960.307,1.241,-0.160,-0.233
322.996,-115.531,961.664,0.660,-0.440,-0.480
324.112,-124.303,965.606,0.138,-0.553,-0.482
324.000,-128.000,967.000,-0.210,-0.420,-0.560
321.412,-129.294,965.246,-0.283,-0.470,-0.643
318.881,-135.400,963.164,-0.315,-0.517,-0.546
316.174,-137.704,958.757,-0.387,-0.432,-0.705
316.578,-132.957,959.061,-0.311,-0.403,-0.985
316.529,-128.723,965.265,-0.580,-0.329,-1.192
316.275,-126.559,968.038,-0.969,-0.478,-1.376
318.029,-126.099,965.737,-1.054,-0.715,-1.632
316.207,-129.608,962.247,-1.120,-0.955,-1.875
313.692,-134.427,959.440,-0.978,-1.236,-2.099
310.453,-133.167,958.712,-0.664,-1.253,-2.426
310.860,-123.773,963.217,-0.496,-1.328,-2.567
311.556,-118.722,969.193,-0.889,-1.457,-2.462
307.953,-117.151,968.908,-1.454,-1.722,-2.498
308.388,-112.204,961.778,-1.335,-2.171,-2.871
311.000,-108.000,956.000,-0.700,-2.730,-3.290
312.652,-104.441,952.627,-0.060,-3.475,-3.543
316.258,-101.108,948.237,0.063,-3.911,-3.679
321.948,-90.842,943.758,-0.195,-4.165,-3.773
325.322,-76.850,936.360,-0.582,-4.350,-3.686
325.686,-67.933,927.346,-1.101,-4.456,-3.241
321.786,-60.594,917.679,-1.359,-4.565,-2.862
319.035,-61.541,910.707,-1.488,-4.544,-2.324
320.929,-71.368,907.447,-1.860,-4.307,-1.644
320.808,-73.971,898.950,-2.018,-3.620,-1.388
323.070,-69.004,893.394,-1.593,-2.823,-0.962
323.241,-68.079,890.975,-1.167,-1.997,-0.255
319.037,-70.225,885.163,-0.752,-1.201,0.489
318.225,-78.727,884.607,-0.062,-0.572,1.161
320.304,-92.811,890.035,0.491,0.196,1.597
320.000,-97.000,896.000,0.980,0.980,1.890
318.014,-98.028,896.974,1.482,1.658,2.118
317.934,-107.245,899.881,1.758,2.181,2.508
312.702,-112.042,905.287,2.042,2.531,2.568
308.514,-106.344,902.099,2.723,2.553,2.355
309.690,-106.887,900.175,3.260,2.420,2.428
312.835,-115.658,905.250,2.718,2.582,2.435
313.796,-115.743,910.472,1.431,2.895,2.380
309.217,-115.642,919.206,-0.086,3.259,2.442
310.221,-120.097,927.828,-1.644,3.684,2.526
311.577,-115.988,931.002,-2.848,4.045,2.394
310.685,-114.725,933.672,-3.765,4.212,2.245
313.246,-126.046,937.680,-4.541,4.331,2.174
313.885,-134.374,940.647,-5.114,4.426,1.585
314.192,-135.200,943.782,-5.335,4.404,0.899
316.000,-140.000,953.000,-5.460,4.340,0.560
315.488,-142.420,963.066,-5.811,4.111,0.365
311.245,-139.144,966.435,-6.290,3.756,0.308
308.295,-140.318,968.905,-6.703,3.359,0.138
307.985,-140.855,972.923,-6.841,2.891,-0.165
310.236,-141.671,975.855,-6.998,2.413,-0.483
315.168,-141.174,978.554,-6.811,2.012,-0.969
319.224,-134.548,980.014,-5.864,1.570,-1.503
320.091,-132.907,977.433,-4.716,1.021,-1.743
318.347,-132.703,970.490,-3.299,0.569,-1.809
316.469,-129.090,965.629,-1.842,0.313,-1.772
311.494,-127.010,963.734,-0.860,0.294,-1.484
307.989,-127.587,962.446,-0.435,0.430,-1.223
307.929,-129.391,963.218,-0.437,0.746,-0.963
306.790,-128.758,962.872,-0.404,1.091,-0.753
305.000,-126.000,963.000,-0.210,1.260,-0.770
302.913,-118.387,963.909,0.258,1.283,-0.947
306.303,-113.444,965.143,0.738,0.983,-1.071
310.420,-124.170,967.557,0.610,0.524,-0.972
311.323,-143.531,967.497,0.269,0.207,-1.080
312.045,-156.026,968.640,0.577,0.142,-1.389
310.503,-151.808,969.984,1.710,0.117,-1.757
308.890,-143.735,971.344,3.029,-0.088,-1.722
306.304,-144.862,978.530,3.874,-0.328,-1.339
301.936,-143.719,979.762,4.421,-0.679,-1.531
298.884,-143.170,978.233,4.959,-1.027,-1.758
301.204,-147.446,982.542,5.264,-1.240,-2.071
308.352,-141.174,978.472,5.558,-1.393,-2.787
312.790,-124.613,971.622,5.991,-1.508,-3.248
312.784,-110.301,970.810,5.883,-1.724,-3.357
310.000,-104.000,965.000,5.250,-2.100,-3.290
307.973,-99.183,956.874,4.750,-2.531,-3.409
308.896,-91.682,952.219,4.305,-2.861,-3.376
308.001,-94.912,948.873,3.733,-3.067,-3.116
306.094,-103.700,949.670,3.602,-3.005,-3.105
306.026,-93.178,948.575,4.391,-2.818,-3.164
305.940,-73.580,940.767,5.579,-2.918,-2.999
306.006,-73.737,931.364,6.336,-3.169,-2.319
305.135,-83.664,925.315,6.571,-3.353,-1.824
304.427,-79.403,921.746,6.734,-3.324,-2.035
309.212,-61.625,919.037,6.898,-3.186,-2.139
315.453,-48.713,919.054,6.218,-3.073,-1.703
317.202,-48.623,917.885,4.398,-2.791,-1.025
316.998,-45.153,915.075,2.577,-2.521,-0.601
318.256,-43.721,912.760,1.202,-2.254,-0.197
318.000,-54.000,914.000,0.070,-1.750,0.420
313.565,-59.850,917.118,-0.368,-1.247,0.800
312.493,-59.447,912.364,0.064,-0.968,1.120
312.834,-58.451,906.267,0.696,-0.782,1.624
307.536,-65.397,906.262,0.866,-0.629,2.219
302.476,-83.360,907.246,0.664,-0.482,2.782
302.579,-97.109,911.430,0.229,0.008,3.044
308.550,-100.012,919.625,-0.406,0.677,3.162
312.953,-102.435,925.672,-1.316,1.222,3.405
312.139,-114.440,929.939,-2.392,1.627,3.731
311.666,-128.637,933.361,-2.953,1.777,3.732
308.971,-139.994,935.033,-2.620,1.908,3.197
308.369,-156.663,944.427,-1.354,1.961,2.647
310.328,-176.557,957.311,0.155,1.996,2.257
309.965,-183.839,963.747,1.467,2.294,1.728
310.000,-175.000,969.000,2.870,2.520,1.190
305.853,-163.710,974.297,3.884,2.368,0.891
302.657,-149.883,977.234,4.508,1.844,0.310
304.362,-129.445,974.139,5.003,0.924,-0.789
305.543,-114.807,970.047,4.822,-0.341,-1.678
307.984,-116.178,970.254,3.614,-1.249,-2.227
308.995,-121.068,970.814,1.594,-1.710,-2.805
310.240,-108.366,966.427,-0.582,-2.124,-3.394
314.663,-85.506,956.791,-2.700,-2.241,-3.456
317.762,-71.605,947.613,-5.004,-2.280,-2.979
317.120,-68.390,942.343,-7.088,-2.389,-2.575
314.196,-75.279,942.025,-8.383,-2.287,-2.306
314.581,-81.551,940.615,-8.495,-2.075,-2.410
314.360,-77.250,936.853,-7.595,-1.906,-2.474
310.462,-76.340,933.378,-6.845,-1.624,-1.929
309.000,-76.000,926.000,-6.230,-1.190,-1.400
309.784,-67.364,917.023,-5.310,-0.701,-0.988
310.929,-61.706,911.789,-4.600,-0.338,-0.376
310.460,-67.541,910.752,-3.951,-0.156,0.430
309.480,-84.917,913.537,-3.286,0.277,1.047
308.777,-92.013,915.971,-2.398,0.832,1.227
309.052,-80.928,921.413,-1.089,1.288,1.391
306.659,-74.016,925.241,0.076,1.547,1.868
302.224,-81.993,930.472,0.862,1.599,2.545
300.228,-94.051,933.424,1.531,1.843,2.875
300.967,-101.880,933.408,2.763,1.907,2.762
306.926,-114.217,939.396,4.234,1.977,2.774
309.368,-121.939,938.163,5.235,2.340,2.944
310.769,-120.351,946.768,5.764,2.596,3.036
313.282,-120.046,953.576,5.517,2.916,3.173
314.000,-121.000,963.000,4.900,2.940,3.220
310.059,-128.933,970.292,4.351,2.636,3.050
304.132,-143.788,972.635,3.976,2.306,2.659
299.249,-154.342,983.435,4.291,1.847,1.837
294.906,-156.337,978.168,5.015,1.545,0.955
304.225,-155.248,993.101,5.561,1.291,0.349
306.603,-149.020,991.430,5.764,0.973,-0.205
309.526,-140.490,992.843,5.983,0.514,-0.815
310.495,-138.654,987.703,6.660,-0.160,-1.241
306.364,-148.351,979.361,7.355,-0.691,-1.459
306.644,-151.645,994.533,7.955,-0.933,-1.978
298.002,-126.873,983.803,8.458,-1.084,-2.562
302.901,-95.342,999.777,8.271,-1.482,-2.617
295.252,-78.071,967.453,7.240,-2.090,-2.379
295.082,-83.859,967.758,5.906,-2.758,-2.323
292.000,-91.000,956.000,5.110,-3.220,-2.590
292.909,-85.665,946.349,4.629,-3.417,-3.022
306.591,-68.275,965.443,4.048,-3.365,-3.180
299.733,-51.372,926.622,2.785,-3.134,-2.570
315.309,-56.641,973.457,0.614,-3.003,-1.568
298.771,-47.797,909.801,-1.155,-2.641,-0.939
319.603,-48.337,959.404,-2.423,-2.424,-0.630
306.976,-56.388,918.799,-3.034,-2.133,-0.249
302.427,-78.702,915.318,-3.402,-1.760,-0.003
335.322,-102.014,1036.356,-3.018,-1.518,-0.059
93.151,-28.851,290.235,-0.697,-0.387,-0.034
