acc_x[mg],acc_y[mg],acc_z[mg],gyro_x[dps],gyro_y[dps],gyro_z[dps]
786.000,-189.000,587.000,-0.910,-0.770,0.280
818.718,-197.170,612.966,-0.950,-0.739,0.230
746.322,-178.737,559.924,-0.860,-0.657,0.187
822.327,-197.138,619.153,-0.986,-0.763,0.258
754.581,-182.407,571.521,-0.973,-0.808,0.314
806.591,-195.621,609.563,-0.950,-0.971,0.347
773.945,-190.833,585.219,-0.706,-1.074,0.257
789.659,-193.513,596.540,-0.470,-1.198,0.207
790.965,-188.882,593.514,-0.102,-1.255,0.145
781.424,-187.475,583.726,0.188,-1.329,0.128
798.140,-194.378,594.346,0.249,-1.245,0.161
777.775,-192.113,577.570,0.331,-1.167,0.070
796.449,-196.378,591.155,0.353,-1.186,-0.056
782.167,-191.409,578.937,0.339,-1.092,-0.180
792.034,-193.499,582.575,0.272,-1.037,-0.294
790.000,-190.000,577.000,0.280,-0.840,-0.350
787.815,-190.862,575.094,0.124,-0.595,-0.353
793.025,-194.374,581.151,-0.221,-0.349,-0.338
784.173,-190.806,578.360,-0.302,-0.204,-0.427
791.152,-193.488,589.404,-0.254,-0.224,-0.522
784.225,-190.065,585.899,-0.166,-0.199,-0.466
789.640,-187.715,589.236,-0.050,-0.217,-0.509
785.291,-184.709,587.643,0.005,-0.207,-0.480
785.449,-183.876,589.512,0.127,-0.207,-0.353
787.305,-183.771,591.125,0.305,-0.266,-0.358
785.383,-180.931,589.027,0.504,-0.326,-0.264
790.182,-181.476,593.124,0.567,-0.386,-0.135
785.849,-180.167,590.548,0.399,-0.455,-0.020
787.954,-180.352,591.309,0.232,-0.485,-0.012
786.480,-180.961,588.309,0.037,-0.409,0.018
787.000,-181.000,588.000,-0.140,-0.420,0.140
787.382,-182.714,590.026,-0.314,-0.429,0.133
786.532,-184.007,590.452,-0.529,-0.398,0.249
787.017,-183.651,591.587,-0.563,-0.511,0.256
785.126,-185.757,589.978,-0.584,-0.575,0.195
786.518,-190.587,590.409,-0.650,-0.552,0.191
785.649,-190.589,590.905,-0.598,-0.568,0.036
787.263,-190.089,589.879,-0.242,-0.637,0.001
789.949,-191.073,588.149,0.191,-0.700,-0.061
790.651,-188.630,586.461,0.276,-0.647,-0.140
792.126,-187.026,584.015,0.336,-0.588,-0.134
790.112,-186.929,581.819,0.259,-0.468,-0.144
786.271,-187.294,582.771,-0.114,-0.262,-0.152
784.467,-188.052,585.935,-0.438,-0.212,-0.233
782.811,-186.694,588.304,-0.653,-0.203,-0.195
783.000,-185.000,590.000,-0.700,-0.140,-0.140
783.920,-185.552,590.871,-0.755,-0.080,-0.092
784.115,-189.687,592.304,-0.796,-0.014,0.055
783.183,-192.640,593.992,-0.662,0.010,0.033
783.265,-193.314,592.983,-0.381,-0.027,-0.007
785.914,-194.129,591.622,0.160,-0.095,-0.013
787.038,-192.342,592.058,0.643,-0.158,-0.082
788.182,-189.879,590.818,0.851,-0.291,-0.067
790.850,-189.052,588.189,0.975,-0.352,-0.066
791.885,-188.156,585.664,0.946,-0.334,-0.127
792.096,-188.300,582.676,0.736,-0.423,-0.181
790.583,-189.970,581.483,0.447,-0.323,-0.276
787.386,-189.212,582.574,0.136,-0.152,-0.414
785.581,-187.776,584.597,-0.151,-0.138,-0.514
784.922,-188.036,586.203,-0.284,-0.050,-0.565
784.000,-188.000,588.000,-0.210,0.070,-0.560
782.198,-188.911,591.439,-0.204,0.135,-0.496
781.810,-187.912,594.414,-0.151,0.144,-0.488
782.010,-185.293,595.722,0.185,0.136,-0.464
781.717,-184.860,595.591,0.499,0.144,-0.356
781.927,-182.892,594.578,0.706,0.128,-0.231
782.093,-180.755,595.332,0.870,0.044,-0.119
784.226,-181.027,597.121,0.906,-0.079,-0.067
785.986,-180.156,597.995,0.722,-0.199,-0.005
786.460,-178.193,597.332,0.458,-0.378,0.010
789.235,-178.773,595.568,0.336,-0.526,-0.018
789.500,-182.295,593.856,0.140,-0.602,0.049
788.778,-184.864,591.858,-0.099,-0.639,0.057
788.566,-186.692,589.037,-0.255,-0.624,-0.032
785.561,-189.297,586.807,-0.358,-0.633,-0.162
785.000,-189.000,587.000,-0.350,-0.630,-0.280
785.170,-187.943,587.900,-0.404,-0.569,-0.287
784.029,-188.330,588.636,-0.486,-0.546,-0.230
784.343,-186.203,589.684,-0.462,-0.607,-0.168
785.604,-184.146,589.608,-0.354,-0.635,-0.093
787.626,-184.064,588.454,-0.247,-0.630,0.075
787.631,-185.547,587.913,-0.199,-0.624,0.237
785.966,-188.113,588.042,-0.136,-0.554,0.280
786.943,-187.182,588.938,-0.136,-0.493,0.219
785.659,-185.850,589.111,-0.195,-0.438,0.093
784.100,-186.801,588.726,-0.289,-0.366,0.019
786.155,-186.918,589.146,-0.464,-0.344,-0.035
784.687,-187.066,588.338,-0.629,-0.356,-0.099
784.401,-186.887,588.148,-0.714,-0.337,-0.152
786.044,-187.079,589.068,-0.695,-0.269,-0.133
785.000,-187.000,589.000,-0.700,-0.210,-0.140
785.818,-186.088,590.632,-0.708,-0.148,-0.213
785.578,-185.382,592.064,-0.643,-0.130,-0.110
783.903,-184.433,591.654,-0.627,-0.156,-0.046
783.968,-186.408,592.409,-0.629,-0.100,-0.087
783.634,-188.472,593.162,-0.634,-0.077,-0.057
782.630,-189.202,594.139,-0.621,-0.163,-0.082
780.921,-190.023,592.797,-0.555,-0.209,-0.145
781.824,-189.977,591.818,-0.494,-0.146,-0.208
783.189,-190.797,596.101,-0.479,-0.122,-0.166
781.385,-191.127,597.506,-0.548,-0.237,-0.073
781.012,-190.527,596.356,-0.514,-0.320,-0.101
782.515,-189.436,597.552,-0.340,-0.394,-0.161
782.941,-188.943,597.929,-0.277,-0.532,-0.107
783.091,-189.068,598.060,-0.275,-0.648,0.009
784.000,-191.000,598.000,-0.210,-0.770,-0.070
784.082,-193.080,597.118,-0.152,-0.833,-0.199
783.298,-191.375,596.304,-0.039,-0.926,-0.265
782.154,-191.089,595.202,0.028,-1.093,-0.261
781.769,-189.761,594.554,-0.018,-1.097,-0.171
781.852,-187.462,593.264,0.177,-1.036,-0.249
782.113,-188.192,591.657,0.364,-1.056,-0.163
783.051,-187.960,591.004,0.270,-1.048,0.005
783.001,-187.990,591.890,0.151,-1.046,-0.001
784.328,-187.313,592.963,-0.029,-1.157,0.015
786.620,-186.562,592.389,-0.140,-1.259,-0.102
786.791,-188.333,590.876,-0.133,-1.227,-0.143
786.792,-191.423,589.202,-0.147,-1.161,-0.177
785.408,-193.249,589.068,-0.130,-1.100,-0.322
785.125,-192.917,588.872,-0.050,-1.042,-0.440
785.000,-192.000,588.000,0.140,-0.980,-0.560
783.045,-188.606,588.736,0.274,-0.915,-0.562
783.838,-186.017,591.017,0.284,-0.905,-0.566
783.203,-186.589,594.036,0.254,-0.939,-0.514
783.425,-187.090,595.061,0.140,-1.047,-0.508
785.494,-186.963,595.028,0.042,-1.152,-0.576
786.088,-188.662,596.263,-0.015,-1.201,-0.558
787.068,-192.238,597.060,-0.070,-1.266,-0.641
787.048,-193.936,597.962,0.052,-1.387,-0.823
786.837,-194.843,597.383,0.301,-1.576,-1.066
787.625,-194.590,595.585,0.489,-1.667,-1.268
787.618,-193.154,593.177,0.682,-1.716,-1.421
786.164,-192.843,588.818,0.806,-1.746,-1.478
786.082,-191.394,586.750,0.723,-1.653,-1.479
785.888,-189.810,587.033,0.533,-1.697,-1.548
786.000,-188.000,587.000,0.420,-1.750,-1.540
787.816,-184.558,587.817,0.306,-1.741,-1.539
788.582,-181.475,588.758,0.123,-1.817,-1.501
790.249,-181.150,589.562,-0.050,-1.777,-1.411
790.665,-182.756,589.504,-0.234,-1.750,-1.407
789.432,-183.228,586.745,-0.270,-1.720,-1.378
788.855,-187.334,586.186,-0.186,-1.581,-1.332
789.081,-191.025,586.980,0.025,-1.540,-1.488
790.009,-189.098,586.031,0.395,-1.541,-1.674
789.153,-190.347,586.727,0.652,-1.539,-1.726
788.855,-191.595,586.714,0.857,-1.540,-1.886
788.710,-189.984,584.140,0.929,-1.545,-2.048
789.148,-190.262,582.401,0.906,-1.506,-2.136
788.406,-189.396,583.551,0.892,-1.348,-2.179
786.952,-186.603,585.122,0.747,-1.253,-2.260
787.000,-186.000,585.000,0.630,-1.190,-2.380
785.150,-187.251,585.712,0.341,-1.062,-2.381
785.643,-181.327,587.618,0.064,-1.045,-2.392
785.532,-171.352,588.335,0.173,-1.022,-2.255
784.509,-167.651,590.385,0.166,-0.952,-1.879
785.145,-164.419,594.204,0.036,-1.012,-1.441
786.377,-161.810,594.794,0.098,-1.055,-1.030
788.049,-163.140,593.968,0.218,-1.129,-0.676
787.114,-164.830,593.122,0.278,-1.193,-0.434
786.167,-168.066,591.946,0.284,-1.124,-0.255
784.988,-171.773,592.244,0.241,-1.164,-0.120
785.994,-174.734,590.622,0.180,-1.196,-0.231
789.073,-176.554,589.942,0.275,-1.206,-0.264
790.325,-177.310,589.361,0.344,-1.276,-0.202
792.251,-179.321,585.371,0.180,-1.250,-0.208
792.000,-180.000,583.000,0.070,-1.190,-0.210
792.567,-179.863,582.150,0.014,-1.130,-0.333
794.976,-180.921,581.125,-0.067,-1.068,-0.401
793.702,-180.446,581.605,-0.032,-1.009,-0.503
792.253,-179.566,584.398,0.013,-0.946,-0.582
791.584,-178.228,584.496,-0.009,-0.889,-0.550
790.696,-175.274,584.136,0.007,-0.819,-0.560
788.850,-172.866,585.006,-0.004,-0.690,-0.479
787.978,-171.991,584.913,-0.067,-0.630,-0.296
788.142,-172.772,587.380,-0.070,-0.590,-0.100
787.476,-173.128,588.809,-0.105,-0.447,-0.017
789.164,-173.096,589.308,-0.188,-0.423,0.037
789.403,-174.968,590.245,-0.227,-0.390,0.093
787.639,-176.194,591.534,-0.310,-0.355,0.169
789.458,-177.271,593.027,-0.346,-0.432,0.205
791.000,-179.000,591.000,-0.280,-0.490,0.140
789.240,-178.995,589.879,-0.273,-0.556,0.145
788.801,-180.156,590.839,-0.332,-0.553,0.041
788.639,-182.937,590.956,-0.368,-0.633,-0.046
786.933,-184.745,590.602,-0.296,-0.750,-0.147
787.269,-184.627,589.270,-0.158,-0.784,-0.339
787.975,-182.410,587.639,-0.044,-0.854,-0.341
788.069,-180.986,587.003,0.078,-0.835,-0.353
789.849,-181.892,587.030,0.079,-0.772,-0.353
791.037,-182.923,586.794,-0.053,-0.768,-0.346
789.740,-182.964,588.294,-0.070,-0.769,-0.319
787.880,-183.028,589.082,-0.125,-0.793,-0.248
787.914,-182.807,589.025,-0.265,-0.884,-0.312
786.133,-183.412,590.394,-0.274,-0.905,-0.243
785.150,-185.157,591.050,-0.281,-0.920,-0.221
787.000,-184.000,591.000,-0.210,-0.980,-0.280
787.020,-182.123,589.302,-0.135,-0.918,-0.218
787.105,-181.340,588.526,-0.196,-0.945,-0.170
786.126,-180.886,590.382,-0.240,-1.039,-0.069
786.143,-183.889,590.414,-0.321,-1.049,-0.134
787.303,-184.411,587.931,-0.195,-1.051,-0.222
789.728,-181.514,586.863,0.037,-1.051,-0.217
792.019,-182.123,585.887,0.068,-1.048,-0.282
790.176,-182.154,584.980,0.008,-0.986,-0.217
789.018,-179.543,585.827,-0.118,-0.920,-0.199
788.777,-177.595,585.971,-0.183,-0.898,-0.222
789.387,-175.845,585.844,-0.287,-0.952,-0.199
789.897,-174.587,586.073,-0.366,-0.971,-0.221
790.180,-175.462,587.463,-0.353,-0.888,-0.194
791.058,-177.268,587.932,-0.432,-0.924,-0.132
791.000,-179.000,588.000,-0.420,-0.980,-0.140
791.911,-180.054,589.879,-0.356,-0.974,-0.261
791.387,-178.638,588.837,-0.306,-1.037,-0.342
790.582,-177.062,586.375,-0.224,-1.024,-0.357
791.057,-177.217,585.691,-0.228,-0.936,-0.322
790.581,-178.702,586.231,-0.315,-0.894,-0.265
789.733,-180.031,587.076,-0.347,-0.825,-0.293
788.999,-177.752,586.995,-0.273,-0.847,-0.354
789.900,-175.985,587.020,-0.211,-0.911,-0.354
790.870,-176.821,586.250,-0.258,-0.853,-0.289
790.989,-177.521,585.149,-0.339,-0.833,-0.280
790.628,-178.724,584.970,-0.349,-0.844,-0.250
791.348,-178.865,587.063,-0.354,-0.839,-0.193
791.961,-179.275,587.575,-0.345,-0.840,-0.222
792.132,-180.023,584.597,-0.354,-0.841,-0.201
793.000,-180.000,584.000,-0.350,-0.840,-0.140
791.322,-181.692,584.064,-0.337,-0.782,-0.137
790.058,-182.460,583.893,-0.465,-0.712,-0.147
789.748,-180.463,583.981,-0.444,-0.695,-0.102
790.334,-180.496,583.832,-0.233,-0.689,-0.034
790.751,-182.596,583.791,-0.107,-0.575,0.014
789.863,-181.468,582.599,-0.059,-0.477,-0.017
791.170,-179.972,580.880,0.005,-0.410,-0.069
792.927,-180.010,579.989,0.005,-0.224,0.057
793.169,-179.947,580.808,-0.066,-0.090,0.150
791.616,-179.642,580.886,-0.059,0.015,0.080
790.050,-177.897,581.967,-0.136,0.154,0.101
789.810,-178.649,585.310,-0.254,0.246,0.154
790.151,-178.606,585.932,-0.283,0.286,0.134
791.089,-178.230,587.410,-0.278,0.278,0.140
790.000,-181.000,589.000,-0.280,0.280,0.070
788.066,-181.097,587.982,-0.288,0.281,-0.058
788.646,-181.510,589.402,-0.187,0.279,-0.116
789.077,-182.738,590.257,-0.019,0.281,-0.222
788.631,-183.321,589.345,0.159,0.281,-0.325
789.107,-184.360,588.720,0.222,0.278,-0.364
788.631,-185.139,589.217,0.312,0.283,-0.445
786.938,-184.911,589.997,0.424,0.277,-0.569
787.854,-183.137,589.078,0.480,0.214,-0.631
789.035,-181.454,588.845,0.625,0.203,-0.578
788.234,-179.408,589.527,0.507,0.220,-0.510
787.285,-178.926,590.538,0.349,0.180,-0.455
786.640,-178.674,590.860,0.343,0.090,-0.390
787.242,-177.685,591.339,0.254,-0.032,-0.333
788.118,-175.487,593.185,0.299,-0.073,-0.267
789.000,-173.000,592.000,0.420,-0.140,-0.140
789.171,-177.018,590.077,0.376,-0.212,-0.009
787.424,-182.223,589.517,0.181,-0.156,-0.028
787.000,-183.483,587.362,0.143,-0.134,-0.200
788.797,-181.577,587.402,0.314,-0.139,-0.321
788.269,-179.677,589.802,0.459,-0.154,-0.225
786.784,-181.514,591.186,0.374,-0.228,-0.131
787.034,-181.928,592.072,0.125,-0.284,-0.142
787.006,-181.023,592.116,0.066,-0.345,-0.202
787.677,-180.996,589.570,0.130,-0.365,-0.326
788.246,-180.979,588.408,0.151,-0.256,-0.403
787.050,-180.672,589.690,0.102,-0.183,-0.434
786.967,-179.137,589.984,0.063,-0.246,-0.389
786.797,-177.607,591.639,0.065,-0.289,-0.345
787.223,-176.955,593.125,-0.018,-0.369,-0.350
789.000,-177.000,594.000,-0.140,-0.490,-0.350
789.847,-177.033,594.220,-0.214,-0.548,-0.358
790.880,-176.867,592.343,-0.114,-0.660,-0.251
790.390,-177.929,591.540,-0.015,-0.757,-0.153
789.327,-180.123,589.392,0.043,-0.774,-0.134
788.538,-181.307,587.645,0.202,-0.758,-0.156
787.752,-182.122,587.853,0.299,-0.676,-0.227
785.797,-180.776,585.868,0.431,-0.550,-0.283
783.995,-178.075,586.756,0.432,-0.427,-0.284
785.481,-178.736,589.697,0.240,-0.361,-0.215
787.248,-178.615,589.557,0.163,-0.306,-0.251
788.724,-177.672,587.902,0.091,-0.242,-0.293
788.215,-180.869,588.792,0.087,-0.181,-0.285
786.661,-182.998,591.674,0.164,-0.130,-0.391
787.145,-179.237,591.956,0.316,-0.147,-0.504
788.000,-176.000,593.000,0.560,-0.210,-0.560
788.924,-175.956,594.145,0.519,-0.274,-0.559
788.485,-176.509,592.364,0.367,-0.284,-0.603
786.594,-178.393,592.217,0.318,-0.278,-0.679
785.190,-178.821,593.290,0.246,-0.277,-0.727
784.846,-177.336,592.407,0.343,-0.296,-0.790
784.957,-175.548,592.071,0.522,-0.360,-0.748
785.038,-173.910,593.073,0.558,-0.349,-0.620
785.915,-173.057,593.084,0.496,-0.410,-0.498
787.449,-172.805,591.410,0.431,-0.492,-0.428
789.563,-173.859,590.012,0.378,-0.474,-0.383
789.423,-173.445,589.911,0.305,-0.538,-0.279
788.552,-173.056,589.800,0.264,-0.558,-0.150
787.387,-174.511,590.199,0.164,-0.568,-0.049
785.982,-176.266,591.096,-0.027,-0.550,-0.083
787.000,-177.000,591.000,-0.140,-0.490,-0.140
786.123,-176.008,590.901,-0.253,-0.495,-0.080
787.138,-177.324,591.775,-0.441,-0.430,-0.059
788.550,-178.511,591.990,-0.553,-0.454,-0.107
787.129,-176.932,591.832,-0.539,-0.503,-0.182
788.847,-175.590,591.814,-0.457,-0.487,-0.202
789.893,-174.725,590.548,-0.418,-0.484,-0.119
788.942,-172.846,588.933,-0.419,-0.415,-0.067
788.093,-171.971,588.961,-0.417,-0.417,-0.007
787.080,-172.188,589.669,-0.521,-0.427,0.109
786.425,-171.437,591.747,-0.697,-0.409,0.243
784.914,-174.097,594.328,-0.892,-0.454,0.298
785.345,-176.710,594.980,-1.011,-0.522,0.268
785.916,-177.303,594.868,-0.956,-0.567,0.289
786.201,-179.273,593.757,-0.900,-0.558,0.275
788.000,-180.000,592.000,-0.700,-0.560,0.280
788.026,-180.906,590.216,-0.386,-0.561,0.287
788.127,-179.955,589.697,-0.197,-0.559,0.262
786.657,-176.849,590.690,-0.022,-0.559,0.339
785.878,-175.379,590.798,-0.066,-0.564,0.320
787.131,-174.853,591.196,-0.296,-0.542,0.273
785.440,-175.044,592.154,-0.450,-0.480,0.280
785.097,-175.005,593.103,-0.567,-0.492,0.281
786.030,-175.885,594.020,-0.626,-0.492,0.283
785.089,-176.965,593.092,-0.689,-0.485,0.220
785.368,-176.867,593.555,-0.679,-0.497,0.207
786.522,-177.443,593.299,-0.520,-0.481,0.205
786.920,-178.370,590.943,-0.348,-0.501,0.234
786.987,-179.288,591.209,-0.263,-0.474,0.291
786.907,-180.075,590.824,-0.194,-0.410,0.274
785.000,-180.000,590.000,-0.070,-0.350,0.210
783.825,-179.904,589.931,-0.061,-0.347,0.140
785.620,-180.825,591.297,-0.119,-0.316,0.194
785.880,-180.591,592.511,-0.217,-0.212,0.185
786.254,-179.524,590.956,-0.330,-0.228,0.113
786.863,-180.646,591.299,-0.371,-0.175,0.173
785.619,-182.270,592.140,-0.536,-0.150,0.207
785.026,-183.049,594.232,-0.629,-0.213,0.132
785.928,-183.077,595.996,-0.565,-0.269,0.069
786.174,-181.386,596.499,-0.508,-0.456,0.126
785.054,-180.617,597.837,-0.433,-0.540,0.148
785.154,-181.678,594.174,-0.403,-0.632,0.139
786.428,-181.944,593.080,-0.267,-0.720,0.122
786.996,-182.173,592.030,-0.105,-0.701,0.054
787.067,-183.123,588.789,-0.068,-0.784,0.077
788.000,-183.000,589.000,-0.070,-0.770,0.070
787.324,-182.043,587.136,-0.131,-0.646,0.009
785.294,-182.605,588.318,-0.184,-0.569,-0.052
784.692,-183.343,589.103,-0.297,-0.558,-0.083
785.489,-182.250,589.505,-0.370,-0.558,-0.059
787.529,-182.267,591.267,-0.339,-0.566,-0.080
786.359,-182.933,591.056,-0.355,-0.547,-0.063
785.069,-180.785,593.162,-0.349,-0.489,-0.073
786.917,-179.040,593.109,-0.349,-0.554,-0.074
786.998,-178.403,592.739,-0.352,-0.572,-0.015
787.087,-175.940,593.258,-0.348,-0.542,0.080
785.741,-174.090,592.376,-0.347,-0.606,0.212
784.665,-174.024,594.028,-0.380,-0.633,0.184
784.964,-173.914,596.551,-0.552,-0.636,0.255
785.121,-174.127,596.973,-0.721,-0.719,0.349
786.000,-176.000,597.000,-0.840,-0.840,0.280
785.113,-178.615,596.346,-0.909,-0.846,0.284
784.986,-181.169,593.597,-0.871,-0.830,0.184
784.611,-183.510,592.335,-0.729,-0.855,0.084
785.882,-183.962,590.641,-0.518,-0.804,0.044
786.603,-184.250,588.191,-0.363,-0.762,-0.024
784.707,-185.030,588.009,-0.155,-0.774,-0.087
786.183,-183.879,588.020,0.005,-0.768,-0.141
787.046,-183.010,588.911,0.001,-0.706,-0.136
786.786,-183.003,589.834,0.003,-0.640,-0.252
787.722,-183.004,590.161,-0.044,-0.592,-0.297
787.490,-182.543,588.826,-0.087,-0.489,-0.290
786.317,-181.842,587.577,-0.042,-0.363,-0.401
785.863,-183.804,588.217,0.010,-0.242,-0.413
784.705,-184.915,589.217,-0.005,-0.125,-0.429
783.000,-183.000,591.000,-0.000,-0.070,-0.490
783.777,-181.245,591.900,0.062,-0.070,-0.495
784.762,-179.505,592.729,0.119,-0.066,-0.441
785.873,-178.197,593.360,0.166,-0.104,-0.379
787.699,-177.873,594.905,0.073,-0.177,-0.298
787.605,-178.085,595.914,-0.029,-0.239,-0.152
786.775,-177.764,594.751,-0.081,-0.391,-0.055
785.940,-175.831,595.042,-0.064,-0.491,0.007
785.080,-174.092,594.160,0.001,-0.487,0.129
784.098,-173.150,592.857,-0.102,-0.553,0.255
783.887,-172.779,593.804,-0.273,-0.521,0.369
783.407,-173.797,593.308,-0.478,-0.477,0.502
782.603,-175.999,593.229,-0.594,-0.481,0.595
783.235,-177.183,595.802,-0.654,-0.397,0.639
784.145,-178.316,597.037,-0.697,-0.434,0.622
785.000,-181.000,597.000,-0.630,-0.490,0.560
785.003,-181.957,597.050,-0.632,-0.541,0.502
785.559,-182.701,596.322,-0.541,-0.673,0.394
786.683,-182.739,595.191,-0.393,-0.737,0.254
786.588,-181.404,594.795,-0.309,-0.815,0.196
785.314,-182.508,594.808,-0.280,-0.835,0.209
785.190,-181.359,593.594,-0.266,-0.854,0.109
787.131,-178.904,591.854,-0.129,-0.910,0.076
787.105,-178.105,589.225,-0.069,-0.845,0.202
786.049,-176.868,587.752,-0.117,-0.834,0.267
785.443,-178.903,588.975,-0.269,-0.814,0.332
783.930,-180.719,588.018,-0.451,-0.686,0.353
784.282,-181.745,588.829,-0.498,-0.598,0.355
785.036,-184.903,591.584,-0.479,-0.541,0.334
785.011,-186.095,592.011,-0.408,-0.484,0.275
785.000,-188.000,592.000,-0.350,-0.490,0.280
784.954,-191.472,591.063,-0.295,-0.497,0.225
785.055,-194.995,591.622,-0.144,-0.434,0.115
785.137,-196.891,592.113,0.136,-0.416,-0.059
786.496,-193.722,591.745,0.426,-0.419,-0.194
784.867,-189.542,591.949,0.636,-0.426,-0.221
784.188,-186.173,592.059,0.796,-0.407,-0.298
784.937,-182.790,593.095,0.759,-0.349,-0.271
783.081,-181.081,593.951,0.573,-0.414,-0.144
783.649,-180.151,594.783,0.444,-0.432,-0.183
784.536,-179.829,595.120,0.329,-0.402,-0.275
785.877,-180.391,594.337,0.223,-0.464,-0.271
787.174,-181.643,593.514,0.226,-0.497,-0.307
786.769,-183.645,592.699,0.312,-0.478,-0.364
785.758,-185.065,591.906,0.441,-0.411,-0.437
784.000,-183.000,592.000,0.560,-0.420,-0.560
783.930,-178.494,592.930,0.625,-0.428,-0.570
784.021,-177.008,592.918,0.601,-0.397,-0.502
783.934,-176.209,593.874,0.410,-0.514,-0.485
783.362,-173.505,595.708,0.116,-0.568,-0.479
782.954,-173.388,595.839,-0.168,-0.574,-0.364
784.206,-175.408,596.016,-0.294,-0.641,-0.272
783.931,-175.986,596.033,-0.359,-0.628,-0.279
783.064,-175.944,597.804,-0.545,-0.629,-0.215
782.154,-177.511,599.166,-0.689,-0.632,-0.202
781.751,-179.340,598.002,-0.673,-0.659,-0.218
781.969,-181.363,598.073,-0.547,-0.781,-0.203
781.517,-184.148,597.355,-0.461,-0.873,-0.215
780.866,-185.141,597.141,-0.391,-0.928,-0.214
782.384,-186.234,598.090,-0.259,-0.989,-0.297
784.000,-187.000,598.000,-0.140,-1.050,-0.350
783.837,-186.877,597.220,-0.022,-1.167,-0.342
785.644,-187.925,595.474,0.150,-1.301,-0.446
785.380,-187.396,594.172,0.320,-1.377,-0.578
784.980,-186.852,593.735,0.338,-1.411,-0.694
786.197,-186.967,593.953,0.224,-1.389,-0.817
785.779,-187.063,592.328,0.023,-1.411,-0.939
784.925,-186.926,589.935,-0.068,-1.391,-1.058
784.015,-185.150,590.879,-0.003,-1.204,-1.119
784.751,-183.428,591.870,-0.004,-1.115,-1.075
784.603,-181.083,592.521,0.075,-1.136,-0.955
782.769,-178.036,593.396,0.253,-1.069,-0.842
783.824,-173.846,594.404,0.426,-1.083,-0.692
786.640,-170.230,594.909,0.490,-1.231,-0.501
786.955,-170.131,593.820,0.403,-1.259,-0.324
788.000,-171.000,593.000,0.280,-1.330,-0.210
789.945,-171.864,592.108,0.153,-1.408,-0.210
789.322,-172.674,591.875,0.095,-1.330,-0.166
787.913,-174.092,592.070,-0.042,-1.384,-0.117
785.648,-175.680,591.184,-0.232,-1.352,-0.181
786.983,-176.088,589.070,-0.286,-1.222,-0.222
788.925,-177.487,587.703,-0.281,-1.175,-0.308
786.906,-180.208,585.833,-0.361,-1.038,-0.427
787.888,-181.965,584.938,-0.489,-0.918,-0.486
787.470,-181.358,585.958,-0.344,-0.802,-0.549
786.320,-179.626,585.697,-0.111,-0.673,-0.570
787.799,-178.152,586.601,-0.033,-0.555,-0.526
787.406,-178.258,586.852,0.020,-0.448,-0.470
786.926,-179.181,589.194,-0.025,-0.417,-0.515
787.000,-178.895,593.442,-0.068,-0.423,-0.557
787.000,-178.000,594.000,-0.000,-0.490,-0.490
787.033,-177.040,593.978,0.011,-0.615,-0.486
786.352,-177.600,593.956,-0.101,-0.650,-0.494
785.159,-178.630,594.028,-0.197,-0.576,-0.489
784.250,-179.677,593.610,-0.212,-0.561,-0.470
781.923,-181.663,594.238,-0.202,-0.554,-0.397
782.589,-181.898,591.825,-0.106,-0.567,-0.441
785.030,-182.048,588.040,0.085,-0.555,-0.489
783.149,-181.244,593.538,0.208,-0.490,-0.427
783.430,-177.431,594.226,0.163,-0.544,-0.316
785.365,-178.388,589.725,0.079,-0.570,-0.163
787.150,-181.191,591.653,0.075,-0.550,-0.169
789.916,-178.129,593.320,0.046,-0.581,-0.208
789.576,-177.442,594.366,-0.005,-0.654,-0.114
788.986,-178.945,594.993,0.094,-0.705,-0.156
788.000,-176.000,595.000,0.210,-0.770,-0.210
786.134,-175.583,595.891,0.104,-0.840,-0.201
785.404,-178.506,596.104,-0.143,-0.824,-0.309
783.853,-179.116,595.395,-0.290,-0.927,-0.433
784.727,-179.074,594.267,-0.221,-0.995,-0.561
786.006,-180.960,593.884,-0.104,-0.978,-0.658
784.482,-183.269,593.892,-0.063,-0.972,-0.713
782.953,-181.805,592.917,0.009,-0.907,-0.774
783.834,-180.914,592.062,0.133,-0.909,-0.834
785.821,-181.484,591.135,0.154,-0.909,-0.905
785.745,-178.058,591.257,0.087,-0.922,-0.875
786.834,-176.940,593.039,0.045,-0.854,-0.791
788.136,-178.675,594.616,-0.059,-0.912,-0.765
788.031,-179.021,596.413,-0.157,-1.197,-0.772
789.105,-178.917,595.692,-0.131,-1.260,-0.769
788.000,-178.000,594.000,-0.070,-1.330,-0.770
787.801,-178.757,593.258,-0.062,-1.344,-0.772
787.831,-179.860,591.239,-0.129,-1.301,-0.764
784.962,-180.505,591.770,-0.113,-1.401,-0.783
785.599,-180.966,593.771,-0.027,-1.374,-0.732
785.389,-179.241,593.656,0.016,-1.446,-0.699
785.267,-179.227,592.734,0.088,-1.445,-0.689
787.072,-180.009,591.981,0.143,-1.327,-0.629
786.993,-179.978,592.016,0.202,-1.333,-0.694
787.814,-180.147,591.275,0.365,-1.219,-0.712
787.456,-178.800,589.725,0.618,-1.141,-0.685
786.087,-176.413,587.454,0.766,-1.051,-0.718
785.824,-174.045,587.335,0.765,-0.942,-0.669
785.990,-174.378,589.526,0.766,-0.891,-0.615
786.030,-174.910,590.075,0.686,-0.840,-0.551
787.000,-174.000,592.000,0.700,-0.910,-0.560
787.971,-174.873,593.934,0.772,-0.914,-0.628
788.434,-174.521,593.921,0.751,-0.946,-0.623
790.363,-173.060,594.122,0.859,-1.038,-0.674
790.796,-173.136,593.032,0.942,-1.066,-0.707
791.110,-172.344,591.425,1.015,-1.161,-0.700
790.569,-169.238,590.756,1.037,-1.180,-0.693
788.972,-168.056,588.842,0.898,-1.117,-0.624
789.075,-169.026,587.977,0.719,-1.120,-0.564
787.217,-167.385,588.125,0.417,-1.073,-0.506
787.544,-167.174,587.585,0.194,-0.989,-0.440
787.017,-169.244,588.977,0.040,-0.982,-0.387
785.879,-170.425,590.351,-0.164,-0.974,-0.316
788.834,-171.087,591.295,-0.318,-0.987,-0.274
788.817,-171.056,592.048,-0.341,-0.975,-0.282
789.000,-173.000,592.000,-0.210,-0.980,-0.280
790.794,-174.985,591.257,-0.089,-1.047,-0.280
791.821,-174.208,589.354,0.075,-1.041,-0.277
791.544,-174.334,588.795,0.256,-1.101,-0.314
790.098,-175.401,588.654,0.241,-1.096,-0.371
789.910,-174.291,587.256,0.075,-1.042,-0.332
789.949,-172.782,585.643,-0.010,-1.040,-0.365
789.999,-173.086,584.996,-0.079,-0.897,-0.341
789.127,-174.835,585.001,-0.202,-0.776,-0.215
787.948,-176.740,585.612,-0.316,-0.665,-0.208
788.579,-177.162,586.927,-0.434,-0.525,-0.207
788.913,-176.470,586.499,-0.314,-0.449,-0.221
788.874,-175.543,587.997,-0.161,-0.397,-0.180
788.833,-174.736,590.596,-0.127,-0.317,-0.131
787.829,-173.906,592.298,-0.063,-0.196,-0.048
787.000,-174.000,594.000,-0.070,-0.210,0.070
786.153,-173.343,594.780,-0.071,-0.275,0.008
785.192,-171.128,596.572,-0.072,-0.318,0.041
784.680,-172.018,597.120,-0.038,-0.443,0.088
785.304,-173.543,596.226,0.041,-0.506,0.060
786.001,-174.650,594.080,0.076,-0.480,0.065
785.994,-177.610,594.265,0.070,-0.501,-0.023
787.144,-177.907,593.802,0.152,-0.565,-0.071
788.901,-176.987,591.089,0.338,-0.627,-0.131
789.847,-177.798,590.463,0.461,-0.635,-0.260
789.996,-178.143,587.472,0.597,-0.622,-0.294
789.698,-177.506,587.735,0.618,-0.643,-0.265
790.003,-176.315,589.106,0.513,-0.599,-0.309
789.848,-174.416,589.204,0.501,-0.562,-0.365
790.095,-174.135,589.930,0.567,-0.646,-0.434
790.000,-174.000,589.000,0.490,-0.700,-0.490
789.004,-168.024,591.639,0.404,-0.695,-0.434
789.660,-165.462,591.102,0.562,-0.757,-0.325
790.482,-171.957,588.153,0.348,-0.743,-0.199
791.063,-173.613,587.621,0.006,-0.674,-0.302
790.663,-169.229,586.569,0.167,-0.719,-0.443
791.156,-166.646,587.228,0.276,-0.685,-0.304
790.926,-167.186,588.063,0.122,-0.708,-0.128
790.898,-170.768,588.961,-0.184,-0.772,-0.004
791.466,-171.421,588.955,-0.455,-0.706,-0.042
788.440,-169.903,589.645,-0.578,-0.710,-0.136
788.365,-170.498,589.171,-0.720,-0.635,-0.133
788.333,-171.534,587.302,-0.782,-0.504,-0.150
786.665,-173.618,588.363,-0.760,-0.377,-0.123
787.065,-173.874,587.757,-0.683,-0.271,-0.062
787.000,-173.000,587.000,-0.560,-0.210,-0.000
787.851,-171.374,587.839,-0.495,-0.082,0.119
788.114,-169.855,589.296,-0.480,-0.067,0.246
787.736,-170.004,591.360,-0.535,-0.036,0.358
788.172,-167.503,592.008,-0.566,0.017,0.496
789.245,-169.684,591.828,-0.571,-0.010,0.575
788.544,-173.299,592.112,-0.646,0.010,0.554
786.963,-173.070,593.071,-0.624,0.076,0.561
787.024,-175.823,593.074,-0.561,0.140,0.502
786.768,-175.530,592.077,-0.562,0.088,0.311
787.971,-174.391,591.966,-0.551,0.053,0.263
786.280,-176.179,591.375,-0.597,0.111,0.270
784.529,-177.493,590.873,-0.642,0.150,0.157
784.875,-177.923,592.742,-0.616,0.134,0.150
783.972,-176.857,595.367,-0.548,0.141,0.128
785.000,-177.000,597.000,-0.490,0.070,0.070
784.193,-177.089,597.056,-0.490,-0.064,0.129
784.360,-176.342,596.907,-0.451,-0.060,0.189
785.872,-174.791,596.989,-0.334,-0.151,0.262
785.396,-173.546,596.762,-0.234,-0.247,0.277
784.639,-174.426,597.033,-0.205,-0.321,0.300
785.262,-175.037,596.817,-0.217,-0.436,0.357
785.954,-175.002,595.940,-0.287,-0.417,0.349
784.132,-175.831,595.076,-0.348,-0.419,0.351
783.776,-179.164,594.720,-0.397,-0.419,0.298
784.511,-181.303,596.432,-0.493,-0.459,0.231
785.830,-179.781,596.335,-0.403,-0.528,0.170
787.395,-178.724,593.701,-0.181,-0.607,0.133
788.367,-179.242,592.878,-0.030,-0.732,0.135
790.209,-180.096,591.661,0.087,-0.775,0.054
790.000,-180.000,589.000,0.210,-0.840,0.000
789.922,-179.156,587.978,0.341,-0.847,0.003
789.527,-177.704,588.095,0.313,-0.828,-0.049
787.938,-175.133,587.673,0.228,-0.857,-0.090
787.688,-172.842,588.464,0.168,-0.802,-0.029
786.348,-171.714,588.830,-0.004,-0.756,-0.000
787.477,-172.220,589.355,-0.179,-0.672,0.010
787.851,-173.029,592.183,-0.363,-0.553,0.072
785.115,-173.010,592.134,-0.424,-0.496,0.068
785.597,-172.991,591.557,-0.359,-0.381,0.173
786.265,-172.940,593.632,-0.314,-0.286,0.279
785.060,-173.312,593.598,-0.223,-0.281,0.295
785.128,-174.583,595.013,-0.222,-0.289,0.390
786.186,-174.843,597.270,-0.179,-0.391,0.301
785.929,-173.922,595.636,-0.055,-0.502,0.209
787.000,-175.000,594.000,0.000,-0.560,0.210
789.791,-177.600,592.345,0.061,-0.567,0.086
789.483,-180.221,590.339,0.119,-0.506,0.026
788.110,-182.063,589.363,0.187,-0.455,-0.143
787.412,-181.160,588.045,0.234,-0.377,-0.415
786.725,-179.185,586.166,0.316,-0.341,-0.501
786.955,-176.116,584.734,0.345,-0.243,-0.483
785.913,-172.859,585.136,0.272,-0.058,-0.412
785.929,-172.918,587.799,0.091,0.063,-0.289
786.219,-173.815,589.640,-0.175,0.135,-0.216
784.994,-174.716,592.120,-0.251,0.136,-0.177
784.961,-174.917,596.635,-0.389,0.153,-0.062
784.447,-175.738,598.006,-0.522,0.106,0.037
783.893,-178.822,598.250,-0.478,0.073,0.078
784.014,-178.825,600.363,-0.488,0.055,0.063
784.000,-179.000,602.000,-0.350,-0.140,0.000
784.009,-179.376,601.331,-0.161,-0.268,-0.064
783.919,-175.817,598.749,-0.036,-0.376,-0.037
784.345,-174.694,596.265,0.034,-0.486,0.069
785.419,-174.752,592.898,-0.087,-0.465,0.047
785.957,-173.680,590.169,-0.285,-0.391,0.121
785.953,-174.135,590.087,-0.458,-0.347,0.217
786.011,-173.957,591.123,-0.648,-0.349,0.212
786.011,-173.946,592.897,-0.895,-0.286,0.277
785.960,-174.820,593.757,-0.985,-0.266,0.276
785.911,-175.554,595.251,-0.970,-0.335,0.331
785.799,-176.927,596.148,-0.975,-0.352,0.325
785.863,-178.726,595.974,-0.811,-0.362,0.265
786.103,-178.651,597.261,-0.542,-0.458,0.277
787.158,-176.734,595.533,-0.234,-0.574,0.195
787.000,-176.000,594.000,-0.070,-0.630,0.140
786.067,-175.961,595.797,-0.126,-0.689,0.081
785.339,-176.706,596.056,-0.230,-0.753,0.020
784.860,-176.801,596.367,-0.414,-0.810,-0.076
787.077,-174.991,596.932,-0.553,-0.875,-0.193
785.883,-175.579,594.888,-0.690,-0.922,-0.211
785.298,-177.262,592.437,-0.765,-0.898,-0.204
787.016,-178.077,589.778,-0.617,-0.834,-0.135
786.021,-178.987,587.164,-0.498,-0.714,-0.136
786.897,-178.285,585.334,-0.332,-0.523,-0.155
785.633,-177.249,584.110,-0.156,-0.408,-0.078
784.928,-176.418,583.459,-0.146,-0.187,-0.084
786.052,-175.818,582.643,-0.124,0.143,-0.007
784.463,-176.056,585.240,-0.177,0.319,0.198
785.306,-176.017,589.477,-0.385,0.440,0.288
786.000,-177.000,591.000,-0.560,0.560,0.350
784.189,-178.001,593.470,-0.625,0.625,0.361
784.326,-177.814,596.408,-0.639,0.638,0.284
786.471,-179.114,598.064,-0.565,0.593,0.318
786.178,-180.372,599.618,-0.388,0.522,0.364
784.427,-179.550,599.882,-0.224,0.473,0.332
785.209,-178.857,599.963,-0.121,0.395,0.262
784.915,-177.926,598.870,-0.067,0.272,0.209
784.045,-177.919,597.966,-0.066,0.213,0.211
782.657,-178.951,598.892,-0.174,0.158,0.158
779.496,-178.464,598.403,-0.312,0.088,0.090
779.061,-176.942,597.185,-0.414,0.039,0.049
780.220,-175.461,596.964,-0.559,-0.037,0.137
779.727,-176.615,598.638,-0.647,-0.072,0.329
780.224,-178.080,600.068,-0.713,-0.073,0.343
782.000,-178.000,600.000,-0.770,-0.140,0.350
782.947,-178.782,601.662,-0.710,-0.260,0.420
782.937,-180.457,602.985,-0.657,-0.386,0.372
783.777,-181.752,602.835,-0.512,-0.496,0.312
785.577,-182.498,602.705,-0.356,-0.655,0.222
783.907,-184.919,601.191,-0.348,-0.829,0.091
783.019,-184.507,599.631,-0.250,-0.933,-0.028
782.941,-183.000,597.868,-0.214,-1.060,-0.147
782.890,-183.103,597.010,-0.279,-1.120,-0.207
784.158,-181.149,596.400,-0.274,-1.115,-0.262
782.288,-181.757,594.376,-0.329,-1.131,-0.333
782.334,-181.024,593.449,-0.355,-1.085,-0.360
782.594,-179.959,592.234,-0.353,-1.010,-0.326
782.022,-181.140,592.246,-0.331,-0.858,-0.268
783.112,-179.792,592.955,-0.182,-0.764,-0.285
783.000,-180.000,592.000,-0.000,-0.700,-0.280
783.077,-178.539,593.623,0.184,-0.569,-0.220
782.024,-175.884,594.503,0.288,-0.566,-0.123
783.368,-177.664,592.776,0.205,-0.484,0.046
785.579,-179.669,593.796,0.087,-0.390,0.021
784.324,-177.924,595.317,0.074,-0.450,-0.100
785.512,-175.728,596.160,0.061,-0.496,-0.051
787.009,-176.048,595.877,-0.006,-0.487,0.003
786.077,-176.029,593.205,-0.067,-0.425,0.066
785.878,-175.973,591.888,-0.071,-0.370,0.076
785.596,-175.509,592.598,-0.102,-0.254,0.095
783.440,-174.200,593.336,-0.195,-0.189,0.205
782.898,-173.979,594.390,-0.215,-0.223,0.193
782.694,-173.957,595.142,-0.336,-0.201,0.239
782.032,-174.053,596.234,-0.507,-0.215,0.273
783.000,-175.000,597.000,-0.560,-0.210,0.210
783.031,-176.799,595.225,-0.622,-0.151,0.273
782.992,-177.147,595.362,-0.639,-0.082,0.241
782.776,-177.211,596.905,-0.595,-0.092,0.184
783.002,-178.835,596.627,-0.517,-0.194,0.252
782.627,-178.603,597.341,-0.489,-0.201,0.284
783.314,-178.012,597.982,-0.486,-0.230,0.277
783.939,-179.127,598.050,-0.494,-0.359,0.283
782.965,-180.891,598.968,-0.558,-0.418,0.345
784.653,-181.248,598.383,-0.515,-0.469,0.358
784.895,-180.063,596.096,-0.397,-0.554,0.337
785.517,-180.396,592.885,-0.290,-0.528,0.389
784.873,-181.397,592.111,-0.304,-0.478,0.434
780.953,-182.176,594.838,-0.363,-0.490,0.401
781.276,-181.886,596.060,-0.441,-0.399,0.346
782.000,-182.000,597.000,-0.630,-0.280,0.350
781.882,-183.813,598.836,-0.755,-0.217,0.236
782.283,-184.111,599.083,-0.840,-0.199,0.132
780.915,-183.937,598.875,-0.746,-0.251,0.163
781.657,-183.706,598.581,-0.490,-0.314,0.088
783.089,-182.451,597.583,-0.269,-0.360,0.093
781.412,-182.084,598.268,-0.121,-0.349,0.137
779.973,-183.050,599.006,-0.144,-0.430,0.064
780.000,-182.159,598.980,-0.144,-0.492,0.005
780.557,-180.868,599.121,-0.082,-0.474,-0.063
782.526,-181.834,598.139,-0.024,-0.560,-0.064
782.419,-181.802,597.910,0.018,-0.509,-0.129
781.731,-182.322,597.395,-0.031,-0.524,-0.261
781.944,-181.337,595.265,-0.081,-0.529,-0.277
782.133,-180.086,593.908,-0.161,-0.326,-0.282
783.000,-182.000,594.000,-0.350,-0.350,-0.280
781.251,-181.273,594.777,-0.424,-0.363,-0.281
781.377,-180.168,596.566,-0.406,-0.325,-0.237
782.407,-178.951,596.696,-0.470,-0.418,-0.159
781.051,-177.367,595.271,-0.507,-0.367,-0.117
780.972,-178.837,596.719,-0.613,-0.237,-0.038
780.903,-181.680,598.170,-0.710,-0.217,0.004
781.018,-184.112,599.077,-0.698,-0.285,-0.002
780.150,-184.074,599.076,-0.698,-0.285,-0.064
778.859,-183.193,598.728,-0.755,-0.213,-0.086
779.789,-182.186,599.806,-0.782,-0.251,-0.010
779.236,-182.339,600.083,-0.764,-0.294,-0.006
779.103,-182.997,601.496,-0.735,-0.283,0.024
780.118,-181.506,600.363,-0.461,-0.395,0.088
780.030,-180.942,600.130,-0.264,-0.501,0.150
781.000,-180.000,599.000,-0.140,-0.560,0.210
781.817,-181.478,596.860,-0.063,-0.567,0.272
783.550,-183.958,597.677,-0.090,-0.546,0.256
783.568,-183.726,594.452,-0.041,-0.587,0.076
782.743,-184.471,594.273,-0.086,-0.489,-0.067
784.345,-185.460,593.166,0.052,-0.397,-0.179
782.116,-187.258,594.843,-0.144,-0.330,-0.211
779.978,-185.801,594.633,-0.113,-0.280,-0.292
780.026,-182.501,592.524,0.142,-0.282,-0.417
780.480,-170.354,603.183,0.303,-0.310,-0.338
782.219,-165.047,604.669,1.216,-0.519,0.060
780.336,-182.390,600.905,0.677,-0.530,0.504
780.567,-181.049,596.027,-0.034,-0.493,0.191
782.107,-178.854,595.456,0.588,-0.453,-0.082
782.106,-187.191,603.740,0.345,-0.358,-0.008
783.000,-178.000,601.000,0.280,-0.630,-0.210
782.066,-176.362,602.230,0.326,-0.714,-0.160
782.206,-177.694,604.013,-0.001,-0.711,-0.127
780.075,-177.560,601.084,-0.249,-0.898,-0.085
778.670,-182.407,600.140,-0.569,-0.867,0.053
780.554,-182.792,596.747,-0.497,-0.855,-0.062
780.989,-182.964,597.262,-0.406,-0.924,-0.143
782.170,-180.787,595.757,-0.185,-0.984,-0.059
784.821,-179.927,593.987,0.002,-0.986,0.066
785.466,-180.867,594.163,-0.072,-0.869,0.063
782.588,-181.587,593.140,-0.040,-0.749,0.163
781.742,-182.416,592.692,-0.189,-0.617,0.207
781.504,-183.834,593.548,-0.312,-0.529,0.091
780.968,-184.933,595.303,-0.386,-0.469,0.062
780.818,-182.590,594.937,-0.498,-0.417,-0.011
779.000,-181.000,596.000,-0.490,-0.420,-0.000
780.562,-180.789,597.721,-0.550,-0.362,0.065
782.117,-183.300,600.177,-0.532,-0.332,0.076
781.625,-183.841,601.473,-0.392,-0.401,0.035
782.095,-182.478,600.130,-0.321,-0.422,-0.037
781.495,-183.255,599.783,-0.240,-0.422,-0.091
780.897,-182.910,598.720,-0.114,-0.416,-0.155
781.032,-184.161,599.092,-0.071,-0.423,-0.215
781.059,-185.070,599.115,-0.073,-0.486,-0.276
780.048,-183.363,597.906,-0.010,-0.496,-0.333
780.529,-182.649,598.727,-0.026,-0.484,-0.405
780.574,-183.631,598.743,-0.152,-0.497,-0.421
779.539,-184.159,599.360,-0.234,-0.481,-0.424
780.136,-185.545,599.986,-0.179,-0.505,-0.413
779.985,-185.760,600.078,-0.051,-0.567,-0.430
781.000,-183.000,600.000,0.070,-0.560,-0.490
781.223,-181.291,598.097,0.196,-0.495,-0.432
779.427,-178.704,599.254,0.229,-0.527,-0.371
778.147,-177.644,600.720,0.131,-0.621,-0.270
777.949,-177.835,601.569,0.018,-0.621,-0.163
779.535,-176.707,603.252,-0.004,-0.654,-0.125
779.781,-178.641,601.376,-0.110,-0.704,-0.051
779.005,-179.982,601.146,-0.290,-0.701,0.002
779.916,-179.057,602.974,-0.347,-0.764,0.001
780.782,-178.888,602.207,-0.407,-0.829,-0.004
781.658,-179.588,601.788,-0.427,-0.885,0.009
781.553,-180.527,601.931,-0.420,-0.945,-0.034
780.260,-181.372,601.880,-0.401,-1.026,-0.099
780.039,-182.150,601.912,-0.336,-1.156,-0.153
781.283,-181.906,600.683,-0.355,-1.189,-0.132
783.000,-181.000,598.000,-0.350,-1.190,-0.140
782.306,-179.245,596.903,-0.399,-1.195,-0.214
780.353,-178.710,597.823,-0.537,-1.176,-0.108
779.615,-179.337,597.942,-0.567,-1.244,-0.050
780.370,-178.422,597.620,-0.558,-1.235,-0.082
780.818,-180.138,596.457,-0.558,-1.179,-0.062
779.636,-183.636,597.502,-0.565,-1.187,-0.079
779.017,-185.077,598.974,-0.554,-1.114,-0.146
779.893,-185.966,597.131,-0.369,-1.115,-0.208
781.608,-185.952,596.826,-0.167,-1.137,-0.255
782.247,-187.058,596.990,-0.056,-1.054,-0.384
781.298,-188.997,597.229,0.092,-1.087,-0.447
783.110,-188.478,598.007,0.160,-1.124,-0.567
785.263,-187.998,596.346,0.249,-1.129,-0.737
784.992,-187.901,596.173,0.360,-1.202,-0.778
786.000,-187.000,597.000,0.420,-1.260,-0.910
785.375,-187.806,595.371,0.600,-1.322,-1.039
783.139,-187.757,592.780,0.742,-1.343,-1.100
783.466,-184.883,590.751,0.849,-1.262,-1.165
783.454,-183.495,591.813,0.961,-1.089,-1.207
780.627,-182.356,593.129,0.982,-0.927,-1.153
778.772,-180.704,592.983,0.974,-0.813,-1.025
779.062,-179.930,594.138,0.903,-0.692,-0.978
779.936,-178.191,595.879,0.843,-0.633,-0.919
780.771,-175.543,597.556,0.788,-0.575,-0.793
781.613,-173.941,599.286,0.717,-0.544,-0.721
781.918,-174.252,600.890,0.670,-0.597,-0.638
782.014,-173.134,602.622,0.595,-0.669,-0.506
783.426,-171.933,602.680,0.548,-0.822,-0.499
783.990,-173.192,600.662,0.476,-0.913,-0.482
784.000,-173.000,599.000,0.420,-0.910,-0.490
784.080,-172.033,598.121,0.426,-0.971,-0.564
783.243,-172.515,596.795,0.328,-0.987,-0.496
782.303,-174.343,593.449,0.184,-0.975,-0.536
781.469,-174.864,590.844,0.105,-0.967,-0.537
782.558,-173.454,591.271,0.032,-0.859,-0.485
784.146,-172.851,592.120,-0.219,-0.752,-0.470
783.986,-171.981,593.117,-0.582,-0.696,-0.264
784.020,-173.769,594.870,-0.701,-0.635,-0.207
783.207,-175.247,596.554,-0.686,-0.571,-0.180
782.704,-174.340,598.352,-0.793,-0.548,0.019
783.004,-176.871,599.442,-0.871,-0.595,0.088
782.518,-178.041,600.357,-0.783,-0.657,0.057
781.747,-178.257,600.980,-0.682,-0.721,0.088
782.197,-178.989,599.715,-0.710,-0.775,0.145
783.000,-179.000,598.000,-0.770,-0.770,0.140
781.207,-181.653,597.862,-0.831,-0.765,0.141
781.473,-181.786,598.368,-0.853,-0.821,0.095
782.195,-179.042,596.052,-0.795,-0.853,0.046
781.858,-176.837,594.444,-0.757,-0.824,0.127
783.408,-175.941,595.111,-0.800,-0.867,0.274
782.563,-177.353,594.969,-0.947,-0.908,0.457
782.052,-178.024,596.114,-1.055,-0.833,0.485
782.098,-178.894,596.108,-1.115,-0.772,0.419
780.934,-179.907,595.567,-1.139,-0.765,0.477
781.655,-180.451,598.103,-1.016,-0.810,0.495
781.790,-181.807,599.398,-0.974,-0.884,0.495
781.994,-181.582,600.729,-0.949,-0.930,0.453
781.897,-181.019,602.065,-0.789,-1.012,0.309
783.386,-182.207,600.767,-0.688,-1.140,0.285
784.000,-183.000,600.000,-0.560,-1.260,0.280
781.117,-184.592,599.175,-0.372,-1.326,0.160
782.432,-186.828,598.201,-0.288,-1.332,0.040
782.564,-186.466,597.330,-0.252,-1.329,-0.118
781.629,-185.520,596.410,-0.140,-1.330,-0.300
781.552,-184.539,595.504,-0.050,-1.330,-0.354
779.603,-183.975,595.002,-0.085,-1.330,-0.357
780.114,-183.980,596.105,-0.143,-1.330,-0.425
780.979,-183.943,596.959,-0.143,-1.329,-0.424
781.670,-184.948,597.772,-0.083,-1.381,-0.408
782.733,-184.266,598.070,-0.059,-1.454,-0.476
782.823,-184.583,598.019,-0.082,-1.497,-0.488
782.916,-186.923,599.703,-0.046,-1.582,-0.511
782.822,-186.573,599.678,0.027,-1.606,-0.579
781.851,-184.700,598.992,0.165,-1.622,-0.642
782.000,-183.000,599.000,0.280,-1.750,-0.700
783.021,-182.924,598.154,0.279,-1.758,-0.642
782.161,-182.566,596.702,0.327,-1.738,-0.618
782.300,-180.870,594.386,0.370,-1.764,-0.639
783.279,-181.886,593.602,0.314,-1.735,-0.641
784.528,-183.228,592.251,0.262,-1.766,-0.740
786.090,-182.896,592.252,0.190,-1.732,-0.772
784.896,-183.033,592.937,0.140,-1.680,-0.850
784.929,-183.059,591.101,0.204,-1.683,-0.913
785.158,-181.506,590.928,0.269,-1.619,-0.845
784.636,-179.472,590.745,0.325,-1.612,-0.850
785.125,-178.407,592.193,0.370,-1.575,-0.796
784.504,-177.553,594.845,0.305,-1.543,-0.770
785.540,-176.813,594.725,0.165,-1.645,-0.761
787.104,-177.190,593.836,0.061,-1.675,-0.784
787.000,-179.000,592.000,0.070,-1.610,-0.910
787.813,-178.389,590.137,0.073,-1.549,-0.972
788.259,-176.171,589.882,0.099,-1.487,-1.000
787.090,-176.118,590.012,0.247,-1.457,-0.887
786.849,-175.392,589.709,0.261,-1.488,-0.837
786.789,-175.098,590.147,0.186,-1.430,-0.807
787.140,-176.333,589.559,0.121,-1.308,-0.686
788.066,-178.148,586.806,0.072,-1.256,-0.781
788.921,-179.041,585.109,0.198,-1.134,-0.842
789.880,-178.117,583.389,0.278,-0.950,-0.831
789.878,-177.619,582.074,0.313,-0.774,-0.862
789.938,-175.006,581.722,0.384,-0.583,-0.747
789.471,-171.335,582.462,0.288,-0.411,-0.531
788.917,-168.024,584.624,0.187,-0.218,-0.385
788.896,-167.172,586.226,0.031,-0.049,-0.254
787.000,-169.000,588.000,-0.280,0.070,-0.070
786.741,-168.943,589.775,-0.418,0.193,0.000
788.086,-170.445,590.840,-0.419,0.273,-0.004
787.072,-171.141,591.266,-0.396,0.278,0.031
787.202,-171.699,592.972,-0.295,0.302,0.122
788.066,-175.446,593.888,-0.294,0.382,0.111
787.823,-177.152,592.689,-0.250,0.423,-0.028
786.944,-178.112,591.947,-0.057,0.420,-0.072
786.951,-179.026,591.040,0.001,0.420,-0.134
787.176,-177.538,591.621,-0.003,0.419,-0.156
786.036,-175.434,592.764,-0.023,0.424,-0.082
785.939,-174.474,593.201,-0.180,0.393,-0.072
785.439,-173.427,594.508,-0.350,0.312,-0.053
784.939,-173.084,594.966,-0.441,0.279,0.033
784.923,-174.209,595.061,-0.500,0.275,0.157
784.000,-176.000,596.000,-0.560,0.210,0.210
783.981,-178.674,597.782,-0.512,0.207,0.208
783.407,-179.870,598.153,-0.338,0.172,0.217
782.078,-180.489,598.203,-0.153,0.107,0.173
781.778,-181.407,599.085,0.014,0.198,0.101
781.948,-182.573,597.116,0.088,0.183,0.065
781.829,-184.185,598.608,0.167,0.141,0.062
780.975,-182.814,596.424,0.286,0.136,-0.086
781.883,-181.061,588.262,0.343,0.130,-0.210
782.338,-180.277,591.300,0.474,0.368,-0.152
780.254,-179.135,596.025,0.393,0.458,-0.105
780.482,-178.736,595.370,0.141,0.384,-0.003
782.788,-176.761,596.757,0.194,0.469,-0.059
782.626,-174.647,598.544,0.169,0.475,-0.124
782.045,-176.552,601.493,-0.023,0.412,0.106
783.000,-180.000,603.000,-0.070,0.350,0.140
783.862,-179.357,602.126,0.039,0.230,0.012
784.281,-178.340,601.287,0.243,0.142,-0.048
782.561,-181.167,600.575,0.292,0.156,-0.119
781.667,-181.716,601.519,0.279,0.064,-0.162
781.738,-180.838,601.757,0.265,-0.141,-0.247
780.776,-180.841,600.643,0.196,-0.221,-0.272
781.067,-178.837,598.868,0.132,-0.285,-0.207
781.099,-177.996,597.999,-0.053,-0.284,-0.209
779.289,-177.409,598.061,-0.247,-0.267,-0.165
779.118,-175.497,597.730,-0.350,-0.334,-0.074
781.156,-174.361,598.434,-0.289,-0.376,-0.084
782.025,-173.959,599.218,-0.174,-0.461,-0.020
781.782,-175.703,600.278,-0.242,-0.496,0.091
780.910,-177.047,599.732,-0.275,-0.578,0.061
782.000,-177.000,598.000,-0.210,-0.630,0.070
783.927,-177.173,598.036,-0.146,-0.619,0.137
783.849,-174.818,596.692,-0.169,-0.701,0.135
784.616,-173.441,594.888,-0.335,-0.648,0.180
784.484,-174.427,595.297,-0.514,-0.657,0.221
783.611,-173.415,596.237,-0.708,-0.707,0.215
782.566,-173.056,597.202,-0.866,-0.702,0.306
780.968,-172.955,598.047,-0.911,-0.697,0.349
781.915,-172.924,598.040,-0.911,-0.694,0.346
782.071,-173.969,597.832,-0.908,-0.820,0.412
782.329,-173.703,598.695,-0.914,-0.842,0.417
783.265,-175.431,598.823,-0.901,-0.874,0.452
782.238,-177.582,599.277,-0.936,-0.914,0.506
782.152,-176.477,599.978,-0.990,-0.924,0.473
783.070,-176.141,598.776,-0.977,-0.981,0.412
782.000,-178.000,598.000,-0.980,-0.910,0.420
780.114,-179.004,598.011,-0.985,-0.907,0.489
779.975,-178.883,597.426,-0.928,-0.871,0.440
779.746,-179.530,595.961,-0.897,-0.789,0.413
780.283,-180.611,596.415,-0.927,-0.740,0.400
781.129,-183.127,596.596,-0.873,-0.689,0.333
782.352,-185.200,594.513,-0.739,-0.699,0.354
784.113,-184.996,594.033,-0.621,-0.622,0.270
784.981,-185.899,594.061,-0.498,-0.562,0.208
784.374,-186.829,593.084,-0.428,-0.514,0.222
782.848,-187.747,593.377,-0.381,-0.395,0.155
783.206,-187.345,594.581,-0.302,-0.298,0.118
781.883,-184.839,595.123,-0.278,-0.282,0.018
781.114,-183.766,596.414,-0.278,-0.266,0.022
781.951,-182.922,597.008,-0.285,-0.204,0.066
780.000,-184.000,598.000,-0.350,-0.210,0.000
779.807,-184.339,600.754,-0.306,-0.210,0.059
780.806,-181.573,601.030,-0.115,-0.252,0.079
781.436,-180.381,601.831,-0.020,-0.329,0.068
781.980,-179.297,603.476,0.036,-0.393,0.047
781.985,-179.100,602.289,0.065,-0.566,-0.016
783.225,-178.658,602.090,-0.020,-0.731,0.006
782.915,-176.931,601.909,-0.075,-0.849,-0.000
782.028,-177.002,600.126,-0.198,-0.971,0.062
781.946,-176.203,599.109,-0.283,-1.094,0.090
781.999,-176.305,598.325,-0.296,-1.180,0.000
781.232,-178.093,597.245,-0.475,-1.190,0.043
781.212,-179.765,596.598,-0.597,-1.192,0.058
783.684,-181.385,595.608,-0.643,-1.188,-0.026
783.833,-182.117,594.984,-0.615,-1.191,-0.074
783.000,-183.000,595.000,-0.490,-1.190,-0.070
783.033,-182.221,594.914,-0.426,-1.188,-0.064
782.841,-181.668,595.787,-0.406,-1.194,-0.125
783.529,-182.797,595.908,-0.475,-1.183,-0.144
783.683,-182.893,596.206,-0.464,-1.200,-0.157
782.273,-183.109,597.184,-0.412,-1.177,-0.246
782.145,-182.792,596.688,-0.410,-1.209,-0.280
783.011,-181.986,594.862,-0.266,-1.257,-0.281
782.083,-182.870,593.979,-0.144,-1.131,-0.283
781.919,-184.665,594.779,-0.135,-1.051,-0.220
780.932,-185.326,595.515,-0.152,-1.049,-0.237
778.903,-183.897,596.570,-0.077,-1.075,-0.342
781.272,-182.428,596.826,0.052,-1.148,-0.323
781.424,-181.854,597.352,0.058,-1.082,-0.273
780.023,-182.177,599.218,-0.012,-0.970,-0.281
781.000,-184.000,599.000,-0.070,-0.980,-0.280
780.825,-184.167,598.060,-0.073,-0.985,-0.338
783.267,-183.166,597.431,-0.030,-0.968,-0.405
784.055,-182.467,595.623,0.091,-1.026,-0.461
784.472,-181.616,594.312,0.155,-1.056,-0.505
786.145,-182.419,593.605,0.145,-1.048,-0.477
784.586,-183.032,592.825,0.229,-1.050,-0.505
785.106,-182.980,593.078,0.202,-1.051,-0.562
784.251,-182.089,593.996,0.139,-1.052,-0.559
781.811,-181.822,593.201,0.195,-0.996,-0.613
784.005,-181.772,593.216,0.256,-0.933,-0.649
784.793,-180.003,594.838,0.302,-0.868,-0.583
783.162,-182.900,594.414,0.237,-0.834,-0.570
782.991,-185.036,594.090,0.236,-0.834,-0.667
783.028,-183.890,595.122,0.461,-0.756,-0.786
784.000,-183.000,595.000,0.700,-0.700,-0.840
785.004,-179.481,594.930,0.832,-0.644,-0.838
784.296,-177.511,595.109,0.842,-0.566,-0.851
783.591,-174.779,594.719,0.848,-0.566,-0.766
784.409,-171.479,595.105,0.776,-0.529,-0.649
784.764,-171.088,594.511,0.525,-0.479,-0.618
783.748,-172.365,593.934,0.307,-0.494,-0.543
784.095,-172.942,594.019,0.127,-0.489,-0.566
784.993,-171.974,594.886,0.005,-0.489,-0.570
784.920,-173.644,596.003,-0.051,-0.493,-0.385
785.086,-173.597,595.266,-0.133,-0.484,-0.297
784.109,-172.638,594.384,-0.108,-0.501,-0.220
784.342,-172.933,593.427,-0.056,-0.462,-0.074
786.585,-171.609,592.704,-0.077,-0.413,0.024
786.854,-172.249,590.572,-0.065,-0.419,0.077
785.000,-174.000,589.000,-0.070,-0.350,0.140
783.962,-176.542,589.890,-0.240,-0.227,0.209
784.187,-178.771,590.527,-0.496,-0.111,0.161
783.080,-179.049,592.321,-0.683,0.023,0.128
782.966,-178.625,592.866,-0.878,0.106,0.147
782.443,-177.688,593.364,-1.018,0.165,0.145
782.122,-178.230,595.415,-1.055,0.216,0.241
782.983,-179.050,597.153,-1.046,0.209,0.355
781.156,-179.926,598.923,-0.925,0.210,0.353
780.701,-180.174,599.683,-0.692,0.162,0.343
781.671,-179.622,600.981,-0.432,0.081,0.365
782.312,-181.105,599.696,-0.255,0.051,0.304
782.890,-182.211,599.120,-0.199,-0.066,0.285
781.421,-181.869,599.809,-0.215,-0.148,0.253
781.076,-182.103,597.793,-0.211,-0.143,0.126
781.000,-183.000,599.000,-0.280,-0.210,0.140
780.012,-183.848,599.271,-0.297,-0.213,0.093
780.632,-184.861,597.884,-0.165,-0.246,-0.048
781.548,-184.510,598.633,-0.109,-0.342,-0.104
781.938,-183.936,598.635,0.002,-0.343,-0.187
781.963,-185.587,597.388,0.092,-0.361,-0.206
783.286,-184.394,597.064,0.166,-0.336,-0.222
782.860,-183.043,598.084,0.287,-0.278,-0.282
781.075,-184.027,598.936,0.345,-0.278,-0.280
780.286,-182.379,599.847,0.413,-0.329,-0.328
778.889,-181.786,599.937,0.420,-0.410,-0.410
779.482,-181.960,600.217,0.410,-0.415,-0.414
779.568,-182.347,601.429,0.258,-0.441,-0.457
778.958,-182.854,602.094,0.120,-0.518,-0.602
780.263,-180.609,601.859,0.147,-0.652,-0.621
782.000,-179.000,600.000,0.210,-0.700,-0.560
783.069,-177.302,598.935,0.282,-0.630,-0.508
781.523,-176.057,599.777,0.222,-0.685,-0.374
780.581,-175.606,599.976,0.220,-0.696,-0.350
780.957,-174.213,599.844,0.149,-0.752,-0.302
781.023,-174.154,599.804,0.046,-0.870,-0.167
782.110,-175.389,598.548,-0.036,-0.820,-0.134
780.858,-178.267,596.937,-0.301,-0.769,-0.066
780.838,-180.908,596.978,-0.482,-0.770,-0.127
782.898,-181.115,596.981,-0.512,-0.772,-0.269
782.149,-180.385,597.456,-0.349,-0.763,-0.278
782.195,-179.326,598.216,-0.227,-0.804,-0.290
783.072,-178.575,597.254,-0.171,-0.854,-0.252
783.003,-175.842,595.206,-0.031,-0.824,-0.196
784.204,-172.760,592.733,-0.004,-0.759,-0.123
784.000,-173.000,593.000,-0.070,-0.700,0.000
782.936,-172.211,593.973,-0.192,-0.642,0.064
783.860,-172.246,594.486,-0.305,-0.568,0.080
783.386,-174.616,595.918,-0.479,-0.565,0.025
782.333,-175.001,595.250,-0.628,-0.528,-0.007
781.632,-177.305,595.148,-0.757,-0.484,0.002
782.268,-180.393,596.070,-0.837,-0.484,0.001
782.969,-179.906,596.019,-0.686,-0.415,-0.001
782.020,-179.049,596.910,-0.567,-0.417,-0.004
782.785,-178.211,597.859,-0.452,-0.427,0.107
782.448,-177.376,597.995,-0.354,-0.407,0.206
781.454,-175.888,598.050,-0.355,-0.459,0.203
782.179,-174.819,599.738,-0.343,-0.501,0.231
781.634,-176.710,599.560,-0.363,-0.482,0.303
780.958,-178.125,599.200,-0.431,-0.499,0.354
781.000,-179.000,601.000,-0.490,-0.560,0.350
781.867,-179.842,599.300,-0.547,-0.557,0.347
781.583,-181.898,599.285,-0.623,-0.650,0.360
779.780,-185.164,600.964,-0.603,-0.771,0.281
780.447,-186.648,600.430,-0.484,-0.756,0.133
780.830,-188.961,599.404,-0.249,-0.789,0.035
781.095,-189.984,597.566,-0.029,-0.743,-0.112
780.924,-190.048,597.021,0.158,-0.625,-0.292
780.009,-190.092,597.047,0.405,-0.629,-0.412
780.140,-188.944,596.172,0.533,-0.583,-0.482
778.548,-189.456,595.678,0.696,-0.503,-0.523
777.483,-186.794,596.794,0.838,-0.463,-0.639
778.306,-184.503,598.598,0.830,-0.380,-0.734
779.198,-184.934,598.929,0.856,-0.350,-0.782
780.205,-182.547,599.084,0.920,-0.348,-0.760
782.000,-181.000,600.000,0.980,-0.350,-0.700
782.997,-181.057,600.940,1.039,-0.411,-0.700
782.908,-179.765,600.447,1.106,-0.466,-0.698
782.972,-177.683,599.084,1.132,-0.572,-0.682
782.909,-179.428,598.471,1.073,-0.675,-0.559
784.640,-181.103,595.357,0.926,-0.717,-0.625
784.651,-179.665,592.781,0.929,-0.784,-0.783
784.098,-178.931,594.143,0.977,-0.764,-0.693
785.955,-177.157,594.990,0.852,-0.701,-0.697
785.174,-175.455,595.641,0.682,-0.703,-0.659
785.022,-172.484,596.840,0.434,-0.659,-0.565
783.398,-169.074,596.684,0.247,-0.588,-0.544
781.352,-166.905,597.546,0.009,-0.546,-0.428
782.149,-164.347,599.536,-0.287,-0.586,-0.319
782.071,-164.029,601.322,-0.439,-0.722,-0.187
784.000,-163.000,604.000,-0.560,-0.840,-0.070
783.410,-161.901,605.911,-0.673,-0.958,0.045
781.717,-163.345,605.478,-0.905,-1.094,0.190
782.808,-165.992,603.641,-1.085,-1.134,0.212
782.311,-170.527,602.054,-1.159,-1.107,0.218
781.848,-174.109,599.947,-1.172,-1.143,0.178
781.930,-176.451,597.466,-1.013,-1.197,0.041
782.059,-176.954,595.898,-0.985,-1.187,0.001
782.980,-176.884,594.167,-1.047,-1.127,0.003
782.270,-179.414,592.228,-1.098,-1.011,-0.055
781.591,-181.296,591.787,-1.187,-0.885,-0.115
782.424,-183.562,591.936,-1.136,-0.765,-0.183
783.243,-185.474,591.894,-0.966,-0.647,-0.218
784.050,-184.688,591.849,-0.784,-0.511,-0.206
782.704,-185.214,590.858,-0.602,-0.323,-0.212
782.000,-186.000,591.000,-0.420,-0.210,-0.210
782.183,-184.380,591.883,-0.239,-0.098,-0.207
780.407,-181.777,593.194,-0.048,0.095,-0.225
779.337,-179.520,595.856,0.039,0.195,-0.105
778.073,-178.788,597.974,-0.094,0.219,0.102
778.380,-179.073,601.468,-0.267,0.190,0.134
780.228,-178.920,604.246,-0.375,0.127,0.156
779.956,-179.051,604.010,-0.499,0.063,0.209
779.962,-179.949,605.799,-0.561,-0.060,0.144
780.711,-180.078,607.175,-0.511,-0.184,0.182
781.770,-179.855,605.573,-0.401,-0.302,0.280
781.355,-180.167,603.931,-0.272,-0.424,0.244
780.741,-179.330,601.663,-0.155,-0.549,0.198
780.961,-177.498,599.581,-0.045,-0.656,0.219
781.106,-177.000,600.167,-0.088,-0.707,0.202
782.000,-177.000,600.000,-0.210,-0.770,0.140
781.155,-177.774,598.993,-0.324,-0.832,0.140
780.893,-178.908,599.139,-0.511,-0.893,0.098
780.479,-179.271,598.552,-0.642,-0.922,0.018
779.245,-181.072,599.677,-0.780,-0.899,-0.021
778.539,-182.253,599.343,-0.836,-0.921,-0.105
778.030,-183.310,597.748,-0.755,-0.897,-0.139
780.227,-183.989,596.880,-0.774,-0.836,-0.143
781.978,-183.947,595.054,-0.833,-0.776,-0.207
781.976,-184.322,596.285,-0.999,-0.705,-0.213
781.473,-181.893,599.500,-1.144,-0.731,-0.212
779.899,-179.880,602.989,-1.011,-0.847,-0.182
780.347,-174.887,603.609,-0.865,-0.947,-0.099
780.852,-169.026,603.283,-0.978,-1.001,0.076
779.897,-173.061,606.444,-1.312,-1.146,0.391
780.000,-178.000,606.000,-1.470,-1.260,0.420
780.768,-178.120,603.260,-1.246,-1.369,0.282
782.598,-177.655,601.659,-0.868,-1.576,0.333
782.597,-180.707,599.123,-0.641,-1.618,0.357
781.311,-187.957,596.206,-0.648,-1.613,0.321
782.625,-191.764,592.516,-0.579,-1.592,0.096
784.142,-191.910,590.800,-0.367,-1.523,-0.193
783.968,-190.882,589.883,-0.120,-1.384,-0.363
783.952,-189.146,588.110,0.126,-1.198,-0.549
784.879,-186.705,587.140,0.213,-1.144,-0.623
783.976,-184.184,586.642,0.170,-0.948,-0.672
781.207,-184.165,588.138,0.092,-0.706,-0.734
781.284,-183.239,591.514,0.081,-0.573,-0.822
781.879,-181.617,595.054,0.173,-0.462,-0.930
780.887,-180.909,598.483,0.304,-0.416,-0.903
781.000,-181.000,601.000,0.490,-0.420,-0.910
781.044,-182.000,603.566,0.615,-0.482,-0.912
780.873,-181.198,605.742,0.762,-0.531,-0.946
781.429,-181.429,605.961,1.050,-0.676,-1.043
782.053,-181.925,605.624,1.337,-0.871,-1.042
781.707,-180.455,604.247,1.530,-1.054,-1.061
782.110,-181.497,602.553,1.630,-1.218,-1.039
781.946,-183.013,599.727,1.679,-1.260,-1.057
781.916,-182.074,596.224,1.554,-1.260,-1.182
782.999,-181.925,594.152,1.378,-1.261,-1.250
782.143,-181.537,594.373,1.075,-1.227,-1.275
781.869,-180.252,595.213,0.705,-1.131,-1.214
781.478,-179.485,594.805,0.593,-1.134,-1.193
780.927,-177.435,596.618,0.446,-1.086,-1.166
780.917,-178.307,596.921,0.520,-0.971,-1.031
780.000,-178.000,598.000,0.630,-0.980,-0.980
780.779,-176.706,597.678,0.724,-0.981,-0.924
781.784,-176.816,594.104,1.017,-0.980,-0.851
782.531,-162.400,600.521,1.109,-1.001,-0.768
782.417,-156.108,604.487,1.480,-1.116,-0.370
779.802,-173.262,600.123,1.064,-1.071,0.022
779.097,-179.584,597.469,0.066,-0.979,-0.254
781.258,-173.577,596.009,0.328,-1.054,-0.641
785.646,-170.157,597.868,0.638,-1.048,-0.510
788.819,-169.552,597.487,0.363,-1.156,-0.306
788.378,-172.246,595.946,-0.008,-1.249,-0.220
786.867,-172.787,595.573,-0.264,-1.294,-0.236
785.070,-171.586,594.348,-0.274,-1.338,-0.299
785.376,-172.267,593.769,-0.275,-1.340,-0.269
787.193,-171.752,592.911,-0.199,-1.404,-0.286
787.000,-170.000,593.000,-0.210,-1.330,-0.280
786.123,-170.710,592.970,-0.212,-1.322,-0.219
784.687,-172.027,593.693,-0.290,-1.304,-0.158
782.751,-171.692,594.053,-0.434,-1.158,-0.126
783.500,-172.890,593.786,-0.389,-1.092,-0.156
783.595,-174.229,594.022,-0.464,-1.020,-0.113
782.979,-173.952,595.533,-0.474,-0.970,-0.066
784.110,-175.163,598.128,-0.420,-0.905,-0.070
784.979,-176.939,598.066,-0.425,-0.905,-0.070
785.003,-177.017,597.883,-0.308,-0.974,-0.070
784.890,-177.460,597.616,-0.224,-0.981,-0.099
784.482,-178.696,595.281,-0.197,-0.960,-0.226
783.449,-178.970,592.878,-0.242,-0.862,-0.293
784.469,-179.043,591.807,-0.276,-0.849,-0.276
784.826,-178.922,592.099,-0.196,-0.825,-0.281
783.000,-178.000,593.000,-0.140,-0.700,-0.280
782.933,-177.115,593.907,-0.081,-0.695,-0.283
782.977,-176.297,594.569,-0.049,-0.704,-0.232
783.376,-175.290,596.180,-0.181,-0.698,-0.167
784.025,-174.841,597.326,-0.376,-0.698,-0.103
783.833,-175.038,598.542,-0.418,-0.714,-0.064
783.822,-175.010,600.177,-0.432,-0.787,-0.065
781.832,-176.140,599.997,-0.492,-0.844,0.005
780.979,-177.068,600.920,-0.489,-0.905,0.004
781.053,-175.264,600.502,-0.543,-0.966,-0.015
781.238,-175.839,598.312,-0.575,-1.029,0.063
782.749,-178.480,597.432,-0.526,-1.062,0.037
782.640,-178.993,596.514,-0.443,-1.037,-0.009
783.336,-178.922,597.461,-0.315,-1.077,-0.005
783.994,-177.752,597.830,-0.281,-1.209,-0.085
784.000,-177.000,596.000,-0.280,-1.260,-0.140
784.875,-177.931,596.013,-0.275,-1.256,-0.192
785.667,-177.436,594.141,-0.331,-1.273,-0.326
786.249,-176.179,591.415,-0.369,-1.210,-0.330
785.005,-175.927,592.927,-0.292,-1.192,-0.228
785.498,-175.994,592.087,-0.179,-1.172,-0.215
786.986,-175.970,591.078,-0.239,-1.108,-0.199
784.805,-176.022,591.998,-0.356,-1.042,-0.137
783.943,-176.063,591.030,-0.414,-0.916,-0.138
784.863,-174.406,592.364,-0.531,-0.905,-0.147
784.945,-173.652,594.469,-0.618,-0.876,-0.100
784.746,-174.228,595.706,-0.656,-0.813,-0.003
785.004,-173.933,597.972,-0.742,-0.876,0.120
784.696,-175.547,598.976,-0.761,-0.920,0.133
784.008,-174.534,597.776,-0.690,-0.998,0.149
785.000,-172.000,597.000,-0.700,-1.120,0.210
785.097,-173.600,596.990,-0.821,-1.186,0.207
784.791,-175.694,597.538,-0.907,-1.190,0.264
785.535,-175.752,598.524,-0.878,-1.219,0.259
785.919,-174.221,596.038,-0.798,-1.307,0.159
785.884,-176.327,593.182,-0.765,-1.330,0.143
785.811,-179.411,592.917,-0.772,-1.333,0.131
783.835,-180.047,591.915,-0.769,-1.327,0.064
783.811,-180.114,591.080,-0.709,-1.265,0.003
786.626,-177.546,589.411,-0.580,-1.209,-0.006
786.980,-176.157,588.489,-0.579,-1.098,0.041
786.867,-175.593,589.692,-0.718,-1.001,0.115
786.716,-177.334,589.569,-0.800,-0.947,0.147
787.274,-180.624,588.838,-0.847,-0.784,0.137
788.027,-179.766,589.049,-0.741,-0.699,0.142
788.000,-180.000,589.000,-0.560,-0.700,0.140
788.094,-181.787,588.968,-0.500,-0.580,0.081
787.151,-182.851,588.991,-0.392,-0.500,0.018
786.857,-182.940,589.372,-0.267,-0.455,-0.068
786.940,-183.406,589.719,-0.119,-0.385,-0.225
788.719,-183.799,586.481,0.062,-0.315,-0.287
788.339,-181.338,586.550,0.157,-0.181,-0.280
784.863,-179.985,589.073,0.211,-0.140,-0.279
785.852,-180.008,588.962,0.148,-0.081,-0.277
786.268,-179.988,590.548,0.074,0.056,-0.338
785.098,-179.539,592.094,0.042,0.069,-0.360
784.314,-177.862,594.660,-0.087,0.102,-0.322
783.886,-176.185,596.144,-0.152,0.157,-0.229
785.509,-174.631,596.064,-0.136,0.122,-0.101
785.872,-175.236,597.167,-0.142,0.065,0.016
784.000,-176.000,598.000,-0.140,0.070,0.070
782.944,-174.285,598.947,-0.082,0.020,0.066
783.246,-173.097,598.887,-0.048,-0.115,0.119
781.913,-172.900,599.606,-0.159,-0.173,0.181
782.710,-173.258,599.545,-0.243,-0.276,0.247
783.986,-174.591,598.756,-0.320,-0.380,0.296
782.572,-176.350,598.987,-0.443,-0.432,0.372
782.056,-177.002,599.041,-0.493,-0.496,0.418
783.845,-176.977,599.129,-0.556,-0.618,0.353
784.401,-177.707,595.812,-0.568,-0.708,0.351
782.206,-179.246,593.767,-0.550,-0.642,0.307
781.942,-180.830,594.016,-0.571,-0.639,0.267
781.546,-180.656,593.888,-0.537,-0.598,0.287
782.504,-179.713,593.689,-0.460,-0.555,0.278
782.752,-178.895,591.747,-0.333,-0.462,0.279
781.000,-179.000,592.000,-0.350,-0.280,0.280
782.727,-179.209,592.966,-0.481,-0.280,0.397
783.593,-176.814,593.030,-0.492,-0.225,0.488
786.089,-174.985,592.379,-0.498,-0.243,0.508
788.923,-175.291,591.831,-0.454,-0.273,0.654
788.587,-176.471,593.834,-0.427,-0.183,0.833
787.668,-176.891,594.978,-0.506,-0.229,0.914
787.075,-175.971,593.889,-0.484,-0.282,0.831
788.952,-176.881,592.160,-0.423,-0.284,0.769
786.891,-177.902,590.222,-0.412,-0.172,0.781
784.085,-178.537,590.237,-0.496,-0.079,0.711
783.147,-179.310,592.052,-0.657,-0.045,0.732
780.910,-178.432,593.563,-0.704,0.037,0.766
781.318,-177.978,595.660,-0.709,0.084,0.674
782.063,-177.977,597.121,-0.783,0.149,0.717
783.000,-178.000,598.000,-0.840,0.140,0.770
784.006,-178.815,600.528,-0.842,0.080,0.704
783.292,-180.349,603.326,-0.837,-0.019,0.707
782.590,-182.412,604.823,-0.846,-0.198,0.626
783.410,-182.851,604.485,-0.816,-0.376,0.510
783.787,-181.464,603.600,-0.739,-0.554,0.477
782.606,-182.643,602.665,-0.698,-0.642,0.402
780.875,-186.221,600.861,-0.698,-0.708,0.345
779.985,-187.056,599.142,-0.577,-0.832,0.222
780.794,-186.185,597.301,-0.332,-0.901,0.132
780.990,-185.240,596.272,-0.161,-0.949,0.196
780.764,-185.202,594.842,-0.157,-1.030,0.206
780.892,-186.382,593.536,-0.268,-1.038,0.233
780.982,-185.700,594.192,-0.384,-0.952,0.300
780.980,-186.172,593.885,-0.512,-0.909,0.357
781.000,-186.000,594.000,-0.630,-0.910,0.350
781.868,-185.691,595.735,-0.690,-0.907,0.336
782.116,-187.908,596.912,-0.759,-0.958,0.466
781.717,-187.128,596.503,-0.744,-1.000,0.464
782.010,-187.650,595.141,-0.655,-0.938,0.399
781.540,-187.116,595.173,-0.617,-0.920,0.433
780.936,-183.200,595.966,-0.536,-0.994,0.412
782.166,-182.003,593.756,-0.493,-0.975,0.424
783.959,-182.861,591.956,-0.617,-0.912,0.486
783.280,-184.809,594.238,-0.754,-0.907,0.498
782.592,-184.405,596.692,-0.782,-0.945,0.444
783.424,-183.851,596.183,-0.737,-1.036,0.385
784.209,-183.799,593.764,-0.668,-1.029,0.315
785.274,-184.729,592.944,-0.616,-0.964,0.279
786.138,-188.394,592.935,-0.542,-0.893,0.272
787.000,-187.000,592.000,-0.350,-0.770,0.140
786.253,-184.903,590.375,-0.102,-0.768,0.067
785.002,-186.004,587.632,0.047,-0.694,0.082
785.037,-184.956,586.523,0.112,-0.486,0.022
784.273,-182.892,587.227,0.160,-0.360,-0.005
784.003,-181.589,586.287,0.102,-0.226,0.000
785.202,-180.707,584.715,-0.029,-0.115,0.005
784.906,-178.880,585.130,-0.151,0.092,0.079
783.144,-178.907,587.765,-0.335,0.340,0.202
781.932,-179.308,590.509,-0.477,0.404,0.272
783.038,-177.880,592.209,-0.496,0.517,0.316
784.780,-179.043,594.357,-0.480,0.574,0.425
784.333,-180.181,596.968,-0.528,0.573,0.531
782.239,-180.041,598.333,-0.673,0.641,0.563
780.996,-181.219,600.353,-0.690,0.535,0.560
782.000,-182.000,601.000,-0.630,0.420,0.560
781.291,-182.707,599.912,-0.686,0.306,0.560
779.961,-185.284,601.530,-0.760,0.158,0.563
780.036,-186.376,602.014,-0.751,0.116,0.527
779.567,-185.833,601.998,-0.623,-0.027,0.449
780.327,-188.015,601.227,-0.541,-0.185,0.405
780.962,-188.859,598.354,-0.457,-0.209,0.328
781.059,-187.982,596.937,-0.267,-0.212,0.281
781.983,-188.035,596.055,-0.208,-0.275,0.346
781.283,-187.146,595.929,-0.261,-0.294,0.356
780.104,-186.939,595.529,-0.370,-0.223,0.343
779.691,-186.895,593.647,-0.474,-0.192,0.356
780.042,-187.130,592.784,-0.502,-0.069,0.343
779.685,-186.682,594.936,-0.600,-0.004,0.363
778.967,-185.998,598.466,-0.712,-0.078,0.432
779.000,-186.000,600.000,-0.770,-0.070,0.490
778.912,-185.018,600.736,-0.836,-0.122,0.488
779.791,-185.758,603.178,-0.800,-0.243,0.537
779.886,-185.877,604.609,-0.718,-0.367,0.577
779.905,-187.007,602.290,-0.663,-0.462,0.546
779.728,-189.949,600.677,-0.474,-0.507,0.565
780.213,-191.287,600.884,-0.334,-0.578,0.445
781.009,-193.122,598.798,-0.270,-0.632,0.272
780.956,-193.098,597.062,-0.082,-0.631,0.214
781.902,-192.089,596.254,-0.049,-0.625,0.151
781.289,-191.462,595.108,-0.128,-0.640,0.105
780.649,-190.239,594.587,-0.167,-0.592,-0.012
780.949,-189.781,592.775,-0.236,-0.538,-0.085
780.949,-188.434,590.473,-0.181,-0.455,-0.066
781.006,-186.785,591.325,-0.144,-0.336,-0.067
781.000,-185.000,593.000,-0.210,-0.280,0.000
780.965,-183.047,592.932,-0.268,-0.220,0.064
781.661,-184.284,594.318,-0.377,-0.161,0.116
781.764,-185.853,596.164,-0.513,-0.088,0.191
779.759,-186.438,597.829,-0.583,-0.086,0.215
780.511,-189.053,599.345,-0.531,-0.175,0.210
780.623,-189.935,600.197,-0.483,-0.212,0.205
778.960,-190.081,601.007,-0.411,-0.211,0.133
779.042,-191.014,600.071,-0.287,-0.273,0.072
778.064,-190.144,600.573,-0.226,-0.347,0.022
778.069,-190.008,601.399,-0.150,-0.343,-0.065
777.010,-189.451,599.973,-0.171,-0.386,-0.057
777.556,-188.852,600.095,-0.220,-0.441,-0.106
779.270,-188.997,599.754,-0.216,-0.526,-0.130
780.246,-189.039,600.195,-0.291,-0.643,-0.064
781.000,-189.000,601.000,-0.280,-0.700,-0.070
779.019,-188.768,601.712,-0.270,-0.819,-0.068
781.096,-191.382,602.695,-0.344,-0.944,-0.116
782.278,-191.352,598.806,-0.318,-1.070,-0.186
781.726,-188.858,595.619,-0.241,-1.142,-0.226
781.493,-189.265,594.465,-0.191,-1.096,-0.183
779.601,-188.721,593.961,-0.123,-1.037,-0.139
778.953,-187.972,594.017,-0.068,-0.975,-0.137
778.028,-187.113,595.746,-0.068,-0.915,-0.073
778.735,-186.021,598.114,-0.120,-0.853,-0.071
778.990,-186.077,596.730,-0.228,-0.795,-0.027
778.932,-185.732,598.578,-0.362,-0.729,0.011
778.159,-186.486,600.037,-0.444,-0.676,-0.003
776.933,-186.873,600.284,-0.390,-0.613,-0.010
779.485,-185.884,600.856,-0.257,-0.643,-0.078
781.000,-186.000,599.000,-0.070,-0.700,-0.070
780.961,-186.838,599.105,0.121,-0.637,-0.066
781.086,-187.847,596.801,0.195,-0.629,-0.073
780.354,-187.924,595.560,0.254,-0.598,-0.094
779.238,-188.415,595.635,0.291,-0.520,-0.192
778.832,-188.792,594.902,0.266,-0.481,-0.205
779.010,-186.337,596.119,0.185,-0.497,-0.218
780.170,-184.986,594.902,0.061,-0.485,-0.203
781.997,-184.998,595.805,-0.059,-0.422,-0.077
780.432,-185.660,597.787,-0.193,-0.423,-0.061
779.580,-186.438,598.540,-0.214,-0.405,-0.047
780.026,-184.960,599.095,-0.237,-0.493,0.069
779.781,-185.745,598.745,-0.297,-0.581,0.033
779.884,-187.278,599.062,-0.277,-0.550,0.013
778.840,-188.209,598.983,-0.371,-0.566,0.072
779.000,-189.000,599.000,-0.420,-0.630,0.000
779.984,-188.020,598.165,-0.298,-0.699,-0.011
779.281,-188.796,597.289,-0.223,-0.651,0.060
779.053,-188.462,595.733,-0.169,-0.621,0.072
780.709,-188.096,594.464,-0.124,-0.617,0.070
780.688,-189.309,595.319,-0.162,-0.521,0.069
781.159,-188.825,596.144,-0.225,-0.497,0.072
780.936,-189.059,597.064,-0.283,-0.565,0.068
781.767,-189.080,597.052,-0.283,-0.564,0.005
784.167,-188.001,596.806,-0.268,-0.545,-0.009
781.693,-189.110,597.744,-0.338,-0.625,0.013
780.736,-190.610,597.479,-0.321,-0.589,-0.017
780.465,-188.920,596.637,-0.267,-0.576,0.022
780.002,-187.984,597.149,-0.278,-0.641,-0.032
779.847,-187.849,596.903,-0.196,-0.632,-0.058
779.000,-186.000,597.000,-0.210,-0.700,0.070
779.213,-185.012,597.935,-0.337,-0.706,0.073
777.104,-185.539,598.470,-0.399,-0.692,0.112
778.551,-187.213,600.443,-0.474,-0.707,0.163
779.966,-188.799,600.228,-0.471,-0.697,0.102
778.441,-190.651,598.481,-0.389,-0.688,0.052
779.172,-190.834,599.169,-0.345,-0.616,-0.019
778.942,-191.137,598.956,-0.352,-0.634,-0.071
778.076,-192.982,598.976,-0.353,-0.634,-0.069
777.691,-191.518,598.400,-0.295,-0.616,-0.121
779.487,-189.657,596.857,-0.233,-0.688,-0.164
779.339,-187.600,597.483,-0.189,-0.697,-0.086
779.126,-187.404,597.927,-0.260,-0.710,-0.081
779.914,-189.505,598.043,-0.380,-0.681,-0.044
778.962,-190.089,597.896,-0.423,-0.626,-0.009
780.000,-191.000,597.000,-0.420,-0.630,-0.140
779.258,-190.191,596.996,-0.361,-0.632,-0.092
778.105,-189.839,596.361,-0.297,-0.589,0.000
777.686,-189.670,595.557,-0.239,-0.501,-0.007
778.435,-188.453,596.459,-0.176,-0.499,0.008
778.610,-189.579,597.088,-0.124,-0.463,-0.006
778.039,-189.808,598.375,-0.160,-0.423,0.004
779.021,-189.001,600.127,-0.291,-0.496,-0.002
778.053,-189.924,601.863,-0.413,-0.554,-0.002
779.320,-190.102,603.013,-0.435,-0.668,0.012
781.087,-190.298,602.281,-0.360,-0.796,-0.088
780.133,-191.957,601.321,-0.360,-0.917,-0.195
779.850,-191.434,600.690,-0.306,-1.016,-0.221
779.963,-191.089,601.078,-0.172,-1.066,-0.322
780.016,-190.785,599.564,-0.048,-1.127,-0.428
780.000,-189.000,597.000,0.070,-1.120,-0.420
779.193,-188.999,596.947,-0.040,-1.114,-0.417
778.103,-188.284,596.979,-0.190,-1.172,-0.428
777.843,-187.900,597.035,-0.250,-1.206,-0.379
778.037,-187.592,596.319,-0.297,-1.152,-0.338
779.499,-186.968,596.078,-0.266,-1.116,-0.348
779.843,-188.311,597.105,-0.291,-1.113,-0.251
780.131,-189.071,597.020,-0.273,-1.045,-0.214
781.965,-190.872,597.963,-0.149,-1.046,-0.280
781.194,-190.577,596.654,-0.075,-1.062,-0.224
780.856,-188.704,594.649,-0.071,-0.992,-0.201
780.605,-189.844,595.701,-0.043,-1.005,-0.233
781.717,-189.642,595.528,0.025,-1.073,-0.342
782.870,-190.640,594.871,-0.029,-1.026,-0.431
780.667,-191.931,595.043,-0.065,-0.978,-0.422
780.000,-190.000,595.000,-0.000,-0.980,-0.490
779.990,-190.657,594.094,-0.001,-0.976,-0.552
780.110,-192.087,594.472,0.047,-0.995,-0.615
779.123,-191.669,595.811,0.108,-0.897,-0.633
779.229,-192.664,595.715,0.218,-0.816,-0.652
779.773,-192.570,596.250,0.422,-0.856,-0.717
778.900,-190.520,597.083,0.499,-0.825,-0.692
780.107,-188.875,596.960,0.566,-0.766,-0.702
780.075,-187.104,596.060,0.567,-0.706,-0.702
779.811,-186.838,596.492,0.445,-0.639,-0.697
780.128,-186.762,598.558,0.336,-0.622,-0.671
779.476,-184.462,598.857,0.189,-0.658,-0.571
780.642,-184.302,599.027,0.120,-0.749,-0.570
782.365,-185.033,598.808,0.031,-0.883,-0.540
783.065,-185.136,599.158,-0.082,-0.992,-0.487
783.000,-187.000,599.000,-0.140,-1.050,-0.490
782.110,-187.191,596.240,-0.209,-1.114,-0.488
781.871,-186.062,595.991,-0.159,-1.122,-0.499
782.005,-186.382,594.843,-0.136,-1.149,-0.447
781.455,-187.854,593.458,-0.117,-1.218,-0.409
780.329,-189.538,594.243,-0.054,-1.154,-0.435
778.610,-189.918,595.316,-0.077,-1.125,-0.512
779.192,-188.910,597.097,-0.068,-1.114,-0.559
781.911,-188.045,597.050,-0.068,-0.987,-0.494
780.723,-187.270,596.916,-0.075,-0.970,-0.486
778.009,-186.131,596.882,-0.033,-0.990,-0.489
778.675,-186.026,597.623,0.075,-0.971,-0.520
780.602,-185.601,599.736,0.166,-0.986,-0.574
780.910,-184.956,599.834,0.116,-0.982,-0.560
781.036,-186.308,600.136,0.067,-1.071,-0.648
780.000,-188.000,601.000,0.070,-1.190,-0.700
777.999,-188.088,601.854,0.127,-1.248,-0.749
779.403,-187.797,602.198,0.198,-1.358,-0.889
780.499,-188.714,601.300,0.241,-1.489,-0.909
781.722,-188.675,599.925,0.344,-1.585,-0.938
783.146,-187.693,596.495,0.464,-1.612,-0.992
782.972,-188.225,594.810,0.593,-1.611,-0.974
784.108,-189.033,592.691,0.705,-1.608,-0.983
784.120,-189.021,588.224,0.703,-1.547,-1.046
782.274,-188.907,587.676,0.654,-1.436,-1.058
781.691,-189.607,588.677,0.468,-1.256,-1.035
782.009,-190.239,589.616,0.173,-1.127,-1.094
781.653,-189.325,592.195,0.011,-1.126,-1.123
782.307,-187.383,594.503,-0.103,-1.113,-1.123
782.976,-185.793,594.968,-0.138,-1.125,-1.114
782.000,-185.000,595.000,-0.140,-1.120,-1.050
781.871,-186.585,596.703,-0.152,-1.050,-0.989
782.802,-188.296,597.915,0.003,-1.141,-0.961
782.903,-186.193,597.935,0.229,-1.256,-1.068
783.090,-183.933,597.555,0.499,-1.269,-1.137
784.255,-182.387,596.508,0.664,-1.387,-1.115
783.630,-182.163,595.743,0.604,-1.479,-1.115
783.057,-183.002,593.829,0.482,-1.467,-1.045
784.005,-182.074,592.101,0.420,-1.407,-1.047
783.125,-181.893,590.459,0.425,-1.337,-1.057
783.394,-182.083,588.895,0.375,-1.298,-1.042
784.104,-181.588,589.092,0.315,-1.176,-1.036
783.647,-180.308,588.534,0.245,-1.094,-0.928
784.263,-180.273,589.679,0.201,-1.016,-0.921
785.024,-180.868,592.287,0.119,-0.896,-0.895
784.000,-178.000,593.000,0.000,-0.840,-0.770
783.760,-177.662,593.863,0.058,-0.776,-0.708
785.116,-179.226,594.115,0.077,-0.770,-0.647
783.944,-177.977,593.797,0.097,-0.734,-0.593
784.499,-178.853,593.899,0.168,-0.684,-0.517
784.333,-180.208,594.091,0.107,-0.710,-0.489
782.887,-179.995,595.161,0.070,-0.695,-0.486
784.094,-181.122,594.979,0.068,-0.702,-0.494
784.064,-182.002,595.875,0.007,-0.701,-0.557
783.229,-181.888,596.332,-0.065,-0.696,-0.561
781.974,-182.723,594.848,-0.036,-0.705,-0.563
782.645,-182.671,595.284,0.051,-0.693,-0.551
784.593,-181.575,593.894,0.071,-0.707,-0.577
784.883,-182.412,593.158,0.072,-0.693,-0.524
783.715,-182.938,595.394,0.066,-0.707,-0.415
782.000,-182.000,598.000,-0.000,-0.770,-0.490
782.757,-181.940,599.239,-0.065,-0.829,-0.498
783.852,-182.093,596.010,-0.075,-0.897,-0.478
784.011,-181.778,594.290,-0.036,-0.916,-0.504
783.298,-182.691,595.578,0.028,-0.903,-0.474
783.028,-184.672,595.983,-0.042,-0.925,-0.515
784.112,-184.739,595.760,-0.046,-0.999,-0.571
784.021,-182.878,593.872,0.154,-1.052,-0.637
784.973,-182.876,593.897,0.213,-1.051,-0.699
783.545,-184.764,594.940,0.155,-1.046,-0.694
782.788,-184.564,594.931,0.085,-1.089,-0.780
785.547,-183.241,594.249,0.111,-1.149,-0.907
785.440,-182.666,591.594,0.298,-1.059,-0.884
784.721,-181.876,591.321,0.338,-0.969,-0.823
782.589,-183.302,593.236,0.275,-0.978,-0.761
782.000,-183.000,594.000,0.280,-0.910,-0.770
783.953,-180.140,594.899,0.281,-0.902,-0.841
783.120,-180.732,594.497,0.280,-0.924,-0.786
783.821,-180.541,593.301,0.276,-0.885,-0.769
785.575,-179.766,595.172,0.304,-0.979,-0.743
786.088,-179.881,595.372,0.371,-1.065,-0.689
787.168,-178.698,592.333,0.327,-1.046,-0.702
786.969,-177.964,592.151,0.202,-1.049,-0.702
786.068,-177.083,593.946,0.142,-0.986,-0.766
785.707,-176.163,593.332,0.134,-0.970,-0.728
786.908,-175.266,591.193,0.187,-0.963,-0.635
786.382,-175.197,588.186,0.203,-0.811,-0.617
785.449,-176.478,588.875,0.069,-0.771,-0.490
783.358,-175.420,591.777,-0.007,-0.760,-0.414
784.521,-173.844,593.134,-0.003,-0.783,-0.416
786.000,-173.000,593.000,-0.070,-0.840,-0.350
785.619,-173.635,593.700,-0.188,-0.716,-0.289
787.481,-176.296,594.411,-0.324,-0.691,-0.226
784.953,-178.255,593.366,-0.362,-0.673,-0.200
785.888,-179.374,594.352,-0.330,-0.606,-0.218
785.573,-178.673,591.811,-0.219,-0.647,-0.204
787.684,-179.218,592.395,-0.041,-0.614,-0.214
785.641,-178.930,590.763,-0.079,-0.556,-0.208
785.592,-178.942,591.634,-0.142,-0.495,-0.208
787.156,-178.411,592.934,-0.127,-0.476,-0.220
784.531,-178.042,590.997,-0.200,-0.548,-0.156
789.352,-179.479,594.748,-0.199,-0.555,-0.141
782.922,-177.012,589.615,-0.257,-0.588,-0.118
789.920,-180.366,595.409,-0.381,-0.628,-0.058
784.097,-179.444,591.677,-0.424,-0.548,-0.075
786.000,-180.000,594.000,-0.420,-0.560,-0.070
787.508,-181.607,595.794,-0.357,-0.572,-0.063
778.771,-178.971,590.235,-0.349,-0.494,-0.128
788.831,-181.824,600.055,-0.316,-0.502,-0.115
774.044,-177.090,590.828,-0.261,-0.450,-0.022
789.721,-179.886,602.752,-0.295,-0.430,0.001
777.537,-177.679,594.085,-0.265,-0.508,-0.001
786.326,-178.480,600.664,-0.208,-0.564,0.002
786.554,-179.448,599.066,-0.208,-0.625,0.066
777.091,-178.731,589.881,-0.220,-0.689,0.032
800.192,-184.689,605.272,-0.125,-0.710,-0.075
764.456,-175.296,579.758,-0.012,-0.690,-0.048
806.569,-184.172,611.241,0.010,-0.708,-0.111
763.807,-175.386,576.546,0.105,-0.703,-0.142
798.575,-183.346,603.040,0.133,-0.782,-0.232
785.000,-181.000,592.000,0.070,-0.700,-0.280
755.280,-174.460,570.095,0.073,-0.610,-0.256
881.687,-203.242,666.199,0.019,-0.708,-0.437
301.671,-69.647,227.706,-0.011,-0.241,-0.180
