acc_x[mg],acc_y[mg],acc_z[mg],gyro_x[dps],gyro_y[dps],gyro_z[dps]
-70.000,92.000,-994.000,3.290,0.280,1.330
-73.933,90.735,-1032.228,3.307,0.592,1.490
-68.091,75.191,-937.929,2.991,0.762,1.702
-75.414,70.625,-1035.472,3.702,0.703,2.165
-66.524,56.337,-957.390,4.326,0.585,2.135
-72.183,55.836,-1032.216,5.434,0.688,2.193
-72.024,43.877,-992.338,5.873,0.777,2.044
-71.172,50.988,-1007.078,6.254,0.768,1.802
-71.247,54.353,-1001.173,6.011,0.649,1.556
-68.360,53.187,-988.898,5.103,0.303,1.466
-65.773,53.354,-1017.582,4.242,-0.080,1.444
-62.559,49.680,-996.407,3.439,-0.388,1.343
-66.120,56.416,-1022.759,2.591,-0.525,1.319
-68.190,57.761,-1004.124,1.747,-0.448,1.225
-67.831,56.632,-1017.295,1.348,-0.246,1.094
-65.000,52.000,-1017.000,0.910,-0.070,0.840
-63.001,55.659,-1009.377,0.645,0.050,0.698
-63.132,61.634,-1008.485,0.596,0.146,0.719
-62.763,63.966,-989.074,0.864,0.041,0.610
-63.848,70.188,-989.842,1.112,-0.222,0.547
-68.048,73.439,-976.490,0.718,-0.558,0.545
-72.512,82.220,-988.047,0.349,-0.918,0.378
-69.582,83.513,-991.645,-0.206,-1.124,0.443
-66.006,74.556,-996.095,-1.313,-0.940,0.821
-68.292,70.474,-999.889,-2.077,-0.554,0.862
-69.322,67.293,-996.468,-1.856,-0.323,0.854
-65.101,60.933,-1008.185,-1.494,0.046,0.981
-65.088,59.865,-1003.529,-1.303,0.432,0.954
-70.749,67.656,-994.839,-1.056,0.584,0.883
-74.385,72.191,-990.764,-0.974,0.439,0.753
-76.000,71.000,-996.000,-0.910,-0.070,0.770
-76.719,68.394,-1004.128,-0.800,-0.510,0.842
-79.875,67.291,-1009.538,-0.524,-0.784,0.826
-82.225,70.904,-1014.278,-0.208,-0.880,0.894
-81.229,69.663,-1025.028,0.105,-0.732,0.893
-79.008,53.749,-1039.451,0.350,-0.252,0.781
-78.497,42.008,-1037.800,0.572,0.520,0.474
-85.671,47.694,-1020.351,1.255,0.919,0.200
-89.297,53.818,-1001.892,1.990,0.794,0.147
-80.619,53.794,-998.850,2.336,0.386,-0.025
-71.010,48.242,-1005.126,2.487,0.001,-0.164
-67.495,46.427,-1012.759,2.510,-0.103,-0.361
-66.401,58.312,-1019.183,2.121,0.008,-0.705
-64.542,64.196,-1019.158,0.944,0.311,-0.749
-66.768,61.865,-1012.614,-0.938,0.499,-0.705
-73.000,64.000,-1001.000,-2.730,0.420,-0.770
-75.242,64.324,-990.796,-3.868,0.136,-0.710
-71.626,61.300,-990.210,-4.400,-0.349,-0.764
-67.000,56.999,-997.935,-4.155,-0.731,-1.031
-65.333,56.982,-1008.063,-3.495,-0.932,-1.184
-62.648,64.388,-1012.286,-3.166,-0.966,-1.320
-61.351,72.538,-1007.089,-3.616,-0.786,-1.399
-67.603,74.928,-997.239,-4.700,-0.543,-1.326
-72.041,72.203,-989.366,-5.192,-0.418,-1.389
-68.825,71.500,-988.230,-4.659,-0.569,-1.479
-67.380,75.386,-992.342,-3.934,-0.828,-1.350
-68.339,82.852,-995.410,-3.427,-1.009,-1.125
-65.083,89.949,-998.350,-3.304,-1.042,-1.018
-62.614,93.667,-999.542,-3.747,-0.953,-0.953
-61.877,92.601,-994.113,-4.150,-0.902,-0.815
-63.000,91.000,-994.000,-3.640,-0.840,-0.630
-66.145,91.213,-1002.544,-1.886,-0.947,-0.445
-61.562,89.160,-1011.058,0.267,-1.078,-0.244
-61.060,90.226,-1014.471,1.517,-0.914,0.164
-69.421,90.468,-1008.587,2.094,-0.798,0.470
-70.468,88.626,-999.451,2.369,-0.758,0.482
-70.313,88.751,-992.796,2.391,-0.910,0.494
-70.906,83.460,-993.429,2.614,-1.366,0.491
-69.060,79.069,-1001.443,2.918,-1.671,0.614
-69.655,79.131,-1005.759,3.184,-1.651,0.807
-71.226,77.765,-1004.774,3.152,-1.423,0.965
-73.039,75.426,-998.126,2.731,-1.209,1.170
-72.005,69.652,-994.222,2.375,-1.031,1.129
-69.393,59.954,-995.951,2.084,-0.732,0.921
-70.542,53.492,-986.886,1.965,-0.376,0.839
-76.000,54.000,-976.000,2.240,-0.350,0.910
-75.986,56.732,-978.652,2.998,-0.659,0.982
-68.904,56.386,-989.601,3.873,-0.788,0.930
-69.417,50.098,-1005.188,3.859,-0.668,0.873
-71.232,45.495,-1019.602,3.200,-0.404,0.793
-69.594,48.626,-1022.334,2.517,-0.085,0.786
-71.672,49.651,-1014.302,1.611,0.311,0.842
-72.983,46.847,-998.732,1.111,0.641,0.677
-72.064,47.721,-988.125,1.360,0.456,0.309
-71.903,52.643,-994.024,2.053,-0.131,0.027
-71.705,58.981,-1007.734,2.697,-0.708,-0.012
-69.809,67.513,-1018.619,2.461,-0.903,0.025
-71.218,74.401,-1017.714,1.381,-0.739,0.132
-73.066,74.556,-1009.500,-0.104,-0.482,0.217
-70.483,72.615,-1005.927,-1.058,-0.346,0.117
-68.000,67.000,-1008.000,-1.120,-0.420,0.000
-69.329,58.106,-1008.403,-0.686,-0.480,0.048
-73.686,53.330,-1005.397,0.392,-0.591,0.157
-71.940,54.138,-1004.639,1.483,-0.659,0.012
-68.942,58.195,-1001.384,2.081,-0.575,-0.093
-68.722,61.127,-995.749,2.103,-0.408,-0.086
-66.544,66.367,-990.894,1.740,-0.169,-0.243
-65.945,68.969,-990.308,1.526,-0.225,-0.198
-63.262,69.659,-996.658,1.282,-0.350,-0.074
-62.893,75.352,-996.670,0.993,-0.333,0.020
-69.039,74.449,-995.668,0.543,-0.484,0.275
-71.984,72.292,-998.427,0.162,-0.651,0.401
-69.532,73.094,-999.003,0.157,-0.721,0.458
-67.921,69.276,-1000.163,0.139,-0.669,0.610
-69.158,61.803,-998.742,0.535,-0.541,0.704
-68.000,58.000,-1001.000,1.680,-0.420,0.630
-65.303,61.781,-1009.517,2.985,-0.296,0.556
-63.546,58.689,-1019.233,3.722,-0.183,0.618
-62.054,57.101,-1025.451,3.660,-0.064,0.625
-62.424,62.687,-1021.397,3.048,-0.146,0.681
-63.039,60.399,-1014.991,2.194,-0.367,0.805
-61.398,59.078,-1015.612,1.564,-0.626,0.736
-58.898,56.551,-1018.026,1.079,-0.848,0.544
-59.833,51.133,-1013.677,0.643,-0.782,0.360
-60.467,53.031,-1003.902,0.805,-0.689,0.331
-58.575,56.773,-997.821,1.172,-0.793,0.413
-61.208,59.665,-995.467,1.098,-0.868,0.410
-63.363,58.918,-991.634,0.867,-0.801,0.461
-63.252,54.823,-984.455,0.511,-0.770,0.606
-66.552,52.796,-978.589,0.473,-0.765,0.710
-67.000,51.000,-982.000,1.260,-0.700,0.700
-62.711,47.679,-992.246,1.809,-0.584,0.633
-59.238,43.026,-1002.687,1.749,-0.440,0.670
-60.262,42.031,-1007.495,1.863,-0.418,0.758
-63.647,47.172,-1007.914,2.013,-0.413,0.751
-63.537,50.654,-1009.700,1.864,-0.442,0.661
-63.151,49.717,-1011.042,1.420,-0.500,0.518
-63.995,51.326,-1011.050,0.951,-0.569,0.257
-63.038,56.661,-1012.827,0.595,-0.694,0.012
-64.324,58.368,-1014.104,-0.031,-0.749,-0.068
-66.680,55.971,-1012.627,-0.763,-0.876,-0.066
-67.350,53.936,-1010.006,-1.230,-0.874,-0.100
-68.460,55.181,-1002.215,-1.299,-0.681,-0.160
-67.223,61.039,-991.002,-0.892,-0.646,-0.124
-63.335,65.254,-989.498,-0.438,-0.797,-0.153
-60.000,64.000,-994.000,-0.280,-0.910,-0.210
-62.242,61.354,-1000.241,-0.286,-1.013,-0.150
-65.435,59.830,-1015.088,-0.116,-1.323,-0.094
-63.046,61.705,-1027.625,0.252,-1.423,0.010
-64.771,62.965,-1029.796,0.057,-1.161,0.126
-67.298,57.105,-1023.094,-0.885,-0.716,0.096
-65.685,50.993,-1006.266,-1.550,-0.162,-0.232
-67.259,48.957,-985.661,-1.358,0.066,-0.499
-69.972,51.503,-977.787,-0.561,-0.302,-0.554
-67.255,59.493,-986.901,0.243,-0.940,-0.636
-63.351,62.608,-998.864,0.356,-1.210,-0.504
-67.188,61.243,-1003.757,-0.459,-1.090,-0.324
-71.263,63.468,-1000.783,-1.686,-0.884,-0.259
-72.319,66.910,-997.149,-2.770,-0.740,-0.319
-72.986,66.393,-995.836,-3.785,-0.690,-0.524
-73.000,58.000,-995.000,-4.340,-0.560,-0.770
-75.572,51.958,-994.937,-4.036,-0.427,-1.026
-77.617,56.220,-997.012,-2.965,-0.487,-1.106
-78.108,67.063,-1005.335,-1.620,-0.779,-1.174
-74.853,78.142,-1013.848,-1.431,-1.000,-1.146
-75.243,76.875,-1020.851,-2.370,-1.087,-1.006
-79.352,69.665,-1029.612,-3.365,-1.213,-0.979
-75.636,66.864,-1029.592,-4.098,-1.182,-0.983
-74.822,64.304,-1021.661,-4.217,-1.120,-1.046
-75.601,58.650,-1013.630,-3.799,-1.167,-1.049
-72.241,53.392,-1007.341,-2.888,-1.315,-1.097
-68.677,58.267,-1004.179,-1.449,-1.527,-1.086
-63.928,66.084,-1001.013,-0.045,-1.670,-0.879
-63.374,70.043,-994.738,0.439,-1.765,-0.735
-65.301,72.033,-988.143,0.076,-1.650,-0.610
-68.000,70.000,-984.000,-0.140,-1.540,-0.490
-68.509,68.280,-982.008,-0.317,-1.554,-0.367
-64.515,63.851,-983.226,-0.369,-1.351,-0.293
-64.975,53.593,-985.853,0.034,-1.053,-0.236
-66.105,49.207,-990.906,0.624,-0.750,-0.220
-64.161,56.714,-996.887,1.422,-0.602,-0.307
-62.894,64.036,-1000.670,1.626,-0.525,-0.263
-66.628,63.737,-1001.920,0.914,-0.259,-0.289
-78.136,58.397,-997.507,0.238,-0.078,-0.412
-84.800,57.043,-991.763,0.241,-0.004,-0.486
-84.452,61.480,-990.052,0.864,-0.065,-0.419
-82.378,61.747,-993.921,1.432,-0.267,-0.295
-78.256,65.611,-1000.691,1.707,-0.394,-0.421
-78.481,69.524,-1003.432,1.725,-0.414,-0.379
-77.427,71.729,-1006.772,1.485,-0.336,-0.370
-73.000,76.000,-1012.000,0.840,-0.280,-0.490
-71.983,67.793,-1015.569,-0.154,-0.224,-0.363
-72.439,60.288,-1016.245,-0.629,-0.148,-0.390
-74.995,59.519,-1009.738,-0.523,-0.142,-0.435
-75.795,55.422,-1001.512,-0.252,-0.132,-0.413
-72.530,52.467,-993.996,0.360,-0.167,-0.428
-69.503,58.482,-989.344,1.240,-0.327,-0.521
-70.224,70.649,-989.091,1.607,-0.580,-0.550
-72.146,71.251,-992.561,1.234,-0.767,-0.358
-67.075,71.835,-997.097,0.554,-0.676,-0.356
-67.216,73.704,-992.617,-0.421,-0.486,-0.185
-73.111,65.669,-987.127,-1.104,-0.286,0.018
-69.007,64.474,-987.350,-0.943,-0.037,0.005
-63.913,60.696,-992.193,-0.109,-0.026,0.221
-61.837,54.836,-1002.565,1.006,-0.162,0.360
-65.000,59.000,-1009.000,1.890,-0.350,0.490
-70.873,62.411,-1013.274,2.351,-0.491,0.685
-67.730,67.734,-1015.723,2.363,-0.430,0.708
-63.181,67.879,-1011.686,2.175,-0.432,0.695
-60.963,62.617,-1008.292,2.072,-0.355,0.705
-61.869,63.618,-1005.902,2.302,-0.275,0.693
-64.294,59.102,-1004.908,2.652,-0.371,0.713
-63.961,51.687,-1003.809,2.813,-0.342,0.771
-63.986,50.981,-1001.079,3.117,-0.276,0.706
-64.565,50.761,-1002.943,3.553,-0.478,0.690
-66.744,54.399,-1006.551,3.783,-0.795,0.679
-66.222,59.629,-1005.922,3.347,-0.813,0.561
-67.059,56.828,-1004.315,2.476,-0.763,0.583
-68.899,51.149,-1005.555,2.036,-0.752,0.521
-65.629,42.485,-1007.132,2.244,-0.607,0.411
-68.000,38.000,-1008.000,3.150,-0.560,0.350
-68.719,46.677,-1012.839,4.504,-0.676,0.274
-63.608,49.906,-1020.293,5.300,-0.785,0.392
-63.897,48.251,-1023.536,5.080,-0.626,0.370
-65.536,52.953,-1019.947,4.544,-0.358,0.191
-64.248,55.061,-1011.429,3.935,-0.266,0.118
-62.920,51.834,-1004.558,3.093,-0.288,0.062
-64.104,44.398,-997.348,2.494,-0.276,0.070
-64.055,40.829,-988.614,2.498,-0.270,0.006
-65.156,45.850,-983.008,2.860,-0.583,0.031
-67.766,48.346,-989.084,3.145,-1.104,0.194
-64.243,47.552,-1008.256,3.258,-1.360,0.178
-63.931,48.669,-1020.916,2.673,-1.061,0.118
-67.932,48.549,-1022.544,1.188,-0.550,0.030
-67.840,44.050,-1012.352,-0.081,-0.057,-0.177
-68.000,38.000,-990.000,-0.840,0.420,-0.420
-69.747,37.495,-976.372,-1.212,0.243,-0.553
-70.494,41.239,-981.888,-0.607,-0.614,-0.569
-67.288,42.635,-1001.976,0.295,-1.511,-0.473
-63.148,44.358,-1023.690,-0.003,-2.046,-0.199
-63.552,51.468,-1033.741,-1.501,-2.026,-0.186
-63.730,62.373,-1023.478,-3.513,-1.541,-0.387
-63.142,65.728,-995.817,-5.928,-0.942,-0.502
-68.517,55.958,-976.565,-7.774,-0.757,-0.750
-70.255,46.133,-979.534,-7.548,-1.185,-0.863
-63.826,43.659,-998.260,-5.761,-1.756,-0.679
-65.625,46.059,-1013.553,-4.101,-1.994,-0.312
-72.991,54.876,-1013.011,-3.349,-2.039,0.089
-73.119,65.977,-1007.020,-3.615,-1.863,0.091
-68.392,68.577,-998.285,-4.669,-1.298,-0.182
-69.000,60.000,-985.000,-5.670,-0.700,-0.420
-72.927,49.174,-975.445,-5.224,-0.478,-0.559
-70.892,45.356,-978.982,-2.913,-0.722,-0.437
-69.191,49.967,-994.685,-0.203,-1.056,-0.133
-68.349,59.294,-1010.322,1.299,-1.102,0.136
-68.709,67.617,-1015.186,1.033,-0.862,0.365
-72.989,68.313,-1008.613,-0.345,-0.459,0.504
-75.033,62.552,-996.046,-1.532,-0.042,0.405
-74.169,58.304,-986.504,-1.719,0.199,0.219
-71.447,52.054,-981.580,-0.624,0.283,0.193
-71.206,44.901,-981.924,1.454,0.143,0.297
-72.729,49.467,-992.196,3.843,-0.240,0.449
-70.436,61.532,-1006.067,5.461,-0.339,0.674
-67.390,67.906,-1016.272,5.290,-0.128,0.887
-68.352,66.697,-1014.744,3.883,0.293,0.803
-70.000,67.000,-1001.000,2.380,0.840,0.490
-69.987,65.171,-988.272,1.728,0.998,0.346
-69.612,55.973,-984.531,2.399,0.720,0.443
-67.030,53.465,-993.861,3.886,0.104,0.603
-65.188,56.896,-1011.852,5.596,-0.501,0.853
-62.974,60.638,-1028.927,6.617,-0.770,1.145
-62.275,64.537,-1039.422,6.337,-0.844,1.170
-65.241,62.653,-1038.597,4.976,-0.758,1.040
-67.840,56.582,-1029.925,3.138,-0.572,0.859
-67.941,48.002,-1015.520,1.897,-0.526,0.605
-62.037,40.753,-1002.862,1.586,-0.799,0.460
-58.872,36.871,-1000.910,2.045,-1.336,0.348
-58.564,36.638,-1007.891,2.689,-1.933,0.223
-56.406,41.695,-1017.296,2.336,-2.076,0.110
-54.561,44.003,-1017.222,0.739,-1.762,0.064
-51.000,43.000,-1008.000,-1.610,-1.330,-0.070
-53.208,38.410,-993.428,-3.695,-0.827,-0.319
-56.833,28.209,-980.666,-4.628,-0.662,-0.501
-57.286,24.930,-978.444,-4.520,-0.875,-0.653
-58.369,26.781,-983.219,-3.684,-1.294,-0.524
-55.607,28.075,-997.101,-2.788,-1.622,-0.407
-55.737,37.937,-1009.785,-2.650,-1.584,-0.408
-61.436,48.573,-1010.871,-3.612,-1.457,-0.355
-64.907,53.723,-1008.294,-5.388,-1.151,-0.606
-65.044,53.661,-1003.811,-7.001,-0.816,-0.772
-65.855,43.874,-1001.476,-7.901,-0.667,-0.787
-68.800,41.218,-998.442,-7.669,-0.622,-0.942
-67.681,48.248,-994.709,-6.323,-0.812,-0.950
-64.491,51.827,-999.142,-5.471,-1.041,-0.794
-67.868,55.653,-1007.047,-5.564,-1.214,-0.782
-72.000,59.000,-1010.000,-5.810,-1.260,-0.840
-71.941,62.530,-1006.038,-6.556,-1.079,-0.714
-73.942,62.946,-997.448,-7.532,-0.940,-0.770
-76.682,60.892,-985.843,-7.765,-0.827,-0.987
-76.745,63.771,-979.351,-7.375,-0.739,-1.101
-75.283,63.395,-979.062,-6.727,-0.812,-1.085
-73.926,66.706,-982.082,-6.013,-0.943,-0.856
-76.274,76.755,-989.665,-5.746,-1.137,-0.771
-78.076,87.041,-997.497,-6.233,-1.323,-0.773
-76.174,99.405,-1002.931,-7.409,-1.339,-0.763
-77.107,99.117,-1008.360,-9.104,-1.323,-0.751
-78.475,87.540,-1018.230,-10.437,-1.302,-0.624
-77.627,77.955,-1021.232,-10.525,-1.027,-0.666
-78.292,71.413,-1011.545,-9.681,-0.695,-0.555
-77.718,68.694,-1005.752,-8.097,-0.729,-0.238
-75.000,67.000,-1007.000,-5.740,-0.980,-0.070
-71.571,69.281,-1009.478,-3.397,-1.222,-0.001
-68.007,73.758,-1014.015,-1.566,-1.471,-0.008
-64.603,78.734,-1020.480,-0.393,-1.653,0.045
-61.726,84.775,-1023.629,-0.040,-1.651,0.089
-63.050,81.204,-1019.404,-0.127,-1.437,0.195
-66.905,72.214,-1008.949,-0.322,-1.116,0.282
-71.405,67.763,-993.925,-0.253,-0.904,0.203
-76.689,64.293,-986.094,0.423,-1.030,0.144
-78.312,61.831,-986.992,1.247,-1.248,0.082
-76.738,65.174,-984.230,1.731,-1.188,0.034
-79.573,73.268,-977.902,1.513,-1.025,-0.077
-84.940,81.768,-975.727,0.520,-0.971,-0.186
-82.455,86.720,-981.241,-0.885,-0.973,-0.328
-78.761,81.489,-989.100,-2.476,-0.795,-0.326
-78.000,71.000,-994.000,-3.640,-0.420,-0.140
-78.224,67.185,-992.047,-4.104,-0.050,-0.200
-86.983,65.948,-983.508,-4.050,0.191,-0.161
-93.015,69.031,-977.511,-3.463,0.137,-0.219
-89.536,77.320,-981.289,-2.590,-0.237,-0.469
-85.628,81.046,-997.082,-1.737,-0.732,-0.474
-82.333,86.702,-1015.439,-1.483,-0.799,-0.505
-80.957,92.218,-1020.858,-1.861,-0.382,-0.481
-80.095,93.871,-1012.919,-2.531,0.106,-0.356
-79.145,93.429,-1001.619,-3.122,0.410,-0.342
-77.943,83.969,-998.688,-2.872,0.302,-0.364
-75.522,76.423,-1001.786,-2.062,0.091,-0.305
-75.029,76.655,-1003.471,-1.044,-0.098,-0.295
-74.765,80.665,-1005.606,-0.133,-0.355,-0.357
-73.911,86.786,-1007.280,-0.047,-0.502,-0.261
-73.000,89.000,-1010.000,-0.700,-0.490,-0.280
-70.359,87.597,-1011.066,-1.564,-0.368,-0.419
-69.562,81.500,-1011.003,-2.145,-0.257,-0.322
-71.267,74.126,-1007.993,-2.330,-0.052,-0.256
-72.650,70.522,-994.756,-2.217,0.192,-0.297
-72.687,70.154,-983.611,-1.856,0.308,-0.268
-70.534,71.278,-979.186,-1.133,0.245,-0.288
-71.183,74.466,-979.324,-0.294,-0.024,-0.278
-72.155,84.148,-987.284,0.311,-0.271,-0.279
-68.650,91.766,-995.431,0.645,-0.210,-0.197
-68.012,89.569,-1001.001,0.300,0.181,0.049
-70.570,87.484,-1000.362,-0.162,0.591,-0.026
-70.266,93.587,-993.168,0.024,0.895,-0.170
-67.169,98.355,-988.111,0.627,0.969,0.001
-68.632,91.394,-992.328,1.280,0.813,0.147
-72.000,85.000,-1002.000,1.750,0.700,0.070
-70.281,94.758,-1004.924,2.079,0.645,0.043
-69.933,104.020,-1007.670,1.931,0.450,0.327
-68.651,95.599,-1016.159,1.250,0.145,0.538
-65.757,85.028,-1022.644,0.861,0.011,0.582
-66.226,78.927,-1026.392,1.330,-0.302,0.660
-62.522,77.153,-1032.357,2.338,-0.691,0.712
-56.815,76.647,-1034.973,3.036,-0.773,0.772
-59.568,67.653,-1033.191,2.965,-0.837,0.652
-63.097,66.284,-1028.297,2.652,-0.835,0.293
-61.955,73.494,-1015.739,2.283,-0.953,0.025
-62.524,71.443,-1005.024,1.554,-1.184,0.029
-60.411,65.320,-999.780,0.961,-1.315,0.083
-57.477,60.804,-997.512,0.607,-1.429,0.066
-56.849,60.380,-995.508,0.491,-1.479,0.068
-56.000,64.000,-992.000,0.420,-1.610,-0.000
-57.824,61.049,-992.517,-0.000,-1.739,-0.061
-56.818,55.451,-996.548,-0.419,-1.772,-0.195
-55.399,55.817,-1000.057,-0.920,-1.585,-0.500
-56.602,58.847,-997.366,-1.244,-1.186,-0.746
-57.806,64.119,-989.743,-1.420,-1.043,-0.878
-63.505,67.500,-984.348,-1.742,-1.270,-0.915
-65.860,71.494,-989.920,-1.821,-1.713,-0.988
-62.207,77.761,-1004.057,-2.000,-1.959,-0.991
-62.280,77.439,-1011.701,-2.518,-1.819,-0.796
-66.172,77.569,-1007.888,-3.138,-1.440,-0.825
-70.916,81.414,-992.616,-3.661,-1.033,-1.042
-73.969,83.939,-983.621,-3.923,-1.040,-1.163
-73.627,85.374,-985.962,-3.606,-1.248,-1.179
-71.619,87.481,-989.825,-2.818,-1.434,-1.015
-69.000,91.000,-997.000,-2.100,-1.680,-0.770
-68.768,93.414,-1001.557,-1.251,-1.760,-0.580
-70.036,99.573,-1003.453,-0.656,-1.611,-0.501
-69.360,105.616,-998.990,-0.768,-1.395,-0.452
-68.650,104.828,-993.793,-1.049,-1.270,-0.403
-67.454,99.391,-993.839,-1.082,-1.140,-0.425
-67.106,93.114,-991.118,-0.498,-1.142,-0.306
-68.082,96.573,-988.929,0.653,-1.267,-0.130
-69.796,101.913,-988.082,1.630,-1.325,-0.012
-72.526,101.743,-987.142,1.965,-1.351,0.171
-74.270,103.732,-986.833,1.807,-1.216,0.305
-75.762,102.533,-992.240,1.435,-1.232,0.449
-73.073,96.920,-1004.824,0.954,-1.187,0.665
-69.240,83.889,-1011.804,0.387,-0.766,0.920
-69.033,66.896,-1007.949,0.056,-0.360,1.047
-69.000,60.000,-1000.000,0.350,0.070,0.840
-69.226,54.312,-994.956,1.218,0.337,0.593
-65.083,46.409,-1000.837,2.574,0.389,0.322
-59.768,44.070,-1015.097,3.764,0.536,-0.027
-62.589,47.586,-1025.360,3.943,0.737,-0.238
-69.481,54.582,-1027.555,3.007,0.891,-0.423
-72.039,56.934,-1019.159,1.002,1.010,-0.606
-70.959,54.771,-1007.278,-1.440,1.123,-0.944
-71.892,50.409,-999.624,-3.390,1.001,-1.374
-72.202,47.952,-991.801,-4.238,0.660,-1.677
-71.725,56.649,-993.428,-4.175,0.127,-1.977
-72.332,65.923,-1002.394,-4.176,-0.541,-2.003
-71.391,72.509,-1010.724,-4.583,-0.854,-1.983
-71.163,83.126,-1016.762,-5.538,-0.790,-2.141
-72.143,87.000,-1008.874,-6.845,-0.411,-2.177
-74.000,86.000,-993.000,-7.700,0.070,-2.380
-79.189,84.385,-980.278,-7.215,0.104,-2.583
-81.768,84.173,-977.276,-5.409,-0.181,-2.554
-77.513,92.858,-985.229,-3.312,-0.500,-2.359
-72.676,103.802,-994.608,-1.409,-0.747,-1.916
-70.296,115.701,-1003.095,-0.374,-0.883,-1.576
-68.426,124.259,-1010.241,-0.328,-0.891,-1.348
-64.709,127.183,-1011.883,-0.908,-0.681,-1.181
-63.789,126.531,-1006.627,-1.897,-0.498,-1.005
-68.083,113.186,-998.966,-2.213,-0.427,-0.628
-70.285,97.004,-998.112,-1.169,-0.475,-0.453
-68.815,88.881,-1003.217,0.967,-0.731,-0.297
-68.279,86.413,-1007.279,2.872,-0.871,-0.039
-72.460,87.614,-1007.506,3.990,-0.812,-0.004
-72.343,90.484,-1003.037,4.309,-0.673,-0.002
-67.000,92.000,-995.000,3.500,-0.490,-0.140
-67.681,87.958,-987.519,2.721,-0.474,-0.287
-67.767,81.723,-989.201,2.481,-0.631,-0.132
-65.487,76.645,-999.535,2.436,-0.876,0.026
-64.786,73.732,-1006.318,2.408,-1.033,0.131
-68.320,72.698,-1004.221,1.899,-0.914,0.244
-78.157,71.650,-998.663,0.978,-0.849,0.165
-79.622,69.927,-994.880,0.401,-0.993,-0.168
-73.269,70.880,-995.835,0.409,-1.114,-0.413
-74.117,69.861,-996.958,0.648,-1.216,-0.464
-75.694,69.634,-998.510,1.433,-1.509,-0.637
-69.429,84.722,-1005.101,2.253,-1.946,-0.706
-64.964,93.458,-1005.861,2.143,-2.166,-0.565
-68.607,88.363,-1002.221,1.437,-2.300,-0.593
-72.253,86.968,-1003.331,0.772,-2.655,-0.712
-72.000,85.000,-1006.000,0.910,-3.080,-0.700
-71.913,81.467,-1015.706,1.956,-3.500,-0.634
-72.189,80.555,-1030.910,3.555,-3.979,-0.632
-71.076,88.124,-1042.811,5.361,-4.426,-0.590
-67.627,93.506,-1052.764,6.263,-4.587,-0.579
-59.542,91.055,-1052.855,5.933,-4.352,-0.797
-54.797,90.797,-1035.827,5.128,-3.991,-0.913
-57.093,84.236,-1013.590,4.529,-3.930,-0.915
-52.674,76.324,-1003.271,4.834,-4.176,-1.043
-45.513,72.502,-1001.902,5.906,-4.527,-0.973
-45.926,64.440,-1004.233,6.873,-4.900,-0.664
-48.872,61.566,-1010.491,7.416,-4.911,-0.455
-52.957,66.036,-1005.098,7.186,-4.404,-0.423
-55.427,64.656,-988.867,6.014,-3.568,-0.553
-57.582,57.902,-975.059,4.745,-2.681,-0.905
-63.000,52.000,-964.000,4.410,-2.240,-1.260
-65.969,52.242,-962.922,5.268,-2.335,-1.286
-65.619,58.761,-972.743,6.430,-2.656,-1.055
-69.832,65.915,-981.196,6.688,-2.756,-0.843
-82.398,71.439,-982.456,5.454,-2.476,-0.691
-93.327,71.670,-977.918,3.439,-2.100,-0.636
-97.566,72.255,-977.808,2.081,-1.858,-0.822
-97.907,69.525,-986.926,1.436,-1.898,-0.906
-96.099,64.950,-999.181,1.372,-1.901,-0.840
-95.872,69.011,-1006.448,1.879,-1.714,-0.853
-96.138,71.759,-1006.129,1.912,-1.598,-0.742
-95.511,76.322,-1002.330,1.465,-1.412,-0.688
-94.707,76.201,-1000.722,1.088,-1.328,-0.697
-95.262,65.519,-1004.245,0.622,-1.414,-0.725
-94.749,56.802,-1005.875,0.440,-1.203,-0.854
-94.000,50.000,-1002.000,0.980,-0.770,-0.840
-97.449,52.679,-993.502,1.618,-0.503,-0.888
-98.733,60.739,-985.302,1.812,-0.526,-0.988
-95.727,62.277,-982.394,1.277,-0.595,-0.929
-95.949,58.207,-981.362,-0.062,-0.471,-0.913
-100.677,51.570,-982.474,-0.887,-0.272,-0.890
-98.699,48.760,-982.607,-1.001,0.015,-0.833
-93.914,47.893,-978.534,-1.123,0.536,-0.841
-96.717,47.760,-968.959,-0.994,1.088,-0.838
-98.188,54.654,-959.202,-0.871,1.293,-0.943
-96.978,64.109,-965.877,-0.620,0.912,-1.028
-93.297,72.041,-986.005,-0.466,0.158,-0.834
-90.385,83.249,-1006.751,-1.290,-0.242,-0.603
-92.935,86.171,-1018.042,-3.086,-0.022,-0.459
-94.011,77.593,-1018.603,-5.286,0.507,-0.512
-94.000,71.000,-1012.000,-6.580,0.980,-0.630
-91.624,65.006,-1003.657,-6.365,1.120,-0.628
-88.317,59.231,-1001.160,-5.170,1.117,-0.643
-88.308,56.750,-994.917,-3.527,1.102,-0.573
-89.949,62.315,-990.861,-1.823,0.946,-0.580
-88.381,74.818,-997.264,-0.490,0.632,-0.486
-78.476,81.586,-1010.328,-0.156,0.289,-0.235
-74.154,77.344,-1021.423,-0.524,0.296,-0.131
-78.767,68.425,-1019.518,-0.834,0.604,0.058
-78.004,68.697,-1011.903,-0.575,0.923,0.039
-73.476,72.697,-1004.016,0.165,1.046,-0.047
-70.114,69.346,-1005.120,0.771,0.768,0.077
-68.225,68.079,-1013.173,1.450,0.419,0.036
-66.461,67.089,-1014.929,1.878,0.234,0.128
-66.091,62.448,-1014.960,1.806,0.130,0.291
-66.000,63.000,-1011.000,1.820,0.140,0.280
-63.353,64.377,-999.991,1.660,0.258,0.284
-62.115,59.707,-987.672,1.366,0.326,0.225
-61.479,55.497,-982.835,1.430,0.030,0.232
-60.270,55.179,-989.502,2.170,-0.495,0.343
-57.986,56.605,-1002.191,3.258,-0.902,0.483
-57.240,56.709,-1017.199,3.639,-1.060,0.663
-60.257,54.984,-1025.219,3.332,-0.968,0.615
-62.828,58.548,-1024.238,3.033,-0.787,0.366
-65.380,61.658,-1019.749,2.589,-0.499,0.230
-67.537,56.245,-1009.165,2.050,-0.198,0.123
-68.501,52.615,-996.052,1.999,-0.150,0.011
-69.490,56.851,-990.611,2.390,-0.485,0.014
-69.778,65.821,-995.293,2.974,-1.109,0.119
-66.324,71.415,-1005.581,3.110,-1.591,0.399
-65.000,72.000,-1012.000,2.310,-1.750,0.630
-68.798,70.591,-1014.316,0.980,-1.758,0.698
-66.020,65.109,-1020.326,-0.196,-1.625,0.627
-61.180,57.582,-1022.647,-0.652,-1.290,0.404
-65.333,47.383,-1016.895,-0.437,-0.976,0.332
-71.942,44.868,-1006.438,0.350,-0.905,0.209
-71.277,52.581,-995.856,1.119,-0.911,0.052
-68.964,51.543,-990.887,1.576,-0.993,0.073
-69.070,47.007,-994.337,2.124,-1.241,0.071
-67.299,50.023,-1005.482,2.734,-1.356,0.068
-67.255,53.173,-1011.948,3.144,-1.094,0.103
-70.014,55.660,-1004.734,2.685,-0.557,0.188
-75.985,57.200,-986.274,1.973,0.096,0.015
-79.323,55.455,-966.856,1.960,0.609,-0.274
-79.067,54.872,-959.766,2.594,0.686,-0.261
-80.000,52.000,-962.000,3.990,0.490,-0.070
-79.002,53.847,-970.065,5.876,0.239,0.174
-80.990,60.107,-983.501,7.446,0.237,0.410
-83.043,57.039,-991.980,8.342,0.770,0.652
-83.141,57.454,-994.430,9.320,1.548,0.683
-84.623,63.140,-987.896,10.219,2.298,0.607
-86.472,68.001,-975.651,10.674,2.714,0.537
-86.815,68.832,-975.567,11.328,2.718,0.495
-81.450,67.756,-987.798,11.998,2.354,0.682
-78.186,73.698,-1006.638,12.421,1.776,0.913
-76.045,77.240,-1029.411,12.257,1.538,1.238
-71.086,79.132,-1039.996,10.926,1.608,1.342
-72.809,74.059,-1033.081,8.584,1.928,1.195
-76.591,60.975,-1019.610,6.439,2.222,1.061
-74.474,49.134,-1007.613,5.370,2.137,0.715
-73.000,37.000,-1006.000,5.460,1.680,0.560
-74.109,31.221,-1016.674,6.380,0.605,0.621
-71.292,31.914,-1032.089,6.779,-0.381,0.716
-68.489,35.050,-1040.370,5.861,-0.841,0.865
-70.486,29.387,-1036.630,3.353,-1.056,0.682
-72.167,20.434,-1028.603,0.177,-0.874,0.090
-68.823,16.892,-1018.093,-1.811,-0.671,-0.538
-64.919,7.146,-1002.695,-3.027,-0.547,-0.778
-67.662,0.182,-986.091,-3.772,-0.417,-0.957
-69.554,0.186,-977.227,-3.335,-0.664,-1.235
-66.021,7.299,-979.059,-2.738,-1.124,-1.225
-64.911,18.461,-984.443,-2.969,-1.398,-1.155
-66.930,21.311,-996.233,-3.797,-1.519,-1.075
-66.352,23.058,-1008.752,-4.875,-1.495,-1.076
-63.790,27.539,-1008.013,-5.710,-1.025,-1.200
-66.000,28.000,-998.000,-6.440,-0.560,-1.190
-70.557,27.662,-990.273,-6.825,-0.602,-1.415
-71.591,31.025,-993.799,-6.209,-0.780,-1.672
-67.906,33.507,-1005.149,-5.572,-0.989,-1.636
-62.428,38.217,-1012.244,-5.640,-1.014,-1.573
-65.338,45.432,-1006.157,-6.059,-0.712,-1.379
-72.103,48.532,-997.631,-6.555,-0.551,-1.258
-72.947,52.337,-996.011,-6.944,-0.642,-1.335
-72.131,53.310,-998.471,-6.584,-0.824,-1.274
-68.869,46.586,-1010.356,-5.382,-1.019,-1.040
-67.163,42.501,-1023.572,-4.382,-1.055,-0.817
-69.454,45.275,-1025.669,-3.494,-0.769,-0.729
-70.383,50.535,-1019.254,-2.725,-0.417,-0.670
-72.746,54.870,-1011.949,-2.594,-0.224,-0.616
-71.379,51.984,-1005.942,-2.475,0.050,-0.546
-68.000,45.000,-997.000,-1.960,0.280,-0.490
-70.384,47.618,-989.635,-1.131,0.229,-0.502
-73.653,56.613,-987.103,-0.162,0.107,-0.302
-72.642,57.160,-988.057,0.293,-0.007,-0.075
-66.299,53.173,-991.216,0.005,0.132,-0.111
-64.275,53.142,-987.346,-0.149,0.591,-0.136
-67.700,51.470,-982.633,-0.165,0.669,-0.159
-67.875,52.263,-986.433,-0.279,0.482,-0.287
-66.064,54.162,-991.542,-0.145,0.428,-0.224
-67.223,50.378,-1001.505,-0.330,0.207,-0.079
-69.998,52.140,-1015.627,-0.669,-0.026,-0.076
-69.116,55.655,-1020.842,-1.029,-0.112,-0.050
-69.614,56.540,-1023.026,-1.772,-0.165,-0.135
-69.520,58.345,-1023.139,-2.545,-0.232,-0.349
-67.965,57.986,-1017.063,-3.334,-0.288,-0.604
-68.000,59.000,-1014.000,-3.780,-0.420,-0.840
-64.415,54.317,-1013.115,-3.846,-0.672,-0.847
-64.916,48.031,-1012.922,-3.727,-0.764,-0.836
-66.948,49.874,-1012.065,-3.047,-0.809,-0.811
-64.499,52.026,-1009.229,-2.537,-0.835,-0.747
-64.418,55.327,-1006.936,-2.549,-0.727,-0.786
-66.453,53.925,-1004.447,-2.726,-0.702,-0.762
-66.911,49.946,-1002.802,-3.187,-0.614,-0.856
-65.053,51.907,-995.029,-3.487,-0.306,-1.045
-67.022,50.512,-981.209,-3.676,-0.078,-0.999
-70.076,50.678,-976.201,-3.561,-0.145,-0.974
-68.967,53.242,-978.715,-2.726,-0.300,-0.914
-67.159,53.022,-982.788,-2.060,-0.368,-0.641
-65.787,58.525,-985.008,-1.614,-0.328,-0.566
-67.371,68.485,-982.690,-1.404,-0.278,-0.542
-68.000,75.000,-985.000,-1.610,-0.280,-0.350
-66.083,72.945,-992.029,-1.790,-0.167,-0.226
-67.657,66.528,-996.968,-1.940,0.011,-0.076
-72.375,63.056,-999.634,-1.417,0.212,0.228
-74.336,63.933,-1002.808,-0.011,0.275,0.662
-71.962,64.718,-1010.351,1.556,0.016,1.032
-70.888,61.201,-1021.623,2.634,-0.262,1.215
-69.938,61.111,-1031.629,3.103,-0.431,1.180
-71.683,59.446,-1036.024,3.230,-0.494,1.054
-74.359,53.070,-1031.225,2.896,-0.339,1.057
-71.096,49.021,-1020.853,2.664,-0.105,0.931
-69.413,43.244,-1015.383,2.948,-0.129,0.730
-68.229,39.885,-1014.109,3.280,-0.433,0.703
-68.743,34.811,-1010.936,3.349,-0.703,0.687
-72.435,29.901,-1010.055,3.185,-0.949,0.619
-73.000,34.000,-1009.000,2.800,-1.120,0.560
-72.217,35.237,-1005.500,1.924,-1.068,0.451
-70.396,33.692,-1000.763,0.758,-0.915,0.210
-70.182,30.037,-989.984,-0.195,-0.643,0.039
-72.276,27.762,-984.208,-0.441,-0.602,-0.043
-74.881,33.651,-990.105,-0.020,-1.041,-0.051
-74.609,37.463,-1001.941,0.213,-1.480,0.108
-74.127,40.371,-1013.740,-0.111,-1.690,0.134
-76.036,48.155,-1019.778,-0.838,-1.750,0.010
-72.893,61.112,-1020.491,-2.022,-1.704,-0.112
-70.932,68.868,-1016.712,-3.706,-1.580,-0.229
-70.021,64.382,-1011.864,-5.123,-1.523,-0.391
-66.557,61.021,-1005.090,-5.719,-1.536,-0.521
-68.190,57.357,-994.803,-5.759,-1.439,-0.344
-72.404,52.657,-989.986,-5.004,-1.494,-0.204
-71.000,54.000,-995.000,-3.640,-1.610,-0.140
-69.453,55.052,-1001.312,-2.465,-1.551,0.105
-75.411,55.751,-1004.209,-1.545,-1.465,0.260
-77.670,61.677,-999.259,-1.102,-1.134,0.299
-77.120,67.069,-983.834,-1.484,-0.690,0.222
-80.258,64.116,-973.217,-2.069,-0.545,0.101
-80.693,60.602,-973.821,-1.901,-0.679,0.077
-77.721,61.159,-981.808,-0.973,-0.927,0.228
-75.046,66.349,-990.647,-0.241,-1.049,0.474
-76.408,74.750,-992.533,-0.097,-1.002,0.656
-78.106,77.750,-996.515,-0.522,-0.892,0.827
-76.911,77.594,-1001.478,-1.403,-0.739,0.775
-72.761,70.587,-1003.631,-2.060,-0.532,0.675
-69.593,60.390,-1003.377,-2.092,-0.392,0.716
-71.352,55.345,-1000.764,-1.106,-0.342,0.786
-71.000,52.000,-1001.000,0.630,-0.280,0.910
-67.394,56.634,-999.314,2.184,-0.330,0.967
-66.631,64.606,-999.668,3.165,-0.460,1.126
-67.407,67.516,-1004.196,3.238,-0.539,1.266
-66.445,68.289,-1006.721,2.620,-0.556,1.244
-67.828,67.120,-1006.542,1.603,-0.412,1.277
-67.268,61.147,-1005.789,0.688,-0.147,1.237
-62.757,52.390,-1003.719,0.494,0.084,1.112
-62.847,46.354,-999.260,0.729,0.205,1.052
-64.055,43.071,-998.535,1.616,0.259,1.003
-63.362,45.555,-999.960,2.626,0.408,0.881
-62.821,51.772,-998.839,2.843,0.597,0.816
-66.269,55.311,-997.083,2.532,0.617,0.878
-70.630,59.862,-997.379,1.749,0.527,0.896
-65.761,66.923,-1000.552,0.745,0.403,0.744
-60.000,69.000,-1002.000,-0.560,0.420,0.700
-62.426,69.514,-997.834,-1.935,0.560,0.770
-63.793,73.310,-994.487,-2.800,0.387,0.754
-60.452,73.603,-998.156,-3.428,0.075,0.856
-57.696,68.833,-1002.999,-3.837,-0.030,0.942
-57.526,61.023,-1003.488,-4.177,0.063,1.026
-63.863,56.178,-1001.595,-4.012,0.349,1.128
-67.917,52.808,-1003.349,-3.145,0.490,1.040
-63.326,54.614,-1007.834,-2.174,0.423,0.978
-63.020,54.605,-1008.006,-1.363,0.463,1.081
-67.690,39.916,-1008.445,-1.117,0.613,1.204
-69.870,35.549,-1003.025,-0.814,0.882,1.121
-70.364,35.828,-990.120,-0.396,1.153,1.202
-72.648,27.406,-987.573,0.067,1.171,1.321
-70.099,23.910,-991.430,1.155,1.119,0.987
-65.000,27.000,-993.000,1.820,1.120,0.700
-66.002,37.992,-997.855,1.839,0.895,0.464
-62.691,50.395,-1005.622,1.470,0.561,0.239
-59.429,61.564,-1013.474,0.287,0.369,0.151
-60.095,66.528,-1022.907,-1.252,0.160,-0.061
-56.291,67.847,-1027.126,-2.720,0.077,-0.298
-57.015,70.046,-1019.172,-3.955,0.251,-0.550
-63.408,67.970,-1006.172,-4.482,0.187,-0.788
-64.274,74.168,-1001.823,-3.981,-0.304,-1.034
-59.108,82.460,-1007.871,-3.309,-0.873,-1.088
-56.468,82.767,-1017.699,-3.022,-1.245,-0.920
-58.678,84.811,-1027.449,-2.866,-1.408,-0.939
-60.470,88.230,-1029.181,-3.108,-1.322,-0.831
-59.480,87.099,-1022.516,-3.561,-1.033,-0.805
-57.789,82.064,-1014.820,-3.784,-0.903,-0.999
-57.000,75.000,-1006.000,-3.430,-0.840,-0.980
-58.463,69.411,-996.950,-2.656,-0.867,-1.036
-61.827,68.579,-994.699,-1.566,-1.309,-1.030
-59.936,71.328,-1000.992,-0.138,-1.733,-0.848
-57.222,76.918,-1007.971,0.408,-1.855,-0.690
-60.694,77.676,-1007.952,-0.002,-1.752,-0.629
-63.302,80.274,-1004.098,-0.767,-1.470,-0.720
-64.057,82.656,-1000.670,-1.753,-1.164,-0.693
-64.890,70.997,-992.863,-2.544,-0.736,-0.631
-67.891,63.419,-981.823,-2.806,-0.378,-0.589
-72.197,61.254,-976.516,-2.162,-0.383,-0.426
-73.285,59.366,-975.207,-1.354,-0.436,-0.215
-72.096,63.152,-978.033,-0.602,-0.423,0.060
-67.147,69.443,-988.948,0.198,-0.529,0.252
-62.577,80.683,-1001.688,0.224,-0.548,0.375
-62.000,84.000,-1008.000,-0.490,-0.350,0.630
-63.726,78.578,-1008.121,-1.480,-0.043,0.884
-63.766,75.159,-1006.868,-2.016,0.136,1.011
-62.317,64.647,-1003.039,-1.866,0.106,1.170
-67.146,51.408,-1002.463,-1.118,-0.004,1.341
-68.580,42.889,-1008.168,0.139,-0.202,1.439
-68.723,32.168,-1009.287,0.964,0.048,1.558
-74.325,21.440,-999.980,1.367,0.672,1.367
-74.213,20.623,-984.272,2.042,1.089,0.811
-71.675,26.831,-970.019,2.607,1.530,0.409
-66.876,30.211,-966.037,2.711,1.673,0.194
-60.159,32.882,-973.256,2.775,1.504,0.110
-59.511,36.604,-986.541,2.555,1.468,0.180
-61.228,40.616,-1002.657,1.873,1.482,0.204
-59.763,49.586,-1010.194,1.033,1.646,0.122
-63.000,57.000,-1006.000,-0.420,1.820,-0.070
-71.434,58.677,-1003.582,-1.896,1.722,-0.425
-69.288,62.884,-1009.862,-2.207,1.340,-0.822
-63.398,70.244,-1019.300,-1.769,0.871,-1.020
-63.527,78.631,-1022.648,-1.576,0.535,-1.079
-63.930,87.025,-1023.496,-1.937,0.228,-1.138
-62.525,93.241,-1026.394,-2.525,-0.055,-1.100
-60.983,97.166,-1023.524,-3.287,-0.220,-0.968
-61.972,95.448,-1016.458,-4.089,-0.400,-0.784
-59.396,88.342,-1013.557,-4.181,-0.744,-0.644
-53.419,85.434,-1017.907,-3.371,-1.140,-0.597
-51.053,86.742,-1025.047,-2.277,-1.401,-0.454
-51.171,84.375,-1025.848,-1.542,-1.479,-0.290
-52.724,81.319,-1016.048,-1.163,-1.339,-0.298
-56.702,79.664,-1003.262,-0.962,-1.174,-0.355
-60.000,76.000,-994.000,-0.840,-1.120,-0.350
-60.767,71.609,-985.260,-0.432,-1.051,-0.243
-63.769,67.908,-979.210,0.101,-1.206,0.044
-66.445,66.420,-982.460,0.779,-1.646,0.272
-64.714,71.720,-995.116,1.329,-1.967,0.258
-64.492,76.769,-1004.443,0.757,-2.167,0.325
-67.715,69.561,-1008.897,-0.637,-2.117,0.309
-69.057,62.897,-1009.726,-2.296,-1.720,-0.108
-71.657,64.860,-1001.694,-3.519,-1.538,-0.473
-74.450,65.537,-996.729,-3.834,-1.638,-0.656
-70.016,70.279,-1000.478,-3.845,-1.921,-0.798
-65.895,75.503,-1011.625,-3.618,-2.380,-0.602
-61.197,76.911,-1025.584,-3.697,-2.537,-0.321
-54.206,83.068,-1028.312,-4.361,-2.390,-0.261
-51.740,83.128,-1021.760,-5.175,-2.120,-0.021
-48.000,72.000,-1012.000,-6.020,-1.750,0.140
-44.876,56.491,-999.870,-6.065,-1.380,0.063
-48.270,42.473,-988.150,-4.727,-1.174,0.254
-53.493,38.491,-979.787,-2.282,-1.342,0.532
-55.721,43.145,-980.075,0.228,-1.589,0.754
-56.554,48.688,-986.951,1.799,-1.716,0.991
-61.583,50.280,-995.740,2.113,-1.625,1.038
-68.411,54.454,-996.554,0.996,-1.142,0.898
-70.963,57.191,-984.271,-0.719,-0.472,0.777
-71.574,52.730,-967.406,-1.986,0.117,0.622
-74.105,51.728,-957.149,-2.396,0.357,0.344
-74.956,52.518,-964.628,-1.620,0.263,0.281
-70.324,59.966,-981.525,-0.177,0.028,0.416
-66.500,75.950,-994.430,0.600,-0.065,0.513
-68.373,87.190,-1004.372,0.238,0.104,0.566
-68.000,91.000,-1011.000,-0.700,0.350,0.560
-65.236,89.481,-1013.916,-1.532,0.711,0.390
-64.700,86.060,-1012.174,-1.617,1.015,0.166
-66.682,83.443,-1009.479,-0.419,0.994,0.142
-67.978,86.919,-1014.637,1.841,0.549,0.121
-62.529,97.759,-1025.102,3.736,-0.106,0.199
-59.831,110.775,-1036.399,4.149,-0.574,0.377
-56.515,117.090,-1042.016,3.017,-0.775,0.341
-51.960,114.379,-1034.183,0.937,-0.710,0.219
-54.822,106.964,-1015.437,-0.996,-0.626,0.142
-52.413,90.806,-999.644,-1.948,-0.700,0.151
-50.946,75.606,-995.429,-1.228,-0.941,0.092
-52.146,68.179,-996.339,0.771,-1.232,0.103
-52.754,66.414,-996.965,2.427,-1.240,0.250
-57.548,74.780,-995.681,2.944,-1.281,0.275
-56.000,85.000,-993.000,2.240,-1.330,0.210
-54.590,85.151,-988.718,0.240,-1.025,0.088
-58.135,73.592,-985.682,-2.054,-0.893,0.009
-59.968,59.268,-988.421,-2.888,-0.927,-0.009
-59.480,49.828,-993.620,-2.104,-0.912,0.033
-59.365,50.766,-998.628,-0.856,-1.030,0.072
-62.931,58.824,-1001.244,0.094,-1.033,-0.040
-65.040,65.537,-1002.105,0.175,-0.895,-0.305
-65.007,72.644,-1003.054,-0.751,-0.590,-0.612
-64.934,72.710,-1000.750,-1.704,-0.254,-0.800
-66.055,72.999,-996.942,-1.957,-0.117,-0.966
-68.104,80.922,-990.495,-1.951,-0.018,-0.872
-67.202,80.431,-988.309,-1.746,-0.207,-0.577
-65.683,77.916,-999.251,-1.239,-0.610,-0.459
-64.795,80.451,-1011.310,-0.872,-0.859,-0.237
-63.000,83.000,-1013.000,-0.770,-0.770,-0.070
-62.842,84.213,-1007.577,-0.943,-0.568,-0.126
-63.357,80.731,-1007.608,-1.047,-0.578,-0.236
-61.608,74.508,-1011.176,-0.659,-0.415,-0.355
-61.230,66.878,-1008.145,0.078,-0.138,-0.289
-64.808,63.818,-998.602,0.982,0.075,-0.179
-69.878,66.766,-987.878,1.771,0.127,-0.125
-67.427,69.184,-985.167,2.348,-0.009,-0.068
-59.349,72.689,-990.455,2.714,-0.068,-0.070
-59.405,75.184,-999.258,2.806,-0.040,-0.062
-59.161,72.177,-1012.090,2.721,0.277,-0.155
-53.363,66.514,-1021.938,2.603,0.905,-0.262
-52.405,61.887,-1020.182,2.790,1.718,-0.312
-56.732,56.172,-1003.306,3.098,2.411,-0.474
-62.652,54.354,-981.193,3.633,2.570,-0.567
-60.000,61.000,-975.000,4.970,2.030,-0.630
-49.343,68.844,-986.565,6.140,1.216,-0.643
-44.181,76.629,-1001.958,6.324,0.777,-0.560
-45.088,83.593,-1012.016,5.796,0.598,-0.607
-50.202,87.707,-1009.565,4.590,0.792,-0.615
-55.860,84.576,-996.476,3.071,1.188,-0.524
-60.098,74.830,-987.812,2.247,1.327,-0.499
-65.309,71.098,-988.411,3.055,0.923,-0.643
-65.290,77.240,-1002.248,4.662,-0.001,-0.647
-60.815,87.348,-1027.809,5.221,-0.675,-0.335
-58.764,90.284,-1042.896,4.157,-0.970,-0.243
-60.112,86.537,-1041.509,2.127,-0.839,-0.348
-60.977,83.074,-1030.891,0.290,-0.484,-0.517
-59.836,70.918,-1015.142,-0.531,-0.451,-0.767
-62.657,52.529,-1005.144,0.130,-0.769,-0.841
-65.000,45.000,-1004.000,2.030,-1.260,-0.840
-64.010,50.557,-1005.764,4.253,-1.571,-0.789
-65.208,60.296,-1006.709,5.531,-1.869,-0.653
-68.281,67.511,-1008.329,4.899,-2.036,-0.670
-71.109,69.053,-1010.659,3.306,-1.783,-0.933
-68.471,64.620,-1005.974,1.550,-1.387,-1.213
-69.166,55.810,-995.248,0.116,-1.064,-1.351
-77.560,48.713,-984.341,0.126,-1.067,-1.403
-79.254,50.471,-982.523,1.355,-1.554,-1.404
-74.305,59.110,-994.206,2.729,-2.351,-1.253
-69.211,65.004,-1011.184,3.127,-2.940,-0.977
-66.762,67.736,-1027.279,2.408,-3.244,-0.885
-61.928,71.471,-1034.264,1.237,-3.194,-0.925
-54.138,67.556,-1025.617,-0.263,-2.572,-0.897
-55.945,56.296,-1005.745,-1.356,-1.963,-0.924
-62.000,48.000,-988.000,-1.260,-1.820,-1.050
-63.812,41.959,-977.885,-0.325,-2.103,-0.955
-65.069,36.993,-977.271,1.018,-2.576,-0.670
-63.005,41.783,-989.372,2.334,-3.065,-0.633
-59.705,55.491,-1000.898,2.382,-3.237,-0.568
-62.855,62.412,-1002.059,0.636,-2.785,-0.494
-66.407,62.913,-992.844,-1.820,-2.168,-0.677
-67.106,59.504,-974.444,-3.743,-1.487,-0.772
-69.797,51.550,-956.075,-4.051,-1.054,-0.773
-70.449,47.080,-949.712,-2.491,-1.255,-0.625
-67.986,50.246,-961.056,-0.037,-1.505,-0.322
-65.143,60.916,-978.428,2.235,-1.504,-0.028
-61.130,66.326,-992.972,3.524,-1.065,0.264
-60.385,69.685,-999.917,3.783,-0.332,0.347
-61.950,75.476,-998.606,3.610,0.393,0.267
-58.000,75.000,-995.000,3.640,1.050,0.210
-55.836,76.256,-990.758,4.428,1.268,0.312
-56.018,67.154,-1000.682,5.903,1.120,0.576
-51.699,54.474,-1021.006,7.735,0.900,0.673
-48.625,58.297,-1032.472,9.535,0.825,0.800
-46.046,59.604,-1035.067,10.724,0.834,1.067
-46.418,62.499,-1031.740,11.170,0.745,0.999
-46.916,66.896,-1026.797,10.956,0.616,0.756
-47.647,59.656,-1029.420,10.465,0.311,0.639
-53.298,53.919,-1037.198,10.045,-0.078,0.509
-53.864,47.794,-1034.449,9.555,-0.220,0.541
-56.339,38.252,-1021.439,9.197,-0.224,0.781
-59.749,33.476,-1012.992,9.231,-0.551,0.811
-56.958,31.177,-1012.489,9.408,-1.051,0.660
-56.160,25.883,-1018.142,8.970,-1.365,0.629
-59.000,18.000,-1023.000,7.840,-1.470,0.490
-63.432,15.740,-1015.932,6.708,-1.355,0.123
-66.308,16.850,-1003.754,5.090,-1.220,-0.146
-67.831,11.539,-996.278,3.243,-1.135,-0.396
-64.563,5.056,-991.316,2.200,-1.135,-0.751
-61.371,4.315,-989.814,1.638,-1.241,-0.971
-60.548,8.608,-991.264,1.331,-1.464,-1.069
-57.930,21.215,-992.088,0.527,-1.773,-1.123
-59.841,35.250,-994.677,-1.367,-2.076,-1.182
-58.811,41.344,-1000.255,-3.676,-2.345,-1.307
-57.492,42.022,-1008.453,-5.788,-2.426,-1.350
-62.128,34.069,-1016.355,-7.249,-2.525,-1.269
-64.765,27.117,-1019.424,-7.820,-2.606,-1.106
-64.570,30.683,-1016.567,-7.060,-2.595,-0.933
-60.120,35.757,-1011.123,-5.978,-2.667,-0.826
-56.000,41.000,-1004.000,-5.740,-2.520,-0.770
-55.127,41.496,-992.935,-5.569,-2.050,-0.825
-54.567,39.330,-979.508,-5.340,-1.438,-0.904
-57.933,42.969,-964.882,-4.896,-0.914,-0.866
-64.318,42.546,-956.645,-4.071,-0.411,-0.572
-65.504,34.667,-955.433,-2.751,0.292,-0.109
-62.615,29.520,-950.130,-0.702,1.100,0.201
-66.582,32.429,-942.663,1.020,1.872,0.516
-72.848,38.534,-945.262,2.523,2.357,0.702
-71.450,45.222,-958.962,4.429,2.605,0.623
-73.026,52.257,-977.343,5.800,2.853,0.795
-80.833,56.389,-995.967,6.436,3.056,1.044
-83.088,64.355,-1008.748,6.952,3.244,1.216
-81.425,68.724,-1015.662,7.289,3.527,1.603
-78.329,59.269,-1019.428,7.644,3.814,1.923
-73.000,53.000,-1022.000,8.610,3.850,2.100
-67.777,50.672,-1023.941,10.171,3.566,2.345
-63.588,46.069,-1024.530,11.758,3.029,2.502
-62.590,42.763,-1033.739,13.039,2.161,2.553
-60.084,39.356,-1051.393,14.159,1.154,2.636
-55.367,38.762,-1063.243,14.746,0.516,2.651
-54.007,31.219,-1065.475,14.297,0.342,2.559
-55.127,19.411,-1054.710,13.137,0.428,2.278
-56.902,17.855,-1035.422,12.166,0.371,1.786
-56.648,19.607,-1020.913,11.344,-0.073,1.447
-52.315,21.639,-1016.216,9.753,-0.709,1.231
-46.661,20.220,-1019.598,7.585,-1.418,0.942
-44.610,11.296,-1025.202,4.894,-1.963,0.794
-45.173,3.200,-1026.631,1.653,-2.235,0.617
-44.846,2.117,-1020.644,-1.338,-2.402,0.218
-43.000,0.000,-1010.000,-3.920,-2.520,-0.070
-42.588,-9.525,-1000.168,-6.048,-2.636,-0.358
-46.781,-16.213,-994.683,-7.180,-2.849,-0.756
-49.030,-17.586,-993.212,-7.204,-3.114,-0.939
-49.471,-14.779,-991.701,-6.975,-3.100,-1.041
-51.826,-6.014,-988.744,-7.069,-2.985,-1.162
-51.809,7.427,-988.120,-7.494,-3.019,-1.301
-52.104,20.737,-991.442,-8.579,-3.009,-1.478
-53.027,23.250,-999.368,-10.167,-3.012,-1.414
-52.107,19.973,-1004.196,-11.503,-2.869,-1.265
-52.507,23.302,-1000.730,-11.879,-2.551,-1.309
-53.329,29.628,-996.321,-11.412,-2.328,-1.309
-52.583,31.008,-994.022,-10.736,-2.163,-1.245
-53.801,31.531,-994.102,-9.829,-1.959,-1.397
-57.522,35.895,-993.906,-8.530,-1.719,-1.549
-60.000,44.000,-995.000,-7.070,-1.680,-1.470
-64.983,53.177,-1000.847,-5.938,-1.860,-1.183
-69.405,55.009,-1008.620,-5.228,-2.015,-0.780
-65.560,57.260,-1014.920,-4.659,-1.957,-0.638
-61.010,61.715,-1014.585,-4.377,-1.613,-0.581
-59.721,58.021,-1007.563,-4.305,-1.305,-0.467
-60.276,57.740,-997.702,-3.930,-1.171,-0.603
-60.986,61.050,-991.853,-3.155,-1.199,-0.617
-61.713,58.301,-992.831,-2.367,-1.384,-0.367
-68.330,56.527,-996.316,-1.595,-1.613,-0.228
-72.049,60.658,-1006.274,-0.810,-1.904,-0.127
-68.925,65.453,-1015.308,-0.602,-1.890,0.017
-70.396,62.947,-1010.972,-1.202,-1.450,0.091
-71.769,59.504,-995.623,-2.197,-1.000,0.033
-68.457,58.506,-981.526,-2.854,-0.846,-0.170
-66.000,49.000,-980.000,-2.800,-1.120,-0.210
-63.387,36.311,-989.013,-2.072,-1.385,-0.078
-62.456,31.848,-1002.431,-0.696,-1.409,-0.078
-64.529,33.501,-1011.382,0.348,-1.345,-0.010
-64.900,37.339,-1016.042,0.419,-1.113,-0.089
-65.513,43.341,-1015.226,-0.316,-0.773,-0.382
-67.279,44.144,-1003.761,-1.874,-0.415,-0.524
-66.902,35.254,-992.414,-3.373,-0.284,-0.876
-65.178,30.028,-990.639,-3.796,-0.530,-1.186
-61.985,31.464,-1000.619,-3.256,-1.001,-1.084
-57.857,34.367,-1013.789,-2.663,-1.424,-0.989
-57.748,38.527,-1018.662,-3.019,-1.375,-0.991
-64.981,40.816,-1015.316,-4.297,-1.023,-1.135
-70.962,42.460,-1005.587,-5.733,-0.798,-1.305
-69.633,43.069,-997.114,-6.574,-0.871,-1.516
-69.000,45.000,-995.000,-6.440,-1.120,-1.820
-69.085,46.143,-998.880,-5.850,-1.298,-1.835
-69.427,47.420,-1006.792,-4.990,-1.579,-1.766
-70.401,59.100,-1012.829,-4.216,-1.824,-1.649
-66.180,69.472,-1015.416,-4.497,-1.726,-1.450
-64.005,72.675,-1006.990,-5.563,-1.392,-1.527
-66.559,67.596,-991.668,-6.629,-0.947,-1.614
-66.916,53.010,-982.613,-6.424,-0.614,-1.611
-64.323,48.749,-981.755,-4.464,-0.555,-1.555
-59.753,53.162,-987.320,-1.725,-0.671,-1.224
-58.472,56.961,-994.285,1.100,-0.736,-0.779
-59.899,62.238,-999.843,2.862,-0.553,-0.443
-62.955,64.626,-996.810,3.315,-0.147,-0.325
-70.349,64.911,-985.596,3.119,0.239,-0.371
-72.606,60.890,-983.935,2.963,0.342,-0.423
-65.000,51.000,-999.000,3.710,0.140,-0.350
-58.159,44.194,-1017.149,4.937,-0.056,-0.110
-61.738,47.845,-1022.676,5.797,-0.114,0.103
-66.909,59.064,-1019.491,5.621,-0.252,0.168
-62.996,63.990,-1019.290,4.265,-0.446,0.062
-59.293,55.490,-1021.789,2.463,-0.479,-0.163
-60.321,41.983,-1022.970,1.086,-0.408,-0.402
-59.831,32.572,-1020.671,0.628,-0.424,-0.568
-57.117,31.812,-1013.707,1.001,-0.482,-0.567
-58.194,33.278,-1005.138,1.557,-0.691,-0.441
-60.490,31.753,-1003.931,1.529,-1.029,-0.436
-58.697,33.704,-1009.335,1.119,-1.213,-0.584
-60.695,35.033,-1009.683,0.120,-1.257,-0.648
-65.164,33.675,-1000.442,-1.581,-1.016,-0.744
-67.127,34.193,-990.989,-2.885,-0.748,-0.944
-66.000,36.000,-988.000,-3.710,-0.770,-1.190
-65.484,37.868,-987.018,-4.289,-0.942,-1.388
-70.576,38.851,-988.536,-4.435,-1.199,-1.404
-73.523,45.646,-994.994,-4.309,-1.350,-1.405
-74.679,56.462,-1005.980,-4.339,-1.444,-1.371
-74.516,58.360,-1013.887,-4.873,-1.296,-1.316
-72.711,54.199,-1013.006,-5.522,-0.879,-1.346
-71.902,52.931,-1004.054,-5.891,-0.459,-1.483
-70.936,51.083,-990.842,-5.477,-0.208,-1.607
-73.395,54.149,-985.447,-3.858,-0.508,-1.569
-75.122,60.856,-991.317,-2.278,-1.023,-1.375
-78.774,58.991,-1005.034,-1.351,-1.401,-1.099
-80.875,58.903,-1020.172,-0.417,-1.399,-1.073
-77.191,63.348,-1027.039,-0.062,-0.980,-1.123
-80.939,64.686,-1025.059,-0.320,-0.563,-1.125
-83.000,56.000,-1012.000,-0.350,-0.000,-1.190
-80.155,47.893,-993.505,0.298,0.459,-1.412
-79.192,51.989,-980.270,1.925,0.518,-1.738
-73.300,53.856,-977.084,3.788,0.379,-1.601
-67.123,61.374,-984.137,5.391,0.181,-1.370
-63.991,70.706,-989.335,6.596,0.152,-1.142
-63.000,76.793,-994.163,6.589,0.237,-0.763
-62.919,83.022,-994.657,5.422,0.524,-0.547
-61.105,74.025,-988.346,4.195,1.018,-0.420
-60.891,65.322,-986.313,3.814,1.253,-0.533
-60.962,65.315,-983.680,4.142,1.231,-0.508
-61.828,63.442,-983.377,4.699,1.051,-0.308
-63.218,61.779,-988.818,5.303,0.626,-0.264
-59.353,67.561,-998.169,5.542,0.265,-0.033
-55.776,71.635,-1008.435,5.250,0.130,0.417
-55.000,61.000,-1017.000,4.690,0.140,0.630
-51.454,51.729,-1022.805,4.126,0.256,0.500
-51.236,46.560,-1021.546,3.922,0.434,0.577
-51.720,36.730,-1020.231,4.360,0.566,0.664
-44.875,28.142,-1014.723,5.014,0.522,0.620
-44.270,27.580,-1006.174,5.185,0.470,0.762
-49.810,27.370,-1005.376,5.211,0.160,0.735
-46.430,23.920,-1011.884,5.392,-0.542,0.550
-39.326,26.734,-1027.787,4.910,-0.965,0.552
-39.582,26.195,-1036.442,3.499,-1.097,0.639
-47.349,21.950,-1030.053,1.492,-1.145,0.473
-51.628,22.816,-1018.176,-0.712,-1.066,0.174
-50.349,15.703,-1008.046,-2.506,-1.067,-0.012
-51.718,-2.500,-1007.762,-3.582,-1.151,-0.330
-53.054,-8.597,-1011.535,-3.385,-1.277,-0.661
-54.000,-2.000,-1014.000,-2.520,-1.260,-0.630
-57.455,-0.289,-1011.913,-2.456,-1.022,-0.545
-60.754,5.682,-1003.990,-3.005,-0.733,-0.754
-65.700,15.462,-993.608,-3.790,-0.394,-1.011
-68.848,20.016,-984.085,-4.595,-0.219,-1.260
-65.340,25.425,-979.755,-4.865,-0.201,-1.434
-66.009,30.963,-977.231,-4.812,-0.116,-1.271
-72.396,34.370,-976.249,-4.587,-0.073,-1.120
-73.223,43.953,-985.966,-3.966,-0.197,-1.190
-70.130,56.313,-995.661,-3.797,-0.251,-0.996
-72.957,60.362,-993.136,-4.584,0.007,-0.704
-80.322,63.034,-992.762,-5.182,-0.011,-0.788
-78.785,68.961,-1001.546,-5.027,-0.357,-0.803
-72.677,74.036,-1011.811,-4.409,-0.409,-0.535
-73.371,72.400,-1017.431,-3.854,-0.428,-0.237
-74.000,71.000,-1017.000,-3.360,-0.350,-0.000
-70.708,73.159,-1012.228,-2.402,-0.094,0.177
-66.040,70.417,-1001.750,-1.489,-0.019,0.421
-64.119,70.908,-991.048,-0.686,0.067,0.589
-62.857,68.794,-988.536,0.396,-0.037,0.700
-58.317,63.422,-993.543,1.395,-0.444,0.951
-58.647,61.288,-1005.026,1.984,-0.757,1.263
-61.048,54.336,-1017.835,2.177,-0.915,1.559
-60.111,46.541,-1023.936,2.180,-0.793,1.682
-58.522,38.942,-1021.275,1.866,-0.435,1.535
-55.934,30.702,-1014.890,1.380,-0.074,1.202
-53.575,25.076,-1005.605,1.213,0.279,0.811
-50.187,27.002,-996.159,1.527,0.266,0.513
-45.495,34.231,-995.680,1.858,-0.240,0.404
-41.681,39.589,-999.767,1.233,-0.594,0.329
-44.000,40.000,-1009.000,-0.070,-0.840,0.140
-48.725,38.471,-1024.057,-1.176,-1.165,0.069
-49.422,45.281,-1031.383,-2.232,-1.131,0.037
-52.808,45.248,-1025.771,-3.416,-0.837,-0.113
-57.363,37.174,-1011.675,-4.362,-0.577,-0.374
-64.117,37.856,-1000.986,-4.461,-0.644,-0.780
-70.962,36.146,-1002.043,-3.583,-1.094,-0.903
-70.920,37.607,-1008.479,-2.282,-1.495,-0.838
-72.647,50.018,-1012.796,-1.304,-1.797,-0.781
-77.359,60.169,-1015.371,-1.084,-2.060,-0.631
-77.584,68.273,-1015.990,-1.412,-2.141,-0.762
-72.599,72.535,-1006.848,-2.314,-1.947,-0.875
-68.228,65.728,-991.760,-3.550,-1.565,-0.835
-62.896,56.675,-978.014,-3.846,-1.265,-0.944
-54.860,52.740,-970.660,-2.694,-1.285,-0.885
-50.000,55.000,-976.000,-0.840,-1.540,-0.700
-47.400,62.074,-988.899,0.809,-1.688,-0.470
-45.096,66.601,-999.402,1.284,-1.431,-0.138
-47.720,72.730,-995.334,0.365,-0.837,-0.035
-57.392,77.471,-984.244,-1.011,-0.533,-0.113
-58.795,71.973,-982.566,-1.964,-0.594,-0.158
-53.119,62.730,-990.277,-2.134,-0.642,-0.219
-54.238,52.277,-1001.921,-1.460,-0.786,-0.126
-57.632,47.932,-1013.198,-0.173,-0.971,0.059
-64.391,50.367,-1021.911,0.870,-0.998,0.187
-68.341,53.491,-1022.591,0.967,-0.887,0.210
-67.747,55.992,-1017.948,0.242,-0.789,-0.046
-70.088,50.681,-1016.628,-0.837,-0.755,-0.315
-67.393,44.339,-1014.871,-1.445,-0.657,-0.453
-62.567,37.855,-1007.571,-1.633,-0.458,-0.489
-62.000,34.000,-998.000,-1.610,-0.350,-0.490
-59.688,39.125,-992.373,-1.177,-0.519,-0.497
-55.466,43.652,-991.534,-1.147,-0.773,-0.466
-56.798,48.147,-994.256,-2.034,-0.980,-0.589
-64.523,47.935,-999.787,-3.458,-1.067,-0.628
-70.892,45.453,-1001.945,-4.836,-0.887,-0.667
-73.368,44.529,-998.898,-5.874,-0.653,-0.789
-73.976,41.901,-993.660,-6.384,-0.478,-0.848
-73.050,42.048,-992.740,-6.201,-0.415,-1.035
-73.127,40.646,-999.522,-5.299,-0.576,-1.169
-69.578,47.161,-1011.680,-3.764,-0.792,-1.284
-60.106,58.649,-1023.105,-2.950,-0.825,-1.372
-59.364,67.080,-1023.302,-3.161,-0.530,-1.447
-65.574,76.031,-1017.230,-3.602,-0.207,-1.568
-65.672,74.230,-1013.368,-4.488,-0.139,-1.623
-65.000,74.000,-1006.000,-5.040,-0.140,-1.750
-69.255,79.552,-998.262,-4.767,-0.347,-1.649
-71.711,82.177,-1003.019,-4.191,-0.976,-1.433
-67.838,90.189,-1016.289,-3.624,-1.554,-1.311
-65.087,96.461,-1022.977,-3.790,-1.742,-1.006
-64.596,96.304,-1019.638,-4.945,-1.711,-0.797
-60.889,87.980,-1010.395,-6.370,-1.356,-0.876
-56.789,69.496,-996.840,-6.599,-0.800,-1.063
-55.939,55.470,-980.325,-5.068,-0.374,-1.123
-58.016,55.747,-965.682,-2.515,-0.243,-1.059
-63.954,60.279,-965.743,0.622,-0.544,-1.022
-71.064,62.967,-982.214,3.152,-0.908,-0.849
-73.800,74.494,-1000.957,4.303,-1.148,-0.567
-75.453,84.637,-1014.364,4.221,-1.132,-0.243
-73.193,80.798,-1018.826,2.540,-0.591,0.020
-68.000,70.000,-1009.000,0.770,0.140,-0.070
-69.499,52.784,-992.177,0.649,0.659,-0.151
-70.757,38.770,-982.137,2.016,0.703,-0.072
-66.844,36.580,-981.271,4.764,0.418,-0.069
-60.514,40.995,-988.348,7.730,0.137,0.177
-57.897,52.329,-996.426,9.262,-0.055,0.536
-60.554,68.606,-999.066,8.927,-0.055,0.629
-59.805,78.343,-997.925,6.950,0.002,0.552
-57.212,77.462,-1000.438,4.388,-0.000,0.490
-53.179,65.631,-1010.565,2.213,0.044,0.544
-49.974,43.778,-1017.332,0.939,0.200,0.575
-55.008,31.917,-1012.556,0.815,0.387,0.524
-61.299,32.903,-1001.956,1.317,0.383,0.451
-61.433,34.996,-997.983,1.926,0.095,0.284
-58.634,42.281,-1004.355,2.157,-0.346,0.033
-58.000,47.000,-1013.000,1.610,-0.630,-0.140
-59.584,49.963,-1017.902,0.492,-0.642,-0.261
-63.465,57.570,-1014.064,-1.102,-0.535,-0.346
-67.300,58.474,-1002.688,-2.994,-0.387,-0.367
-64.672,52.633,-993.633,-4.532,-0.373,-0.522
-59.106,49.400,-989.763,-5.494,-0.596,-0.669
-58.383,50.315,-989.169,-6.038,-0.919,-0.704
-61.129,52.288,-994.728,-6.158,-1.288,-0.697
-59.344,60.191,-1005.368,-6.208,-1.536,-0.635
-55.973,67.693,-1007.935,-6.795,-1.400,-0.570
-57.902,67.794,-1002.580,-7.610,-1.139,-0.584
-59.894,73.100,-998.797,-7.787,-1.221,-0.682
-59.780,75.870,-998.080,-7.663,-1.575,-0.513
-58.486,69.972,-1004.872,-7.535,-1.918,-0.323
-56.726,67.017,-1015.492,-6.600,-2.212,-0.353
-55.000,71.000,-1022.000,-5.600,-2.380,-0.280
-57.840,75.071,-1021.637,-5.393,-2.271,-0.208
-65.318,72.934,-1016.466,-5.376,-2.116,-0.291
-62.793,76.924,-1012.023,-5.478,-2.075,-0.518
-56.165,84.448,-1006.105,-5.536,-1.950,-0.740
-59.261,86.678,-997.597,-5.553,-1.899,-0.886
-66.534,91.496,-992.135,-5.586,-2.090,-0.900
-70.068,98.518,-991.019,-5.459,-2.406,-0.835
-69.100,103.782,-991.891,-5.826,-2.712,-0.716
-69.370,103.715,-994.195,-6.566,-2.903,-0.511
-72.846,100.279,-997.179,-7.166,-3.051,-0.498
-74.080,96.417,-998.699,-7.543,-3.080,-0.396
-69.046,89.249,-1004.326,-7.442,-3.119,-0.219
-61.607,82.579,-1015.493,-6.689,-3.245,-0.217
-52.540,83.531,-1023.769,-5.403,-3.111,-0.203
-46.000,84.000,-1023.000,-4.550,-2.800,-0.070
-46.568,74.654,-1015.333,-4.147,-2.386,0.132
-50.824,66.911,-1006.167,-3.384,-1.922,0.044
-58.131,64.863,-995.644,-2.316,-1.676,0.029
-59.814,62.492,-988.536,-1.124,-1.526,0.272
-59.770,57.969,-981.655,-0.480,-1.299,0.373
-66.964,53.159,-971.710,-0.302,-0.970,0.432
-73.286,52.002,-964.643,0.026,-0.682,0.415
-73.280,52.816,-963.733,0.325,-0.442,0.354
-68.691,57.514,-970.159,0.743,-0.139,0.294
-68.505,62.469,-976.119,0.949,0.179,0.270
-72.738,63.465,-976.304,0.523,0.709,0.267
-76.650,66.988,-973.343,0.213,1.287,0.168
-78.022,69.096,-974.088,0.604,1.487,0.269
-78.274,69.288,-983.983,1.396,1.370,0.432
-82.000,74.000,-998.000,2.380,1.120,0.420
-82.435,78.466,-1012.681,3.112,0.920,0.422
-79.425,82.482,-1026.317,2.977,0.985,0.338
-79.635,87.386,-1029.899,2.314,1.176,0.121
-82.431,94.546,-1021.180,1.563,1.112,-0.160
-80.031,106.675,-1014.303,1.006,0.732,-0.448
-72.393,112.329,-1015.534,0.491,0.133,-0.577
-70.060,112.072,-1018.275,-0.190,-0.463,-0.633
-71.038,114.789,-1023.546,-0.732,-1.067,-0.576
-69.337,115.537,-1027.697,-1.303,-1.718,-0.281
-69.753,110.751,-1027.523,-2.112,-1.958,-0.070
-72.207,99.367,-1024.935,-2.896,-1.978,-0.153
-68.500,89.054,-1020.992,-3.041,-2.062,-0.403
-64.157,85.351,-1015.739,-2.545,-1.985,-0.603
-62.710,85.147,-1002.470,-2.052,-1.788,-0.626
-60.000,86.000,-987.000,-2.170,-1.610,-0.630
-58.255,82.750,-977.933,-2.578,-1.595,-0.698
-56.343,78.338,-973.892,-2.393,-1.718,-0.584
-56.652,72.340,-976.948,-2.326,-1.773,-0.251
-59.661,63.634,-985.919,-2.544,-1.695,-0.114
-61.412,65.373,-992.519,-2.518,-1.539,-0.299
-62.415,73.017,-990.985,-3.088,-1.252,-0.427
-67.553,67.074,-988.057,-4.201,-0.967,-0.342
-72.098,57.214,-995.061,-4.331,-0.971,-0.341
-65.925,61.636,-1008.319,-2.939,-1.059,-0.477
-61.030,70.865,-1015.570,-1.271,-0.900,-0.425
-65.273,75.380,-1009.623,-0.447,-0.536,-0.243
-69.513,81.135,-996.614,-0.127,-0.210,-0.218
-71.696,87.216,-984.433,0.523,0.095,-0.174
-74.347,83.875,-977.716,1.407,0.291,0.030
-75.000,78.000,-984.000,2.730,0.210,0.140
-76.425,81.915,-996.352,4.632,0.138,0.308
-80.279,88.256,-1005.082,5.927,0.185,0.540
-81.755,95.024,-1009.612,6.060,0.283,0.523
-81.472,102.128,-1007.733,5.081,0.471,0.469
-77.023,97.602,-996.150,3.373,0.887,0.349
-76.665,87.122,-977.758,2.050,1.209,0.078
-77.689,87.481,-969.182,2.484,0.700,-0.073
-67.903,95.501,-985.845,4.219,-0.344,0.049
-59.022,98.318,-1015.850,5.161,-1.098,0.356
-57.418,96.351,-1035.869,4.813,-1.267,0.577
-63.212,96.273,-1038.865,3.517,-0.975,0.671
-65.961,93.395,-1032.061,1.781,-0.616,0.523
-61.780,76.286,-1023.108,0.341,-0.342,0.158
-61.101,57.017,-1013.568,0.259,-0.212,-0.281
-62.000,56.000,-1007.000,1.890,-0.490,-0.630
-64.673,65.324,-1007.520,3.545,-1.038,-0.585
-64.155,77.310,-1010.392,4.061,-1.469,-0.487
-61.031,86.334,-1011.723,3.035,-1.580,-0.495
-61.621,86.300,-1010.584,0.870,-1.473,-0.518
-61.818,85.816,-1003.414,-1.257,-1.346,-0.720
-60.718,79.640,-993.775,-2.807,-1.140,-0.855
-59.975,68.310,-985.473,-3.444,-1.052,-0.918
-58.350,64.047,-981.148,-3.140,-1.117,-1.044
-51.492,65.224,-980.579,-2.054,-1.159,-1.016
-49.156,68.965,-985.382,-0.811,-1.372,-0.806
-53.914,70.996,-998.367,0.115,-1.556,-0.528
-52.344,76.491,-1008.374,0.691,-1.464,-0.387
-49.701,85.075,-1011.239,0.605,-1.144,-0.438
-51.477,85.626,-1008.101,0.134,-0.800,-0.410
-57.000,82.000,-1002.000,-0.280,-0.700,-0.420
-65.084,75.255,-1001.680,-0.216,-0.755,-0.494
-68.051,68.781,-1003.013,0.468,-0.875,-0.396
-68.458,67.684,-1002.681,1.141,-0.956,-0.238
-72.635,69.088,-1003.245,1.721,-1.045,-0.012
-75.233,74.273,-1006.821,2.289,-1.300,0.055
-72.150,76.958,-1014.816,2.314,-1.491,-0.107
-72.292,74.897,-1017.811,1.609,-1.382,-0.219
-77.666,75.855,-1008.186,0.633,-1.132,-0.344
-78.748,76.292,-993.095,-0.169,-1.140,-0.307
-74.001,75.589,-991.151,-0.339,-1.445,-0.254
-70.312,76.291,-1002.167,0.047,-1.894,-0.288
-72.516,72.925,-1011.663,0.075,-2.180,-0.119
-73.838,71.333,-1016.764,-0.229,-2.012,-0.089
-71.733,75.663,-1011.341,-0.563,-1.706,-0.138
-72.000,76.000,-997.000,-1.330,-1.400,-0.140
-73.819,70.127,-983.588,-2.002,-1.086,-0.378
-73.672,62.897,-976.988,-1.740,-0.894,-0.555
-71.383,58.420,-979.415,-0.631,-0.731,-0.527
-71.144,62.993,-984.094,0.965,-0.722,-0.432
-70.466,78.936,-986.666,2.256,-0.780,-0.297
-70.271,93.303,-990.069,1.928,-0.775,-0.193
-70.841,95.896,-998.890,0.281,-0.842,-0.219
-65.445,92.441,-1008.688,-1.419,-0.660,-0.406
-63.928,83.723,-1004.846,-2.758,-0.225,-0.494
-69.972,73.031,-991.885,-2.976,0.013,-0.478
-73.231,70.728,-988.639,-1.804,-0.146,-0.509
-69.418,73.065,-997.958,0.028,-0.503,-0.441
-63.797,76.515,-1006.823,1.430,-0.512,-0.318
-65.756,84.246,-1006.299,1.557,-0.239,-0.280
-70.000,89.000,-998.000,0.910,0.000,-0.280
-70.846,87.647,-987.534,-0.056,0.303,-0.219
-72.515,80.945,-977.738,-0.765,0.534,-0.202
-73.477,72.183,-970.770,-0.431,0.546,-0.190
-75.608,68.737,-973.597,0.393,0.384,-0.083
-78.477,68.344,-982.624,1.567,0.077,-0.074
-73.150,77.047,-995.189,2.783,-0.286,0.049
-67.921,89.593,-1007.728,2.424,-0.415,0.213
-69.862,88.610,-1012.855,0.644,-0.167,0.087
-68.908,78.568,-1012.242,-1.250,0.198,-0.149
-64.616,67.065,-1003.207,-2.379,0.536,-0.415
-60.388,52.436,-994.702,-2.100,0.669,-0.541
-55.635,39.431,-999.797,-0.323,0.372,-0.612
-48.539,46.604,-1013.675,2.469,-0.176,-0.847
-42.538,64.381,-1030.689,4.078,-0.703,-0.993
-44.000,78.000,-1046.000,3.430,-1.050,-1.120
-46.002,95.658,-1051.355,1.353,-1.179,-1.471
-46.298,103.688,-1045.356,-1.984,-1.278,-1.911
-49.453,99.211,-1039.504,-5.182,-1.484,-2.258
-52.131,91.418,-1038.054,-6.850,-1.773,-2.482
-53.677,83.655,-1033.627,-6.924,-2.057,-2.499
-56.915,83.510,-1025.729,-5.863,-2.187,-2.331
-61.340,86.239,-1011.721,-4.519,-2.245,-2.080
-64.846,91.453,-995.993,-3.359,-2.307,-1.895
-65.210,97.434,-985.229,-2.739,-2.315,-1.893
-65.427,97.357,-975.169,-2.429,-2.246,-1.787
-71.174,92.519,-968.485,-2.099,-1.976,-1.464
-77.112,83.421,-968.078,-1.419,-1.520,-1.087
-78.055,76.970,-967.091,-0.004,-0.932,-0.728
-80.756,78.330,-960.804,1.351,-0.429,-0.268
-86.000,77.000,-954.000,1.890,-0.140,0.210
-84.825,73.987,-953.317,1.845,0.059,0.293
-79.629,75.051,-961.686,1.671,-0.006,0.253
-80.109,73.399,-977.392,1.442,-0.209,0.368
-83.855,70.561,-995.573,1.255,-0.329,0.478
-82.649,68.036,-1011.053,1.285,-0.154,0.613
-76.691,66.795,-1017.306,1.226,0.418,0.725
-75.114,62.360,-1013.594,1.126,0.783,0.848
-76.964,52.605,-1010.910,1.611,0.782,0.848
-76.239,47.738,-1014.707,2.684,0.461,0.765
-75.475,43.966,-1019.522,3.656,0.050,0.802
-73.272,44.206,-1022.108,4.219,0.046,0.611
-68.936,51.901,-1019.283,4.307,0.245,0.278
-67.013,58.731,-1003.775,3.765,0.626,0.098
-70.702,60.880,-981.936,2.971,0.933,-0.018
-71.000,57.000,-969.000,2.590,0.980,-0.140
-64.665,54.131,-968.945,2.947,1.057,-0.214
-63.574,54.149,-980.420,4.180,0.825,-0.117
-63.793,60.750,-1000.417,5.795,0.481,0.021
-62.989,78.240,-1017.308,6.442,0.419,0.120
-69.544,94.012,-1016.407,5.155,0.566,0.108
-80.022,100.952,-1008.757,2.629,0.704,-0.143
-80.534,101.907,-1009.259,0.744,0.462,-0.437
-72.431,98.416,-1012.764,0.143,0.157,-0.500
-71.436,92.865,-1015.982,0.590,-0.112,-0.231
-72.235,92.159,-1021.712,1.852,-0.600,0.156
-68.148,97.565,-1028.756,2.787,-0.917,0.441
-64.998,97.850,-1025.592,2.896,-0.845,0.656
-67.541,90.370,-1014.667,2.245,-0.776,0.791
-73.696,81.524,-1007.044,1.380,-0.940,0.662
-73.000,70.000,-1002.000,1.470,-1.050,0.420
-68.516,60.763,-1000.986,2.144,-1.101,0.406
-65.746,57.596,-999.296,2.743,-1.271,0.485
-63.348,56.343,-995.573,3.379,-1.456,0.463
-59.555,58.545,-997.757,3.584,-1.628,0.358
-54.175,60.367,-1002.551,2.971,-1.675,0.226
-53.033,61.355,-1005.251,1.783,-1.588,0.007
-51.814,63.107,-1003.767,0.145,-1.539,-0.303
-50.873,63.986,-1001.107,-1.498,-1.542,-0.545
-52.935,62.135,-1000.299,-2.815,-1.443,-0.726
-51.713,57.710,-997.857,-3.732,-1.272,-0.947
-50.438,61.717,-996.607,-3.774,-1.355,-1.194
-49.187,68.580,-1002.458,-3.622,-1.739,-1.267
-47.861,72.269,-1013.476,-3.877,-2.129,-1.271
-49.360,77.774,-1023.200,-4.286,-2.233,-1.337
-52.000,80.000,-1027.000,-5.180,-2.030,-1.330
-53.832,79.392,-1021.022,-6.184,-1.617,-1.328
-56.125,73.847,-1003.012,-6.662,-1.118,-1.330
-64.068,65.698,-980.754,-6.224,-0.727,-1.360
-70.816,67.711,-966.336,-4.594,-0.640,-1.433
-72.415,78.295,-963.014,-2.508,-1.031,-1.324
-74.640,86.310,-973.571,-0.996,-1.487,-0.946
-77.127,90.314,-992.447,-0.484,-1.765,-0.536
-76.289,95.570,-1007.294,-0.791,-1.712,-0.357
-71.702,99.174,-1009.078,-1.688,-1.037,-0.287
-71.109,94.800,-994.453,-2.879,-0.241,-0.340
-72.939,84.351,-975.683,-3.364,0.274,-0.561
-72.784,78.006,-966.006,-2.163,0.265,-0.621
-71.181,76.819,-973.152,0.338,-0.260,-0.390
-67.570,78.760,-994.610,2.773,-0.850,0.082
-68.000,88.000,-1015.000,4.200,-1.190,0.560
-69.130,94.911,-1027.023,4.203,-1.159,0.764
-68.583,90.973,-1028.110,2.718,-0.746,0.697
-70.167,79.097,-1017.572,0.797,-0.149,0.427
-68.728,63.476,-998.973,-0.336,0.269,0.115
-68.721,50.976,-981.797,-0.163,0.419,-0.176
-71.005,46.934,-988.026,1.652,-0.228,-0.264
-65.414,51.559,-1015.211,3.841,-1.168,0.029
-61.862,60.236,-1036.233,4.515,-1.338,0.335
-65.319,70.838,-1034.668,2.994,-1.182,0.432
-68.130,75.225,-1013.264,-0.661,-0.800,0.242
-73.447,60.788,-991.663,-4.667,-0.478,-0.265
-70.834,38.020,-984.496,-6.696,-0.570,-0.796
-58.330,27.608,-990.929,-6.211,-0.892,-1.236
-54.049,31.166,-1002.780,-4.395,-1.314,-1.306
-56.000,45.000,-1010.000,-2.940,-1.470,-1.050
-58.429,70.896,-1006.978,-3.080,-1.529,-1.091
-62.270,89.409,-1001.272,-5.302,-1.523,-1.237
-63.266,84.494,-996.225,-8.657,-1.296,-1.354
-62.910,73.305,-989.233,-11.038,-1.133,-1.604
-62.774,65.151,-991.117,-10.935,-1.279,-1.688
-62.036,62.025,-1001.389,-9.108,-1.511,-1.672
-65.387,66.533,-1010.666,-6.979,-1.618,-1.523
-68.926,76.875,-1017.681,-5.144,-1.744,-1.395
-68.934,92.956,-1019.162,-4.450,-1.676,-1.569
-69.319,100.782,-1017.148,-4.886,-1.274,-1.695
-67.939,101.731,-1007.695,-5.653,-0.654,-1.916
-69.536,105.977,-990.957,-6.017,-0.196,-2.214
-74.041,107.010,-979.409,-5.505,-0.296,-2.205
-73.728,109.755,-977.171,-4.524,-0.690,-1.989
-73.000,114.000,-981.000,-3.360,-0.980,-1.610
-74.668,113.316,-987.728,-2.465,-1.164,-1.062
-76.621,111.936,-995.557,-2.027,-1.242,-0.671
-77.478,112.232,-997.083,-1.541,-0.923,-0.603
-79.218,106.389,-994.419,-1.115,-0.489,-0.468
-81.646,93.335,-993.734,-0.405,-0.303,-0.469
-80.421,91.945,-994.298,1.213,-0.297,-0.640
-77.819,94.927,-999.686,3.141,-0.511,-0.311
-75.226,92.917,-1011.101,4.294,-0.756,0.057
-73.033,96.569,-1019.447,4.529,-0.852,0.173
-74.200,93.514,-1018.120,3.997,-0.684,0.337
-75.441,85.077,-1010.714,2.773,-0.374,0.265
-74.582,78.853,-999.109,1.837,-0.254,0.044
-75.493,68.732,-989.893,1.725,-0.310,-0.122
-75.795,62.647,-986.575,2.293,-0.438,-0.304
-73.000,64.000,-983.000,3.150,-0.490,-0.350
-71.117,68.989,-983.253,3.779,-0.597,-0.232
-70.840,76.018,-990.261,4.013,-0.811,-0.099
-71.665,80.793,-999.027,3.375,-0.794,-0.047
-71.920,80.005,-1005.972,2.292,-0.566,-0.128
-72.842,79.046,-1005.722,1.276,-0.349,-0.259
-78.469,80.082,-1001.027,0.191,-0.278,-0.378
-80.848,78.912,-1001.297,-0.368,-0.363,-0.498
-75.479,79.821,-1008.282,-0.481,-0.670,-0.559
-71.287,80.579,-1018.080,-0.609,-0.964,-0.518
-70.933,77.410,-1022.683,-0.643,-0.935,-0.352
-70.747,78.558,-1018.512,-0.612,-0.894,-0.210
-68.883,82.209,-1010.618,-0.688,-0.723,-0.237
-66.388,79.596,-995.458,-0.910,-0.408,-0.296
-66.030,75.587,-980.462,-0.960,-0.365,-0.361
-65.000,74.000,-979.000,-0.490,-0.630,-0.350
-62.257,72.972,-987.242,0.470,-1.065,-0.118
-62.297,74.731,-998.943,1.343,-1.267,0.194
-64.673,79.625,-1006.443,1.391,-1.172,0.434
-63.812,83.554,-1007.286,0.429,-0.809,0.495
-59.411,81.696,-997.933,-0.942,-0.173,0.338
-59.523,78.310,-984.245,-2.018,0.169,0.084
-60.943,74.678,-979.001,-2.288,0.054,-0.077
-59.052,72.825,-985.916,-1.364,-0.188,-0.077
-61.562,77.696,-1003.185,-0.078,-0.540,0.128
-68.504,82.719,-1014.651,0.602,-0.832,0.510
-73.368,89.710,-1015.991,0.652,-0.747,0.724
-70.899,93.072,-1015.415,-0.077,-0.533,0.615
-65.901,84.652,-1012.890,-0.998,-0.240,0.327
-66.271,74.714,-1008.137,-1.055,0.110,0.122
-66.000,70.000,-1002.000,-0.070,0.140,0.070
-62.339,75.448,-999.592,1.453,-0.142,0.061
-62.855,84.482,-1005.918,2.632,-0.673,0.174
-66.304,87.779,-1014.562,2.766,-1.063,0.231
-67.280,90.747,-1013.826,1.868,-0.911,0.196
-68.722,91.807,-1002.664,0.516,-0.581,0.213
-70.238,89.387,-987.581,-0.620,-0.398,0.099
-71.043,86.757,-980.015,-0.817,-0.511,-0.081
-70.172,83.192,-988.076,-0.200,-0.822,-0.142
-69.281,83.886,-997.253,0.604,-0.875,-0.044
-74.648,89.299,-996.708,1.060,-0.693,0.155
-78.750,92.826,-991.720,0.597,-0.548,0.239
-75.918,94.459,-992.468,-0.038,-0.464,0.160
-68.511,91.312,-1002.388,-0.378,-0.513,0.030
-63.885,83.847,-1009.397,-0.660,-0.465,-0.086
-68.000,78.000,-1006.000,-0.630,-0.280,-0.140
-72.046,78.124,-1000.258,-0.227,-0.324,-0.086
-68.205,86.017,-1002.251,0.255,-0.540,0.031
-62.558,88.010,-1007.311,0.021,-0.858,0.135
-65.982,80.847,-1010.084,-0.563,-1.043,0.105
-71.651,77.385,-1013.198,-0.730,-1.072,0.089
-73.089,76.683,-1016.398,-0.897,-1.217,0.242
-71.810,72.490,-1013.467,-1.131,-1.100,0.198
-70.818,64.541,-1003.792,-1.071,-0.911,0.074
-74.632,61.423,-995.292,-0.598,-0.971,-0.019
-72.346,66.116,-990.819,0.349,-0.945,-0.251
-68.077,74.585,-988.633,1.280,-0.848,-0.196
-70.365,83.864,-987.088,1.260,-0.683,0.008
-70.635,87.619,-985.346,0.628,-0.519,0.100
-68.674,89.164,-983.957,-0.225,-0.402,0.227
-66.000,87.000,-987.000,-1.260,-0.350,0.280
-63.263,82.423,-993.998,-1.737,-0.471,0.395
-62.685,79.019,-999.433,-1.644,-0.549,0.497
-63.874,72.441,-1005.246,-1.166,-0.580,0.443
-63.421,74.657,-1012.454,-0.459,-0.466,0.415
-63.692,78.261,-1012.276,-0.050,-0.153,0.416
-69.672,75.570,-1000.657,-0.208,0.127,0.312
-74.042,77.197,-988.322,-0.342,0.285,0.130
-70.438,78.842,-984.044,-0.089,0.221,0.133
-66.290,82.864,-985.864,0.094,0.092,0.201
-65.560,85.819,-991.895,0.347,-0.015,0.282
-63.891,87.799,-999.675,0.399,-0.158,0.454
-65.126,96.220,-1006.520,0.167,-0.227,0.489
-67.379,100.194,-1007.622,-0.253,-0.191,0.492
-68.291,97.460,-1007.236,-1.108,-0.135,0.392
-71.000,94.000,-1010.000,-1.470,-0.140,0.210
-70.293,90.449,-1009.391,-1.180,-0.144,0.200
-70.154,88.820,-1005.853,-0.769,-0.096,0.267
-72.521,90.130,-997.653,-0.329,0.011,0.261
-69.563,91.677,-987.802,0.107,0.122,0.150
-64.369,91.903,-982.292,0.580,0.131,0.165
-64.514,90.598,-982.689,0.705,0.040,0.216
-67.143,90.105,-989.700,0.947,-0.158,0.290
-67.975,93.652,-1000.087,1.390,-0.402,0.414
-68.103,96.356,-1013.033,1.124,-0.604,0.511
-67.290,91.137,-1022.856,0.471,-0.592,0.743
-66.884,79.844,-1021.344,-0.232,-0.256,0.660
-66.780,72.400,-1009.657,-0.675,0.017,0.367
-63.423,68.920,-998.131,-0.159,-0.051,0.118
-57.246,65.704,-996.576,0.945,-0.335,-0.263
-58.000,68.000,-1006.000,1.960,-0.770,-0.420
-62.802,76.522,-1016.980,2.460,-1.100,-0.422
-62.096,85.109,-1019.109,1.811,-1.095,-0.374
-63.557,89.635,-1013.552,-0.066,-0.926,-0.351
-65.642,88.624,-1004.785,-2.071,-0.754,-0.561
-64.285,82.169,-995.328,-3.489,-0.700,-0.908
-62.717,75.708,-988.934,-4.197,-0.808,-1.149
-63.142,73.096,-989.348,-3.622,-1.078,-1.113
-64.955,81.831,-997.261,-2.269,-1.506,-1.055
-64.861,96.679,-1006.277,-1.329,-1.851,-0.894
-66.357,103.087,-1011.581,-1.553,-1.887,-0.747
-67.406,104.139,-1009.618,-2.734,-1.650,-0.833
-69.163,98.480,-1001.925,-3.593,-1.314,-0.819
-71.285,91.129,-993.273,-3.769,-1.065,-0.885
-71.060,86.295,-986.229,-3.228,-1.068,-1.079
-73.000,85.000,-985.000,-2.310,-1.260,-1.260
-73.882,92.572,-988.277,-2.005,-1.446,-1.393
-76.492,100.838,-993.380,-2.521,-1.579,-1.402
-80.355,106.974,-998.293,-3.972,-1.682,-1.376
-77.464,106.953,-1004.124,-5.778,-1.851,-1.270
-70.095,101.665,-1009.661,-7.049,-2.003,-1.288
-65.458,92.320,-1014.191,-7.401,-2.034,-1.326
-66.130,81.406,-1021.610,-6.711,-2.110,-1.337
-66.183,78.078,-1026.867,-5.496,-2.234,-1.465
-62.679,77.588,-1025.940,-4.073,-2.247,-1.423
-61.917,82.048,-1019.472,-3.139,-2.258,-1.379
-64.460,89.211,-1010.413,-2.923,-2.448,-1.445
-62.341,93.650,-1007.330,-2.873,-2.708,-1.458
-59.588,93.044,-1008.020,-3.248,-2.932,-1.232
-60.164,88.426,-1006.669,-3.877,-3.003,-0.955
-62.000,86.000,-1003.000,-4.550,-2.800,-0.910
-65.534,78.679,-993.963,-5.238,-2.444,-0.789
-68.058,67.778,-979.109,-5.564,-1.975,-0.786
-71.946,60.783,-963.132,-5.087,-1.526,-0.957
-75.896,60.911,-954.411,-3.540,-1.319,-0.941
-79.541,64.333,-957.423,-1.488,-1.214,-0.764
-82.207,71.528,-970.286,0.804,-0.977,-0.599
-82.120,88.486,-980.351,2.370,-0.517,-0.480
-88.280,105.919,-978.469,2.235,0.094,-0.354
-96.140,115.451,-972.700,1.049,0.568,-0.392
-97.094,114.211,-972.238,-0.434,0.737,-0.513
-93.367,113.426,-977.083,-1.100,0.828,-0.647
-89.461,118.153,-982.311,-0.706,0.765,-0.676
-87.283,120.754,-993.565,0.291,0.338,-0.372
-83.251,124.503,-1013.084,1.493,-0.040,-0.026
-79.000,123.000,-1029.000,2.240,-0.140,0.210
-77.049,118.262,-1034.338,2.792,0.078,0.345
-78.189,117.593,-1026.407,3.223,0.481,0.312
-79.927,114.400,-1012.138,3.838,0.606,0.197
-76.376,112.697,-1005.633,4.739,0.457,0.086
-71.536,112.317,-1006.321,5.097,0.152,0.103
-71.312,106.352,-1005.249,4.995,-0.118,0.353
-73.099,101.850,-1000.689,4.572,-0.295,0.648
-73.082,99.434,-999.008,3.778,-0.482,0.828
-72.080,89.874,-997.269,2.912,-0.453,0.967
-71.683,78.783,-989.772,2.220,-0.316,0.918
-68.874,72.628,-983.767,1.826,-0.233,0.712
-66.213,67.927,-982.829,1.782,-0.228,0.575
-65.520,65.613,-987.266,2.217,-0.433,0.454
-61.368,64.872,-1001.627,2.991,-0.644,0.426
-63.000,65.000,-1014.000,3.500,-0.490,0.490
-71.179,69.807,-1011.251,3.194,-0.122,0.389
-72.776,78.500,-1003.077,2.322,0.190,0.085
-69.608,83.933,-996.933,1.384,0.464,-0.109
-66.721,79.754,-992.379,0.618,0.659,-0.204
-67.909,77.528,-985.879,0.608,0.818,-0.437
-68.695,86.543,-978.755,1.410,0.718,-0.355
-64.586,95.550,-980.619,2.385,0.475,0.026
-57.680,102.463,-995.417,3.362,0.238,0.324
-49.097,108.217,-1018.022,3.891,-0.158,0.745
-49.195,110.610,-1033.853,3.178,-0.137,1.028
-56.702,109.897,-1030.260,1.492,0.221,1.052
-59.172,100.359,-1016.221,-0.089,0.421,1.035
-57.705,85.370,-1004.503,-0.657,0.512,0.960
-59.357,73.810,-992.007,0.329,0.566,0.992
-58.000,75.000,-982.000,2.660,0.490,1.050
-51.587,85.786,-980.442,4.936,0.127,1.210
-51.160,90.051,-987.629,5.842,-0.119,1.583
-54.025,96.168,-997.073,5.282,-0.174,1.818
-59.538,104.476,-999.026,3.574,-0.250,2.008
-65.665,99.697,-1001.353,1.096,-0.298,2.241
-64.041,89.905,-1005.641,-1.351,-0.365,2.210
-59.746,82.562,-1007.130,-3.043,-0.426,2.096
-58.038,79.991,-1008.962,-4.190,-0.549,2.040
-57.358,79.605,-1007.548,-5.216,-0.675,1.816
-56.178,76.209,-1006.218,-6.364,-0.820,1.583
-60.518,72.658,-1008.705,-7.615,-1.070,1.503
-65.279,65.031,-1012.392,-8.394,-1.270,1.427
-63.264,62.785,-1014.549,-8.517,-1.488,1.279
-65.903,68.501,-1020.454,-8.309,-1.984,1.191
-71.000,64.000,-1031.000,-8.680,-2.520,1.260
-70.266,58.234,-1031.353,-9.821,-2.501,1.047
-69.805,56.432,-1017.513,-10.978,-2.157,0.639
-68.589,51.808,-1001.383,-11.605,-2.107,0.417
-58.268,55.293,-996.982,-10.708,-2.231,0.082
-46.104,64.374,-998.125,-8.738,-2.212,-0.083
-43.031,73.390,-997.670,-6.999,-2.052,0.024
-45.247,87.180,-992.255,-5.974,-1.716,0.074
-50.406,100.344,-979.106,-5.801,-1.166,0.137
-60.251,102.443,-965.115,-6.029,-0.598,0.097
-72.168,94.548,-953.672,-6.037,-0.246,-0.025
-79.423,96.125,-958.039,-4.404,-0.293,-0.113
-76.747,111.990,-977.734,-1.415,-0.705,0.059
-74.327,125.362,-999.443,0.416,-1.049,0.469
-82.648,135.767,-1015.745,0.395,-1.031,0.633
-89.000,148.000,-1020.000,-0.840,-0.910,0.560
-85.681,152.715,-1020.010,-2.829,-0.796,0.439
-83.049,141.352,-1018.407,-4.572,-0.606,0.318
-83.106,126.393,-1012.083,-4.720,-0.524,0.189
-82.620,124.550,-1002.106,-3.047,-0.672,0.131
-81.479,125.949,-995.663,-0.590,-1.112,0.298
-79.323,125.157,-1002.504,1.448,-1.649,0.536
-74.558,129.399,-1013.666,2.650,-1.895,0.632
-70.943,131.201,-1015.488,2.776,-1.772,0.631
-76.068,126.320,-1002.971,1.757,-1.412,0.588
-82.580,121.442,-986.981,0.681,-1.149,0.391
-81.840,117.022,-978.564,0.177,-1.136,0.126
-81.372,108.503,-976.824,0.241,-1.259,0.096
-83.308,100.131,-982.241,0.732,-1.468,0.256
-80.226,102.090,-990.027,1.257,-1.623,0.270
-77.000,111.000,-994.000,1.260,-1.610,0.210
-79.503,110.340,-995.661,0.105,-1.492,0.161
-81.197,99.809,-997.808,-1.332,-1.326,-0.055
-80.239,92.598,-996.486,-1.916,-1.090,-0.295
-79.875,86.016,-993.221,-1.900,-0.884,-0.365
-77.423,78.652,-993.317,-1.252,-0.846,-0.352
-70.257,78.886,-997.130,0.119,-0.933,-0.449
-67.067,86.747,-1002.277,1.005,-0.979,-0.486
-69.010,95.538,-1001.391,0.697,-0.915,-0.420
-66.003,98.154,-995.298,-0.626,-0.858,-0.472
-63.223,97.292,-989.871,-2.495,-0.717,-0.565
-62.141,95.632,-984.636,-3.679,-0.517,-0.762
-60.679,90.212,-982.492,-3.973,-0.522,-0.849
-62.628,88.548,-987.261,-3.584,-0.691,-0.863
-61.630,96.613,-999.001,-2.854,-0.853,-0.990
-62.000,105.000,-1008.000,-2.870,-0.700,-0.910
-67.330,105.366,-1005.238,-3.743,-0.222,-0.946
-70.314,103.808,-995.332,-4.834,0.292,-1.193
-72.316,105.093,-986.032,-5.035,0.576,-1.394
-69.637,107.518,-986.244,-4.094,0.467,-1.512
-64.682,114.237,-992.045,-2.928,0.279,-1.417
-67.037,124.273,-997.091,-2.117,-0.013,-1.310
-70.059,132.540,-1001.207,-2.298,-0.290,-1.177
-69.122,137.784,-1001.193,-3.522,-0.284,-1.052
-67.461,137.769,-997.238,-5.031,-0.235,-1.097
-65.438,133.646,-991.896,-5.907,-0.093,-1.214
-64.941,129.182,-991.081,-5.711,-0.151,-1.276
-64.386,122.707,-994.660,-4.686,-0.349,-1.066
-60.636,118.637,-999.567,-3.008,-0.345,-0.871
-57.893,122.935,-1003.180,-1.316,-0.443,-0.742
-61.000,127.000,-1001.000,-0.280,-0.560,-0.560
-68.876,129.389,-1001.290,0.235,-0.783,-0.554
-72.675,132.953,-1007.134,0.342,-1.135,-0.563
-69.426,130.219,-1012.357,-0.009,-1.181,-0.566
-70.592,122.973,-1013.481,-0.609,-1.049,-0.524
-73.236,117.063,-1006.440,-1.022,-0.933,-0.507
-68.514,114.715,-1000.077,-1.014,-0.822,-0.672
-62.597,112.748,-998.976,-0.748,-0.845,-0.774
-59.008,109.191,-998.120,-0.564,-0.848,-0.834
-63.845,108.038,-995.758,-0.566,-0.714,-0.902
-71.005,108.618,-992.461,-0.470,-0.765,-0.915
-68.675,113.569,-991.650,-0.431,-0.945,-0.902
-66.663,115.591,-991.925,-0.716,-0.967,-0.933
-67.137,108.652,-993.940,-0.965,-0.882,-1.001
-68.230,106.164,-998.814,-1.057,-0.840,-1.057
-68.000,108.000,-1004.000,-0.980,-0.840,-1.050
-65.190,107.917,-1007.162,-0.834,-0.675,-0.980
-65.507,109.919,-1001.434,-1.065,-0.363,-1.071
-67.710,113.120,-989.995,-1.430,-0.162,-1.186
-73.777,114.521,-981.963,-1.637,-0.171,-1.185
-79.766,115.310,-978.034,-1.625,-0.384,-1.180
-80.808,116.170,-982.830,-1.103,-0.694,-0.977
-77.724,117.108,-990.345,-0.446,-0.760,-0.605
-77.665,119.703,-990.233,0.098,-0.510,-0.424
-81.982,124.076,-987.448,0.529,-0.315,-0.371
-79.164,126.491,-984.690,0.453,-0.112,-0.285
-78.552,123.404,-979.391,0.270,0.153,-0.298
-80.051,116.937,-978.609,0.540,0.214,-0.212
-77.037,113.755,-985.083,1.359,0.215,-0.020
-75.981,116.551,-989.460,2.362,0.204,0.089
-76.000,118.000,-993.000,2.590,0.210,0.280
-74.636,117.831,-995.884,2.342,0.337,0.363
-69.241,118.976,-996.366,2.088,0.322,0.233
-67.918,118.504,-999.434,1.657,0.165,0.258
-69.346,116.398,-1005.503,1.531,-0.077,0.467
-66.908,108.163,-1016.616,1.680,-0.391,0.592
-66.062,101.097,-1026.540,1.970,-0.486,0.639
-67.100,99.910,-1029.026,2.167,-0.416,0.623
-67.985,98.084,-1025.689,1.856,-0.418,0.440
-68.507,98.056,-1012.351,1.374,-0.422,0.144
-71.029,96.612,-1002.146,0.872,-0.474,-0.170
-68.004,96.889,-1003.396,0.513,-0.773,-0.439
-61.859,103.729,-1005.600,0.347,-1.135,-0.630
-64.589,112.691,-1007.644,-0.019,-1.413,-0.586
-68.201,118.426,-1009.023,-0.960,-1.629,-0.396
-68.000,117.000,-1006.000,-2.450,-1.540,-0.350
-70.417,111.900,-996.659,-3.734,-1.341,-0.406
-72.091,106.236,-987.607,-3.952,-1.334,-0.522
-66.823,104.110,-983.633,-3.156,-1.280,-0.616
-65.631,107.095,-982.552,-2.035,-1.300,-0.634
-70.984,114.258,-985.438,-0.774,-1.448,-0.610
-71.514,124.248,-991.502,0.158,-1.470,-0.431
-67.700,131.370,-998.506,0.500,-1.464,-0.115
-65.904,133.957,-1002.037,0.318,-1.159,0.129
-69.165,132.289,-999.027,-0.253,-0.691,0.206
-70.378,124.055,-994.559,-0.434,-0.535,0.213
-65.880,115.181,-989.537,-0.030,-0.390,0.204
-63.728,114.385,-985.547,1.105,-0.400,0.232
-65.593,115.223,-988.714,2.495,-0.622,0.300
-65.994,120.310,-996.085,3.485,-0.707,0.362
-68.000,128.000,-1001.000,3.850,-0.770,0.490
-71.754,128.766,-1002.910,3.162,-0.778,0.622
-71.990,132.812,-1001.980,2.271,-0.716,0.594
-72.620,132.578,-997.942,1.357,-0.664,0.499
-73.138,124.756,-992.881,0.070,-0.584,0.498
-75.179,121.023,-986.445,-0.632,-0.585,0.466
-76.800,120.250,-985.648,-0.381,-0.856,0.419
-72.664,127.971,-992.671,0.099,-1.295,0.500
-70.989,142.021,-1003.007,0.170,-1.780,0.682
-69.835,151.739,-1018.224,-0.917,-2.242,0.933
-65.905,153.589,-1032.062,-3.441,-2.397,1.077
-65.342,141.654,-1034.764,-6.272,-2.300,1.245
-71.956,116.441,-1022.399,-8.812,-2.019,1.508
-81.513,90.334,-1003.090,-10.113,-1.775,1.511
-83.832,66.377,-986.652,-9.285,-1.740,1.380
-81.000,47.000,-972.000,-7.280,-1.470,1.190
-76.015,42.361,-959.703,-4.790,-1.092,0.884
-69.568,50.835,-948.830,-2.703,-0.884,0.633
-64.721,65.420,-942.331,-1.920,-0.759,0.386
-58.417,77.965,-945.457,-2.525,-0.569,0.191
-56.382,82.823,-952.865,-4.252,-0.026,0.130
-62.727,77.947,-960.350,-6.239,0.740,0.139
-68.320,67.365,-961.961,-7.548,1.447,-0.024
-72.644,67.368,-965.246,-7.487,1.872,-0.396
-75.352,78.370,-978.774,-6.139,2.010,-0.598
-72.038,89.930,-990.096,-4.479,2.065,-0.800
-71.522,109.604,-1002.169,-3.513,1.857,-1.050
-72.931,135.416,-1023.510,-3.605,1.383,-1.181
-66.474,152.114,-1046.657,-4.704,1.057,-1.404
-61.844,163.570,-1061.152,-6.549,1.067,-1.555
-64.000,168.000,-1056.000,-8.820,1.190,-1.680
-68.264,164.395,-1035.515,-10.905,1.207,-1.809
-71.043,163.270,-1014.109,-11.622,0.901,-1.907
-63.622,162.542,-1002.113,-10.643,0.119,-2.032
-52.526,168.166,-1004.469,-8.677,-0.692,-1.749
-47.782,176.810,-1011.300,-6.742,-1.384,-1.334
-45.617,182.251,-1015.403,-5.533,-1.887,-1.048
-47.417,184.791,-1010.120,-5.102,-1.717,-0.672
-56.226,174.977,-994.325,-5.121,-1.285,-0.429
-64.051,166.579,-978.301,-4.424,-1.030,-0.362
-67.343,163.611,-965.147,-2.417,-0.849,-0.248
-72.462,156.147,-960.126,0.051,-0.940,0.091
-75.784,154.500,-967.906,2.357,-1.301,0.391
-74.463,159.931,-984.207,4.039,-1.608,0.529
-74.069,165.754,-995.949,4.259,-1.580,0.641
-75.000,168.000,-994.000,2.870,-1.260,0.630
-76.754,165.713,-984.486,0.732,-0.944,0.517
-76.868,158.071,-977.346,-0.877,-0.826,0.321
-73.213,142.928,-979.486,-1.179,-0.924,0.287
-72.419,130.147,-986.725,-0.071,-1.019,0.441
-76.496,126.588,-993.614,2.051,-1.082,0.653
-74.897,130.462,-1003.543,3.805,-1.226,0.873
-70.950,137.371,-1014.816,4.422,-1.335,0.830
-73.751,136.466,-1023.522,4.117,-1.335,0.709
-74.361,128.919,-1026.496,3.168,-1.183,0.498
-74.426,119.497,-1020.383,2.401,-0.874,0.166
-78.849,108.239,-1007.514,2.441,-0.684,-0.065
-79.598,104.863,-996.099,3.238,-0.771,-0.347
-77.392,110.070,-989.352,4.317,-1.120,-0.513
-77.146,118.391,-988.266,5.018,-1.700,-0.480
-79.000,127.000,-992.000,4.550,-2.100,-0.420
-79.268,133.990,-995.525,2.967,-2.230,-0.467
-77.264,138.937,-997.893,0.681,-2.218,-0.649
-77.458,135.817,-996.531,-1.927,-2.014,-0.787
-77.983,126.912,-991.976,-3.624,-1.701,-0.907
-76.153,117.505,-982.364,-4.282,-1.203,-1.024
-74.822,112.684,-970.795,-3.825,-0.979,-1.144
-73.872,116.480,-969.408,-2.163,-1.216,-1.108
-71.225,123.406,-981.631,-0.275,-1.641,-0.920
-69.703,133.102,-1000.848,1.118,-2.105,-0.852
-72.504,145.962,-1015.444,1.116,-2.247,-0.784
-75.553,153.306,-1021.807,0.058,-2.195,-0.797
-76.172,151.100,-1019.637,-1.224,-1.988,-0.854
-77.503,144.645,-1011.191,-2.148,-1.902,-0.841
-77.855,134.328,-1004.120,-2.013,-2.055,-0.931
-76.000,129.000,-1000.000,-0.980,-2.310,-1.050
-74.330,135.706,-1001.235,0.559,-2.918,-1.007
-71.205,142.428,-1006.746,1.414,-3.284,-0.810
-68.409,147.748,-1008.397,0.987,-3.221,-0.754
-71.167,151.100,-1002.669,-0.264,-3.038,-0.774
-75.012,148.146,-988.506,-1.864,-2.754,-0.783
-74.793,139.410,-971.207,-2.975,-2.456,-0.849
-75.055,126.004,-960.608,-2.869,-2.394,-0.756
-73.367,118.919,-962.404,-0.913,-2.829,-0.572
-69.011,126.844,-973.020,1.900,-3.237,-0.409
-72.645,138.807,-986.309,3.738,-3.436,-0.071
-76.259,142.550,-1000.543,4.168,-3.514,0.182
-74.269,148.500,-1009.693,3.532,-3.095,0.072
-79.267,151.095,-1004.796,2.449,-2.378,0.108
-82.835,138.694,-989.537,1.413,-1.908,0.122
-78.000,127.000,-976.000,1.330,-1.610,-0.000
-75.923,119.767,-966.872,2.816,-1.447,0.119
-76.295,119.444,-966.664,5.202,-1.909,0.194
-74.163,131.029,-983.160,7.358,-2.797,0.286
-68.826,145.397,-1008.384,8.001,-3.396,0.413
-65.555,151.561,-1025.721,6.385,-3.153,0.544
-69.073,139.856,-1024.936,3.018,-2.208,0.512
-70.921,121.970,-1007.445,0.298,-1.272,0.024
-68.238,116.071,-992.508,0.253,-0.903,-0.467
-64.934,115.261,-992.628,2.045,-1.281,-0.577
-61.522,115.547,-998.696,3.883,-1.674,-0.497
-66.789,119.613,-1003.993,4.654,-1.886,-0.480
-79.847,121.671,-1008.924,3.997,-2.094,-0.349
-83.886,125.637,-1008.659,2.157,-1.823,-0.415
-82.000,127.502,-993.653,0.032,-1.331,-0.651
-86.000,116.000,-970.000,-1.890,-0.980,-0.700
-88.507,102.083,-959.874,-2.627,-0.993,-0.995
-80.308,102.636,-965.030,-0.995,-1.516,-1.174
-66.292,115.748,-976.601,0.965,-1.908,-0.855
-60.634,128.070,-991.472,1.305,-1.963,-0.387
-65.136,137.110,-995.552,0.166,-1.778,-0.165
-68.456,139.448,-989.224,-2.240,-1.269,-0.128
-71.327,128.787,-982.594,-4.777,-0.815,-0.069
-74.923,111.266,-980.003,-5.697,-0.578,-0.134
-74.040,98.658,-980.129,-4.379,-0.288,-0.150
-77.118,93.917,-980.545,-1.828,-0.018,-0.101
-83.248,98.174,-988.956,0.831,-0.073,0.008
-81.251,116.723,-995.248,2.585,-0.113,0.086
-80.716,132.169,-991.282,2.626,0.149,0.069
-85.737,135.010,-989.153,1.290,0.103,0.056
-88.000,133.000,-994.000,-0.140,-0.140,-0.210
-87.239,129.961,-1001.822,-0.732,-0.246,-0.420
-85.510,132.375,-1010.328,-0.931,-0.616,-0.324
-84.107,131.827,-1023.799,-1.038,-1.062,-0.195
-84.793,128.462,-1033.556,-1.087,-1.283,-0.069
-88.398,127.815,-1030.545,-1.266,-1.327,0.013
-88.489,126.625,-1023.307,-1.302,-1.231,-0.116
-85.896,123.675,-1016.472,-0.774,-1.113,-0.289
-85.966,120.065,-1007.893,0.271,-1.052,-0.405
-86.567,122.155,-993.084,0.994,-1.005,-0.652
-89.551,124.571,-975.228,0.978,-0.848,-0.760
-92.789,126.485,-959.180,0.578,-0.669,-0.853
-94.696,131.565,-947.257,0.402,-0.647,-1.040
-92.693,138.243,-947.851,0.653,-0.852,-0.776
-87.420,144.676,-961.388,0.757,-1.067,-0.279
-88.000,145.000,-973.000,0.420,-0.980,0.140
-90.867,142.453,-977.960,-0.085,-0.684,0.463
-89.466,138.050,-986.778,-0.177,-0.317,0.515
-83.939,131.263,-995.945,0.362,-0.019,0.414
-81.659,128.085,-1000.940,1.353,0.151,0.257
-83.447,132.639,-1000.005,2.540,0.216,0.076
-79.518,140.620,-999.180,3.244,0.102,-0.005
-73.727,145.288,-1001.278,3.274,-0.086,0.083
-72.939,147.188,-1008.228,2.732,-0.330,0.269
-73.753,138.431,-1014.981,1.510,-0.496,0.347
-75.319,124.251,-1012.406,0.215,-0.337,0.355
-76.281,113.116,-1006.753,-0.838,0.003,0.301
-76.266,100.167,-993.924,-1.384,0.186,0.118
-78.531,94.195,-991.623,-0.599,0.104,-0.048
-75.026,95.707,-988.966,0.937,0.074,-0.243
-71.000,107.000,-985.000,2.240,0.070,-0.350
-74.286,122.163,-982.930,2.696,-0.048,-0.224
-78.797,133.920,-982.164,2.074,-0.215,-0.246
-80.960,144.914,-993.868,0.818,-0.379,-0.259
-79.059,140.608,-992.302,-1.080,-0.211,0.034
-83.344,130.407,-998.780,-2.606,0.119,0.125
-84.159,122.324,-989.122,-2.717,0.431,-0.032
-79.900,120.119,-984.355,-1.957,0.793,-0.069
-80.971,119.416,-977.476,-0.863,0.913,-0.068
-80.030,114.615,-970.783,0.483,0.807,-0.078
-81.019,120.213,-985.830,2.109,0.605,0.001
-78.864,126.625,-984.302,3.576,0.266,0.234
-74.045,135.804,-1014.452,4.211,-0.048,0.583
-73.387,141.656,-1005.206,3.609,-0.027,0.817
-77.808,139.318,-1011.291,2.122,0.166,0.832
-80.000,130.000,-1000.000,0.490,0.280,0.700
-79.124,120.464,-989.591,-0.183,0.239,0.504
-75.064,118.372,-1009.291,0.608,-0.002,0.564
-65.886,114.718,-987.843,1.804,-0.168,0.721
-66.191,118.491,-1028.526,2.802,-0.242,0.645
-67.273,119.227,-985.944,3.042,-0.137,0.645
-70.733,126.957,-1017.122,2.274,0.128,0.605
-65.248,119.617,-988.620,0.944,0.287,0.481
-65.134,110.648,-982.461,-0.040,0.287,0.300
-71.129,108.694,-1021.121,-0.088,0.171,0.081
-63.308,94.123,-919.641,-0.089,-0.016,0.094
-78.552,119.448,-1134.575,0.083,-0.327,-0.053
-43.548,66.677,-615.192,0.188,-0.233,-0.122
