acc_x[mg],acc_y[mg],acc_z[mg],gyro_x[dps],gyro_y[dps],gyro_z[dps]
-314.000,-958.000,37.000,0.140,-0.840,-0.070
-326.342,-997.203,38.715,0.087,-0.876,-0.014
-298.313,-908.092,34.228,0.046,-0.798,0.020
-327.759,-999.357,38.267,0.134,-0.879,-0.057
-301.660,-918.006,35.744,0.093,-0.810,-0.061
-322.043,-981.821,37.948,-0.048,-0.858,-0.106
-308.358,-938.711,36.414,-0.058,-0.838,-0.234
-315.410,-958.587,37.211,0.003,-0.916,-0.285
-314.255,-958.908,38.101,0.002,-0.851,-0.410
-310.822,-945.289,37.629,-0.052,-0.813,-0.442
-317.370,-968.236,39.114,-0.095,-0.884,-0.385
-308.500,-942.694,38.299,-0.006,-0.738,-0.492
-314.710,-965.883,38.024,-0.064,-0.707,-0.444
-308.893,-948.593,37.929,-0.255,-0.680,-0.444
-313.126,-959.652,38.055,-0.278,-0.624,-0.480
-312.000,-957.000,38.000,-0.280,-0.560,-0.350
-312.091,-955.766,37.052,-0.168,-0.491,-0.348
-314.304,-965.083,37.675,-0.023,-0.496,-0.306
-311.744,-952.586,37.724,0.067,-0.478,-0.239
-313.559,-961.630,36.841,0.213,-0.506,-0.149
-311.399,-953.268,38.508,0.164,-0.471,-0.046
-313.433,-960.511,36.250,0.058,-0.511,-0.082
-312.977,-955.978,36.157,0.072,-0.559,-0.065
-314.882,-953.372,36.197,0.073,-0.556,-0.003
-314.251,-957.218,35.317,-0.031,-0.621,0.003
-314.753,-955.087,37.678,-0.184,-0.665,-0.002
-313.777,-960.419,35.825,-0.217,-0.734,-0.002
-313.515,-953.434,38.162,-0.182,-0.661,0.021
-313.428,-956.877,34.772,-0.019,-0.741,0.074
-314.777,-953.493,44.811,-0.222,-0.668,-0.011
-315.000,-950.000,47.000,-0.840,-0.770,0.140
-302.192,-958.362,14.593,-0.337,-1.335,0.146
-316.118,-958.200,25.007,0.790,-0.621,-0.503
-327.296,-954.045,52.083,0.253,-0.060,-0.556
-311.159,-950.201,46.204,-0.750,-1.000,-0.180
-302.599,-952.125,37.673,-0.255,-1.273,-0.327
-311.843,-949.227,37.920,-0.098,-0.829,-0.703
-328.563,-944.162,41.954,-0.975,-0.859,-0.677
-317.668,-955.063,34.634,-1.454,-1.050,-0.415
-303.768,-959.916,32.953,-1.596,-0.894,-0.842
-308.650,-957.030,35.110,-1.527,-0.756,-1.205
-309.570,-959.541,33.500,-1.114,-0.797,-1.175
-309.530,-957.183,38.627,-0.652,-0.711,-1.344
-312.989,-955.833,39.768,-0.596,-0.619,-1.271
-312.512,-954.852,38.782,-0.794,-0.727,-1.109
-309.000,-957.000,35.000,-0.910,-0.840,-1.120
-310.498,-960.763,33.597,-1.104,-0.721,-1.124
-312.823,-962.192,36.007,-1.017,-0.678,-1.076
-312.628,-963.877,35.549,-0.620,-0.725,-0.975
-311.037,-960.229,37.120,-0.206,-0.653,-0.817
-311.499,-957.177,38.148,-0.084,-0.642,-0.629
-311.573,-957.027,37.742,-0.341,-0.719,-0.445
-308.895,-959.296,34.722,-0.418,-0.771,-0.271
-309.861,-961.996,33.810,-0.417,-0.710,-0.214
-310.893,-961.024,36.736,-0.390,-0.576,-0.061
-311.195,-961.236,36.444,-0.187,-0.588,0.171
-310.070,-959.035,35.515,-0.135,-0.664,0.236
-310.742,-957.738,34.546,-0.104,-0.580,0.343
-311.938,-957.518,35.715,0.032,-0.580,0.431
-311.000,-956.017,36.847,-0.014,-0.627,0.419
-312.000,-958.000,34.000,0.070,-0.560,0.420
-311.054,-956.523,33.774,0.393,-0.558,0.306
-312.388,-954.130,34.863,0.391,-0.558,0.166
-312.761,-953.480,35.542,0.327,-0.595,0.073
-311.588,-951.775,35.964,0.321,-0.664,-0.105
-311.865,-950.641,34.320,-0.022,-0.728,-0.259
-310.967,-952.708,34.116,-0.319,-0.772,-0.384
-313.197,-955.051,33.917,-0.349,-0.774,-0.576
-313.166,-954.926,32.993,-0.350,-0.901,-0.758
-311.858,-957.418,33.801,-0.306,-0.926,-0.888
-312.327,-957.724,34.457,-0.178,-0.891,-0.964
-311.033,-955.802,36.664,-0.124,-0.929,-0.988
-311.460,-955.980,37.947,-0.151,-0.891,-0.972
-311.725,-955.947,35.251,-0.137,-0.926,-0.990
-309.710,-957.362,36.384,-0.237,-0.897,-0.967
-309.000,-960.000,36.000,-0.350,-0.840,-0.840
-308.971,-961.112,33.755,-0.120,-0.789,-0.833
-309.694,-959.429,36.671,0.079,-0.691,-0.815
-309.741,-959.085,35.739,0.031,-0.764,-0.660
-308.308,-960.040,35.600,0.185,-0.709,-0.638
-309.684,-957.726,37.171,0.262,-0.615,-0.583
-309.751,-957.242,35.708,0.003,-0.625,-0.373
-310.175,-959.077,36.061,-0.142,-0.556,-0.279
-312.034,-958.155,36.039,-0.138,-0.560,-0.282
-310.250,-956.938,35.928,-0.195,-0.509,-0.225
-310.543,-957.052,36.063,-0.224,-0.474,-0.198
-310.651,-956.200,35.914,-0.190,-0.503,-0.220
-309.687,-955.519,36.270,-0.260,-0.480,-0.210
-310.093,-954.788,37.194,-0.380,-0.496,-0.331
-309.972,-956.446,35.521,-0.423,-0.487,-0.421
-310.000,-958.000,33.000,-0.420,-0.490,-0.420
-310.801,-956.189,33.012,-0.308,-0.490,-0.598
-311.344,-955.898,32.821,-0.119,-0.530,-0.748
-310.310,-955.840,33.768,-0.003,-0.615,-0.814
-312.411,-955.589,33.877,-0.043,-0.645,-0.850
-312.124,-954.380,34.245,-0.213,-0.752,-0.843
-309.734,-955.358,33.719,-0.384,-0.856,-0.941
-309.997,-954.806,34.170,-0.499,-0.917,-1.056
-309.074,-953.813,35.160,-0.680,-1.041,-1.116
-308.278,-956.911,32.756,-0.937,-1.114,-1.179
-307.331,-955.089,36.156,-1.067,-1.154,-1.172
-310.026,-957.291,34.981,-1.284,-1.268,-0.999
-310.050,-962.758,31.130,-1.567,-1.355,-0.883
-307.795,-962.441,33.866,-1.345,-1.303,-0.925
-309.047,-960.778,33.920,-0.934,-1.264,-0.898
-307.000,-960.000,35.000,-0.840,-1.330,-0.770
-307.690,-960.070,34.322,-0.900,-1.278,-0.585
-307.705,-959.687,34.090,-0.928,-1.193,-0.492
-306.684,-960.878,36.522,-0.831,-1.195,-0.468
-309.290,-959.691,34.337,-0.707,-1.184,-0.346
-308.038,-959.243,32.845,-0.568,-1.186,-0.252
-306.933,-961.136,32.941,-0.374,-1.088,-0.201
-305.844,-959.877,33.102,-0.199,-0.973,-0.213
-304.892,-958.215,35.782,-0.136,-0.851,-0.214
-308.032,-954.052,37.107,-0.291,-0.763,-0.151
-311.901,-950.307,36.784,-0.598,-0.798,-0.075
-312.849,-951.016,37.010,-1.129,-0.676,0.150
-305.805,-959.064,34.748,-1.689,-0.650,0.150
-300.780,-960.672,34.203,-1.671,-0.695,-0.163
-307.166,-953.382,33.602,-1.279,-0.623,-0.284
-309.000,-958.000,30.000,-1.190,-0.630,-0.350
-305.194,-963.786,29.772,-1.214,-0.516,-0.533
-305.667,-963.594,31.411,-0.877,-0.379,-0.672
-306.369,-960.098,33.381,-0.258,-0.270,-0.747
-308.004,-956.143,34.325,0.171,-0.161,-0.784
-309.228,-955.601,35.801,0.022,-0.133,-0.739
-310.294,-953.524,36.873,-0.362,-0.157,-0.592
-309.808,-955.326,33.667,-0.649,-0.289,-0.488
-307.077,-958.845,29.317,-0.834,-0.288,-0.551
-307.785,-961.709,26.209,-0.809,-0.211,-0.671
-307.073,-967.219,26.493,-0.507,-0.221,-0.830
-304.317,-965.028,28.475,0.164,-0.152,-1.001
-304.811,-954.863,37.017,0.605,-0.001,-0.874
-309.460,-947.312,44.839,0.218,-0.075,-0.518
-309.376,-949.141,34.504,-0.715,-0.571,-0.256
-304.000,-962.000,21.000,-1.470,-0.770,-0.350
-304.460,-970.071,20.982,-1.244,-0.414,-0.729
-308.067,-965.357,29.880,-0.279,-0.065,-0.771
-310.187,-957.760,38.485,0.368,0.029,-0.520
-308.607,-952.342,39.245,0.090,-0.273,-0.301
-306.381,-952.859,33.456,-0.598,-0.561,-0.050
-305.818,-958.421,28.009,-0.963,-0.540,-0.026
-304.983,-964.361,25.984,-1.045,-0.407,-0.224
-305.879,-965.231,27.759,-0.739,-0.220,-0.286
-307.584,-961.569,30.570,-0.228,-0.192,-0.122
-308.916,-959.184,32.289,0.013,-0.264,0.083
-308.519,-955.636,33.389,-0.166,-0.310,0.218
-306.952,-957.899,29.712,-0.621,-0.374,0.311
-302.513,-960.977,26.811,-0.635,-0.315,0.239
-302.655,-957.556,29.534,-0.308,-0.198,0.135
-308.000,-958.000,32.000,-0.210,-0.210,0.210
-308.918,-957.406,32.255,-0.319,-0.331,0.335
-310.009,-955.694,29.680,-0.527,-0.415,0.411
-308.586,-957.190,28.718,-0.541,-0.414,0.401
-308.615,-957.749,28.835,-0.430,-0.449,0.255
-310.020,-956.157,27.616,-0.286,-0.493,0.091
-308.863,-956.236,28.330,-0.228,-0.389,0.072
-308.897,-956.934,30.172,-0.517,-0.356,-0.014
-305.264,-954.244,32.820,-0.759,-0.481,-0.201
-305.214,-952.176,33.483,-0.965,-0.596,-0.263
-307.805,-951.510,29.952,-1.391,-0.747,-0.406
-308.162,-954.056,25.186,-1.690,-0.720,-0.594
-309.476,-961.392,24.382,-1.764,-0.574,-0.634
-308.378,-965.265,28.512,-1.577,-0.565,-0.629
-306.853,-962.374,32.412,-1.034,-0.560,-0.631
-306.000,-959.000,33.000,-0.770,-0.630,-0.630
-305.088,-957.035,29.756,-0.949,-0.758,-0.574
-304.863,-959.346,25.418,-1.126,-0.782,-0.495
-305.559,-963.248,26.357,-1.370,-0.706,-0.483
-305.885,-961.633,28.873,-1.513,-0.519,-0.231
-304.068,-965.234,27.209,-1.406,-0.397,0.209
-303.112,-968.768,27.202,-1.096,-0.425,0.157
-306.333,-963.653,28.128,-0.591,-0.338,0.084
-308.997,-962.927,32.558,-0.222,-0.214,0.459
-307.513,-962.327,34.234,-0.281,-0.207,0.781
-305.452,-962.581,28.006,-0.580,-0.215,1.035
-304.969,-965.056,27.304,-0.603,-0.162,1.230
-306.680,-964.777,25.715,-0.554,0.016,1.438
-305.147,-968.292,25.822,-0.377,0.063,1.673
-305.567,-968.430,29.296,0.327,0.087,1.850
-310.000,-962.000,29.000,0.770,0.210,2.100
-308.473,-957.295,27.368,0.720,0.096,2.352
-307.343,-957.297,26.284,0.559,0.002,2.450
-309.954,-959.341,28.391,0.337,-0.029,2.469
-311.291,-959.886,23.332,0.292,-0.096,2.583
-310.824,-959.644,22.168,0.549,-0.047,2.567
-312.634,-956.941,29.589,0.787,-0.099,2.628
-315.143,-951.683,31.904,0.531,-0.299,2.808
-316.054,-950.885,27.410,0.288,-0.545,2.805
-313.576,-950.246,27.261,0.015,-0.631,2.741
-314.533,-944.373,32.351,-0.841,-0.714,2.758
-318.468,-951.662,18.515,-1.599,-1.081,2.769
-310.860,-963.278,15.066,-1.708,-1.150,2.188
-313.567,-957.397,24.783,-1.225,-0.935,1.773
-316.119,-957.816,24.153,-0.785,-1.096,1.717
-309.000,-956.000,31.000,-0.420,-1.260,1.330
-316.838,-945.687,27.725,-0.430,-1.181,1.372
-316.529,-958.541,19.277,-0.649,-1.369,1.284
-310.252,-968.156,21.079,0.257,-1.172,0.723
-310.120,-958.983,29.780,1.118,-0.508,0.501
-312.634,-951.078,44.423,1.122,-0.486,0.648
-319.272,-939.625,49.964,0.482,-0.668,0.999
-319.808,-928.850,39.549,-0.809,-1.100,1.353
-315.481,-944.635,13.983,-2.212,-1.488,1.482
-308.891,-973.604,0.251,-2.952,-0.689,1.015
-308.956,-976.203,18.321,-1.940,0.270,0.332
-313.258,-969.949,37.292,-0.505,0.394,0.209
-311.324,-967.733,34.179,0.553,0.095,0.297
-311.204,-947.625,42.369,1.177,0.486,0.336
-324.431,-922.437,55.976,0.158,0.702,1.165
-329.000,-929.000,33.000,-2.030,-0.350,2.240
-314.525,-958.031,13.415,-4.347,-0.410,2.292
-312.316,-965.589,14.628,-5.288,0.400,2.035
-310.742,-974.522,17.674,-4.498,0.430,2.046
-307.222,-992.260,30.565,-2.948,0.278,1.687
-311.557,-977.721,34.985,-0.981,0.023,1.065
-313.835,-956.038,39.784,0.517,-0.033,1.242
-323.966,-939.542,59.435,0.324,0.046,1.862
-330.205,-924.377,64.035,-1.950,-1.004,2.518
-322.437,-928.675,34.645,-4.455,-2.130,3.617
-313.113,-938.976,-11.959,-5.591,-1.670,4.331
-309.427,-964.491,-33.094,-6.423,-0.325,4.345
-311.747,-994.349,-18.008,-6.682,0.958,3.652
-319.841,-983.609,7.446,-4.294,1.429,2.818
-325.102,-959.076,22.043,-0.724,1.133,2.660
-322.000,-946.000,21.000,0.700,0.840,2.590
-322.599,-940.459,18.990,-0.086,0.642,2.524
-323.467,-949.437,18.486,-1.107,0.674,2.405
-322.745,-958.151,17.570,-0.855,0.683,2.046
-325.976,-960.610,18.198,0.310,0.583,1.785
-328.817,-958.350,15.779,1.324,0.541,1.922
-330.110,-954.152,13.759,1.912,0.487,2.215
-328.805,-950.660,14.135,2.026,0.567,2.155
-326.148,-945.396,17.694,1.788,0.566,1.970
-325.697,-940.818,19.300,1.016,0.502,1.892
-326.925,-939.246,18.933,-0.079,0.409,1.901
-326.393,-944.919,21.073,-1.142,0.285,1.823
-325.626,-949.090,16.017,-2.028,0.288,1.702
-324.992,-949.305,21.304,-2.256,0.279,1.540
-331.904,-932.814,41.381,-2.652,0.260,1.421
-344.000,-909.000,36.000,-4.270,-0.350,2.100
-335.247,-932.566,7.620,-6.641,-1.384,2.639
-315.211,-975.884,-3.571,-8.457,-1.276,1.738
-312.047,-980.193,10.801,-7.960,-0.247,0.628
-321.510,-960.447,24.737,-5.281,0.150,0.385
-329.464,-945.438,22.876,-3.111,-0.281,0.593
-333.654,-942.122,16.969,-3.215,-0.691,0.910
-332.629,-948.842,14.925,-4.416,-0.770,1.049
-324.654,-960.372,14.076,-4.657,-0.712,0.924
-319.763,-963.221,12.558,-3.905,-0.438,0.781
-323.112,-964.436,9.861,-3.107,-0.087,0.834
-326.739,-969.987,8.278,-2.241,0.084,1.016
-326.369,-967.995,7.601,-1.172,0.194,1.056
-324.296,-965.737,7.107,-0.108,0.315,1.176
-322.983,-964.569,9.403,0.744,0.445,1.354
-325.000,-961.000,10.000,1.400,0.630,1.610
-326.977,-960.815,9.067,1.964,0.702,2.098
-326.804,-961.315,7.388,2.289,0.725,2.491
-328.003,-958.686,2.989,2.713,0.930,2.806
-330.263,-951.654,6.028,3.244,1.173,3.103
-332.394,-949.430,15.710,2.705,1.264,3.555
-328.549,-954.845,20.068,1.414,1.051,3.875
-325.090,-951.514,14.341,0.987,0.833,3.689
-330.491,-948.895,6.476,1.304,0.837,3.507
-335.884,-948.309,2.070,1.606,0.884,3.438
-341.214,-941.858,7.084,1.897,1.024,3.484
-343.084,-941.205,17.399,1.572,0.965,3.748
-335.567,-942.619,8.759,0.594,0.581,3.815
-326.952,-949.894,2.207,0.023,0.427,3.294
-326.422,-954.945,8.713,-0.236,0.673,2.744
-329.000,-951.000,7.000,0.000,0.840,2.590
-329.463,-947.086,2.609,0.653,1.215,2.525
-337.199,-937.657,2.267,0.567,2.019,2.517
-349.021,-931.381,23.624,0.031,2.100,2.542
-355.260,-927.910,49.089,-1.058,1.105,2.661
-350.615,-933.006,40.165,-2.861,-0.509,2.569
-336.601,-952.628,6.763,-3.633,-1.571,2.003
-327.819,-965.529,-16.579,-2.371,-0.796,1.119
-333.156,-965.589,-3.144,-0.406,0.749,0.501
-343.663,-951.970,22.542,0.766,1.270,0.729
-344.430,-937.555,28.741,1.116,0.605,1.149
-337.083,-933.436,18.012,0.715,-0.068,1.403
-333.191,-941.529,4.891,-0.089,-0.068,1.453
-338.158,-960.726,4.024,-0.574,0.229,1.267
-343.375,-967.702,8.510,-0.227,0.349,1.097
-343.000,-958.000,10.000,0.980,0.280,1.050
-342.848,-944.633,10.098,1.802,0.230,1.339
-344.400,-939.058,9.219,1.452,-0.026,1.679
-345.236,-944.845,8.569,0.561,-0.344,1.859
-341.470,-952.799,6.953,-0.055,-0.482,1.886
-340.553,-956.650,5.975,-0.074,-0.618,1.933
-344.957,-955.344,7.236,0.424,-0.834,2.152
-347.074,-952.866,5.758,1.017,-1.223,2.321
-347.090,-951.182,3.088,1.376,-1.588,2.446
-345.879,-947.915,2.934,1.729,-1.878,2.406
-347.923,-943.917,3.422,2.062,-2.280,2.322
-349.055,-941.932,5.255,1.993,-2.716,2.281
-347.094,-941.699,6.242,1.498,-3.122,2.211
-347.132,-940.337,7.757,1.100,-3.448,2.130
-346.873,-937.423,10.227,0.872,-3.670,1.832
-346.000,-932.000,11.000,0.560,-3.850,1.470
-345.963,-927.968,15.134,0.049,-3.928,1.113
-345.087,-930.710,19.476,-0.890,-3.781,0.689
-340.639,-933.537,20.542,-1.674,-3.550,0.249
-338.141,-933.995,21.795,-1.875,-3.237,-0.331
-337.629,-935.837,23.946,-1.905,-2.742,-0.893
-337.026,-940.009,26.475,-1.974,-2.274,-1.270
-338.061,-943.105,26.974,-1.867,-1.697,-1.639
-338.016,-943.017,26.960,-1.373,-1.024,-1.943
-338.071,-944.271,27.177,-0.957,-0.530,-2.129
-337.144,-947.190,25.805,-0.817,-0.006,-2.284
-337.700,-947.957,23.491,-0.668,0.524,-2.311
-339.604,-948.128,20.749,-0.473,0.976,-2.323
-340.313,-951.005,18.124,-0.447,1.360,-2.267
-342.205,-953.115,14.403,-0.661,1.566,-1.978
-341.000,-953.000,12.000,-0.700,1.750,-1.680
-339.834,-953.081,11.229,-0.685,1.881,-1.437
-341.032,-951.586,9.420,-0.807,1.938,-1.195
-340.192,-950.382,8.430,-0.936,1.987,-0.948
-340.444,-951.291,7.375,-1.195,1.893,-0.734
-343.078,-949.926,7.050,-1.218,1.786,-0.563
-345.290,-947.544,6.803,-1.011,1.623,-0.382
-344.907,-947.012,6.003,-0.984,1.308,-0.274
-344.015,-947.031,6.937,-1.046,1.129,-0.212
-344.044,-946.259,6.447,-1.065,0.962,-0.296
-343.381,-944.618,4.857,-0.953,0.786,-0.551
-342.260,-942.584,6.382,-0.908,0.758,-0.732
-341.912,-941.383,8.883,-1.070,0.624,-0.956
-341.838,-940.716,8.953,-1.226,0.568,-1.175
-340.915,-939.862,10.317,-1.259,0.636,-1.369
-342.000,-939.000,11.000,-1.260,0.630,-1.680
-343.118,-939.674,10.773,-1.367,0.629,-1.873
-341.533,-941.689,12.207,-1.650,0.667,-1.989
-339.842,-942.185,10.530,-1.911,0.794,-2.115
-337.776,-943.981,10.252,-2.019,0.870,-2.259
-336.712,-944.774,8.859,-2.297,0.954,-2.427
-335.592,-945.513,5.584,-2.450,1.072,-2.343
-335.123,-950.416,6.040,-2.379,1.122,-2.322
-337.880,-953.888,5.102,-2.448,1.122,-2.574
-336.694,-954.792,4.881,-2.311,1.111,-2.620
-335.234,-955.517,4.581,-1.973,1.142,-2.484
-337.020,-956.379,3.332,-1.530,1.042,-2.417
-336.525,-956.839,2.408,-1.062,0.953,-2.331
-337.617,-955.199,0.575,-0.756,0.876,-2.201
-339.073,-952.697,1.224,-0.539,0.754,-2.079
-339.000,-952.000,2.000,-0.560,0.630,-1.890
-338.267,-952.788,1.986,-0.629,0.442,-1.700
-336.830,-954.485,1.975,-0.630,0.326,-1.584
-338.318,-954.862,2.483,-0.579,0.143,-1.417
-338.426,-952.451,3.271,-0.380,0.034,-1.219
-336.357,-954.451,2.810,-0.403,-0.052,-0.920
-337.420,-958.199,3.114,-0.581,-0.252,-0.662
-337.908,-954.676,2.962,-0.392,-0.355,-0.545
-335.247,-954.694,2.962,-0.080,-0.416,-0.174
-333.028,-957.994,3.109,-0.077,-0.471,0.125
-334.081,-956.033,2.822,0.151,-0.553,0.163
-335.873,-952.837,3.232,0.605,-0.544,0.330
-335.550,-949.267,2.707,0.514,-0.619,0.473
-334.962,-949.580,3.405,0.199,-0.700,0.608
-336.286,-950.916,3.922,0.058,-0.623,0.704
-337.000,-949.000,3.000,0.070,-0.700,0.700
-335.194,-949.764,2.999,0.140,-0.769,0.765
-335.444,-949.677,2.901,0.123,-0.770,0.727
-336.507,-947.678,3.617,0.232,-0.768,0.681
-334.752,-948.481,4.105,0.270,-0.778,0.720
-334.042,-948.606,3.987,0.195,-0.747,0.663
-335.177,-947.852,3.961,0.327,-0.696,0.527
-334.974,-948.047,4.048,0.497,-0.698,0.414
-335.849,-948.918,4.957,0.494,-0.634,0.354
-337.143,-949.886,4.992,0.521,-0.629,0.293
-335.553,-949.448,5.584,0.719,-0.593,0.240
-334.689,-947.626,6.233,0.786,-0.517,0.139
-335.083,-946.513,5.829,0.755,-0.463,0.027
-334.813,-947.392,6.129,0.651,-0.405,-0.002
-333.815,-949.296,5.890,0.467,-0.333,0.001
-333.000,-951.000,5.000,0.420,-0.210,-0.000
-333.044,-952.769,4.139,0.579,-0.151,-0.056
-332.257,-953.242,3.235,0.992,-0.036,-0.166
-332.095,-952.526,2.781,1.342,0.019,-0.308
-334.398,-952.971,3.523,1.654,-0.011,-0.358
-336.408,-950.552,4.055,2.007,-0.004,-0.361
-335.700,-948.888,4.088,2.101,-0.094,-0.432
-336.187,-947.757,5.081,2.102,-0.141,-0.418
-339.741,-943.269,5.918,2.106,-0.199,-0.481
-341.865,-942.533,7.584,1.868,-0.378,-0.520
-341.569,-944.312,8.404,1.210,-0.527,-0.338
-339.693,-945.748,7.231,0.506,-0.597,-0.237
-338.620,-947.712,7.048,0.168,-0.663,-0.166
-337.427,-949.465,6.922,0.034,-0.704,-0.021
-335.913,-951.288,7.056,-0.089,-0.703,0.173
-336.000,-953.000,7.000,-0.140,-0.770,0.350
-334.258,-953.949,6.886,0.031,-0.780,0.463
-334.319,-953.986,7.839,0.279,-0.710,0.698
-335.997,-953.850,8.003,0.517,-0.699,0.869
-335.661,-953.782,8.090,0.741,-0.698,0.989
-336.359,-953.648,7.723,0.911,-0.705,1.184
-337.101,-951.094,6.850,1.194,-0.690,1.168
-338.113,-947.863,7.078,1.405,-0.626,1.122
-339.013,-947.079,8.855,1.281,-0.626,1.186
-338.234,-945.365,9.387,0.975,-0.691,1.197
-337.216,-944.174,7.352,0.752,-0.703,1.121
-337.029,-942.766,7.375,0.610,-0.701,0.898
-339.023,-941.518,8.381,0.355,-0.681,0.694
-339.906,-942.099,9.388,0.054,-0.613,0.606
-338.888,-942.002,9.935,-0.170,-0.641,0.459
-339.000,-943.000,9.000,-0.350,-0.700,0.210
-339.060,-944.693,9.040,-0.535,-0.702,0.018
-338.350,-947.135,8.192,-0.602,-0.658,-0.094
-337.148,-949.006,8.474,-0.367,-0.572,-0.269
-337.203,-947.631,8.919,-0.053,-0.567,-0.422
-338.392,-945.001,7.579,0.118,-0.536,-0.536
-339.069,-945.238,8.305,0.124,-0.486,-0.651
-338.967,-946.005,9.012,-0.010,-0.488,-0.704
-338.106,-945.976,9.011,-0.070,-0.426,-0.825
-336.376,-946.107,8.881,-0.064,-0.364,-1.017
-335.568,-945.903,9.940,-0.139,-0.296,-1.109
-336.466,-949.339,8.055,-0.368,-0.282,-1.144
-334.813,-950.393,3.498,-0.510,-0.242,-1.246
-334.504,-947.040,8.425,-0.239,-0.108,-1.353
-338.629,-947.241,13.051,-0.081,-0.158,-1.311
-340.000,-948.000,10.000,-0.420,-0.210,-1.120
-338.266,-948.578,8.166,-0.808,-0.144,-0.986
-337.065,-952.643,7.080,-0.837,-0.145,-0.981
-337.065,-955.276,7.603,-0.561,-0.099,-0.950
-336.178,-953.620,7.775,-0.278,-0.060,-0.850
-334.469,-952.855,6.730,-0.063,-0.073,-0.719
-335.407,-952.710,7.129,0.106,-0.074,-0.606
-337.088,-950.904,6.944,0.213,-0.148,-0.478
-337.101,-950.953,6.057,0.149,-0.209,-0.354
-335.251,-951.078,5.871,0.113,-0.206,-0.349
-335.816,-950.382,6.263,0.253,-0.251,-0.311
-338.163,-948.241,5.238,0.281,-0.321,-0.259
-337.272,-946.303,5.354,0.278,-0.373,-0.311
-337.126,-947.274,6.046,0.150,-0.449,-0.367
-336.859,-946.845,6.098,-0.014,-0.582,-0.427
-337.000,-947.000,7.000,-0.070,-0.700,-0.420
-338.936,-948.761,6.126,-0.194,-0.760,-0.413
-337.701,-949.872,6.528,-0.267,-0.827,-0.474
-336.023,-949.427,7.396,-0.272,-0.841,-0.529
-335.971,-948.387,6.387,-0.108,-0.863,-0.583
-335.892,-949.371,5.893,-0.114,-0.928,-0.527
-336.110,-949.919,6.214,-0.203,-0.899,-0.492
-337.059,-950.086,8.162,-0.063,-0.915,-0.485
-336.194,-951.871,9.038,-0.131,-0.978,-0.360
-334.042,-952.920,8.163,-0.110,-0.984,-0.286
-334.735,-952.464,7.847,0.044,-0.943,-0.244
-334.464,-950.534,8.503,0.102,-0.862,-0.137
-333.859,-949.720,9.219,0.161,-0.824,-0.025
-333.897,-949.918,8.748,0.118,-0.739,-0.002
-334.211,-950.173,7.900,0.065,-0.702,0.006
-336.000,-952.000,8.000,0.070,-0.700,0.070
-335.178,-951.334,8.965,0.184,-0.634,0.133
-335.413,-949.379,8.305,0.329,-0.637,0.149
-336.854,-947.768,8.241,0.335,-0.584,0.127
-336.895,-945.924,9.551,0.185,-0.559,0.161
-336.819,-946.174,8.339,0.011,-0.541,0.096
-335.682,-947.066,8.237,-0.088,-0.484,-0.018
-334.985,-946.984,8.975,-0.143,-0.488,-0.077
-334.990,-946.963,8.039,-0.143,-0.424,-0.200
-335.075,-948.408,8.078,-0.042,-0.421,-0.317
-334.251,-950.156,6.764,0.150,-0.342,-0.491
-334.132,-947.860,5.795,0.285,-0.237,-0.641
-335.582,-944.779,8.498,0.395,-0.333,-0.759
-336.077,-945.312,10.103,0.266,-0.337,-0.856
-337.253,-946.097,8.693,-0.127,-0.366,-0.835
-338.000,-948.000,7.000,-0.350,-0.490,-0.840
-337.070,-951.611,6.873,-0.423,-0.496,-0.841
-337.083,-952.362,7.824,-0.288,-0.480,-0.844
-335.895,-951.014,8.043,-0.081,-0.533,-0.779
-334.425,-950.789,8.037,-0.121,-0.572,-0.598
-335.358,-950.974,7.766,-0.265,-0.552,-0.423
-334.590,-952.325,6.843,-0.365,-0.566,-0.242
-334.097,-952.993,7.040,-0.344,-0.558,-0.134
-335.938,-952.965,7.036,-0.222,-0.556,-0.013
-335.285,-953.199,6.896,-0.047,-0.620,0.127
-334.783,-951.457,7.170,0.150,-0.635,0.142
-334.679,-950.322,6.761,0.269,-0.625,0.146
-333.501,-948.800,7.308,0.261,-0.649,0.115
-334.444,-946.467,6.561,0.193,-0.719,0.057
-334.918,-947.219,6.117,0.223,-0.687,-0.024
-334.000,-947.000,7.000,0.280,-0.630,-0.280
-333.971,-945.123,6.063,0.218,-0.637,-0.414
-333.992,-944.936,6.717,0.212,-0.567,-0.535
-334.034,-945.139,6.626,0.140,-0.600,-0.868
-333.446,-946.955,5.932,0.048,-0.619,-1.067
-333.151,-947.790,7.735,0.216,-0.533,-1.293
-335.575,-946.696,7.793,0.281,-0.586,-1.502
-335.906,-945.963,6.971,0.361,-0.707,-1.623
-334.991,-945.936,6.974,0.366,-0.767,-1.810
-335.147,-947.546,7.745,0.108,-0.824,-1.880
-334.172,-948.701,8.318,-0.001,-0.858,-1.941
-333.608,-949.162,7.221,-0.245,-0.813,-1.962
-332.375,-950.390,7.468,-0.341,-0.890,-1.970
-333.797,-951.088,9.742,-0.303,-0.878,-1.925
-334.792,-952.311,11.039,-0.613,-0.765,-1.714
-332.000,-955.000,10.000,-0.770,-0.840,-1.470
-331.909,-956.914,8.975,-0.660,-0.790,-1.161
-331.425,-956.389,9.733,-0.423,-0.705,-0.962
-330.642,-955.481,10.149,-0.243,-0.672,-0.726
-331.143,-956.203,9.876,-0.178,-0.584,-0.375
-330.809,-955.153,10.121,-0.122,-0.547,-0.119
-331.065,-953.740,9.829,-0.037,-0.469,0.124
-330.980,-952.938,8.955,0.151,-0.418,0.289
-330.974,-952.913,8.972,0.147,-0.357,0.409
-331.696,-954.062,9.095,0.120,-0.285,0.538
-332.874,-952.084,8.393,0.205,-0.281,0.612
-332.376,-949.367,7.375,0.198,-0.277,0.643
-332.120,-948.506,6.899,0.242,-0.282,0.603
-333.185,-947.637,7.027,0.278,-0.285,0.545
-332.999,-946.945,7.040,0.191,-0.367,0.471
-334.000,-947.000,8.000,0.070,-0.420,0.280
-334.115,-947.042,8.172,0.010,-0.411,0.149
-333.847,-946.829,7.064,-0.095,-0.522,0.060
-333.729,-947.539,7.166,-0.205,-0.613,-0.150
-332.008,-947.508,6.414,-0.204,-0.639,-0.236
-332.358,-946.747,6.181,-0.209,-0.618,-0.342
-332.990,-948.431,7.140,-0.105,-0.652,-0.520
-333.034,-948.955,6.977,0.003,-0.777,-0.562
-333.072,-948.895,6.993,0.001,-0.774,-0.623
-332.001,-950.764,6.957,-0.047,-0.757,-0.692
-332.714,-950.307,7.609,-0.136,-0.828,-0.708
-332.442,-949.934,8.222,-0.122,-0.815,-0.686
-332.314,-951.312,7.828,-0.196,-0.745,-0.735
-334.419,-950.625,8.140,-0.294,-0.798,-0.762
-332.499,-951.248,7.873,-0.278,-0.836,-0.693
-331.000,-952.000,7.000,-0.280,-0.770,-0.700
-331.967,-951.844,6.940,-0.221,-0.767,-0.643
-331.884,-952.456,7.638,-0.163,-0.773,-0.614
-332.226,-950.126,8.800,-0.056,-0.770,-0.650
-331.211,-950.750,8.684,0.026,-0.765,-0.589
-331.294,-951.705,7.758,-0.028,-0.788,-0.558
-331.905,-951.098,8.124,-0.076,-0.849,-0.555
-330.983,-953.092,7.959,-0.067,-0.838,-0.481
-331.927,-951.268,7.956,-0.005,-0.838,-0.358
-331.446,-949.637,8.150,0.013,-0.844,-0.290
-329.883,-951.471,7.687,-0.088,-0.835,-0.236
-330.559,-951.758,8.819,-0.180,-0.845,-0.175
-330.768,-952.214,8.568,-0.070,-0.836,-0.090
-329.701,-952.985,8.105,0.003,-0.843,0.024
-330.189,-951.755,9.106,0.007,-0.839,-0.011
-331.000,-951.000,9.000,0.070,-0.840,-0.000
-330.949,-951.076,8.980,0.010,-0.841,0.070
-331.166,-950.200,9.001,-0.005,-0.841,0.061
-330.538,-949.742,9.036,-0.031,-0.811,0.093
-332.104,-949.825,8.912,-0.091,-0.723,-0.001
-332.584,-949.862,9.136,-0.054,-0.701,-0.081
-330.776,-949.945,8.791,-0.085,-0.697,-0.075
-332.145,-950.029,7.980,-0.143,-0.702,-0.146
-332.135,-950.062,8.014,-0.143,-0.704,-0.205
-330.886,-949.034,7.864,-0.083,-0.640,-0.273
-331.816,-949.521,8.833,-0.061,-0.626,-0.274
-331.418,-949.499,8.535,-0.078,-0.630,-0.343
-331.058,-948.701,7.917,-0.061,-0.632,-0.452
-332.282,-950.700,7.811,-0.085,-0.625,-0.399
-331.873,-952.083,6.984,-0.148,-0.637,-0.435
-332.000,-952.000,8.000,-0.140,-0.700,-0.490
-332.166,-951.127,7.268,-0.073,-0.703,-0.428
-331.049,-950.840,6.605,-0.113,-0.697,-0.413
-331.097,-950.985,7.898,-0.187,-0.702,-0.429
-330.617,-950.614,7.859,-0.242,-0.699,-0.391
-331.511,-951.175,8.197,-0.291,-0.699,-0.333
-331.770,-952.105,7.746,-0.276,-0.701,-0.367
-331.042,-951.945,7.011,-0.280,-0.699,-0.420
-332.023,-951.035,7.927,-0.218,-0.698,-0.356
-330.344,-951.633,8.156,-0.142,-0.709,-0.334
-330.344,-952.314,7.295,-0.148,-0.645,-0.412
-331.197,-950.552,6.801,-0.106,-0.655,-0.390
-331.088,-949.689,7.397,-0.040,-0.718,-0.332
-332.122,-949.999,8.127,0.012,-0.690,-0.370
-330.761,-950.009,7.957,-0.008,-0.705,-0.424
-331.000,-950.000,8.000,-0.070,-0.700,-0.420
-331.204,-949.959,8.032,-0.129,-0.692,-0.473
-330.024,-950.075,7.944,-0.194,-0.757,-0.558
-330.057,-949.658,8.060,-0.249,-0.774,-0.547
-329.807,-950.212,7.979,-0.312,-0.771,-0.601
-329.814,-951.488,7.727,-0.392,-0.758,-0.624
-327.162,-954.696,5.406,-0.490,-0.675,-0.656
-326.185,-953.609,6.355,-0.089,-0.550,-0.852
-331.531,-947.319,12.636,0.416,-0.486,-0.790
-335.178,-947.129,13.044,0.022,-0.649,-0.525
-331.913,-951.166,8.162,-0.548,-0.758,-0.472
-328.241,-955.366,6.577,-0.616,-0.558,-0.503
-330.274,-956.823,7.295,-0.312,-0.502,-0.479
-330.506,-953.763,6.642,0.112,-0.570,-0.501
-328.968,-950.656,6.035,0.193,-0.562,-0.477
-330.000,-950.000,7.000,-0.070,-0.630,-0.350
-330.032,-951.714,7.084,-0.329,-0.636,-0.285
-330.035,-952.845,6.837,-0.368,-0.621,-0.234
-329.735,-953.348,7.617,-0.306,-0.640,-0.162
-330.602,-954.087,8.206,-0.250,-0.617,-0.114
-330.485,-953.482,7.663,-0.177,-0.654,-0.039
-328.740,-952.832,6.909,-0.030,-0.706,0.003
-329.039,-951.895,7.012,0.069,-0.699,0.001
-328.997,-950.129,6.989,-0.058,-0.699,0.063
-329.776,-949.639,7.730,-0.145,-0.703,0.137
-329.605,-951.441,8.320,-0.094,-0.696,0.102
-328.336,-951.450,7.254,-0.037,-0.706,0.027
-329.961,-950.630,7.258,0.048,-0.691,-0.024
-330.941,-950.943,8.225,0.170,-0.717,-0.092
-329.894,-949.773,7.843,0.118,-0.775,-0.148
-331.000,-949.000,7.000,0.000,-0.770,-0.210
-332.188,-949.001,7.825,0.006,-0.768,-0.273
-329.714,-948.943,8.207,-0.098,-0.773,-0.323
-328.591,-949.249,7.752,-0.193,-0.764,-0.435
-329.107,-950.495,8.298,-0.239,-0.796,-0.533
-329.021,-950.770,7.540,-0.293,-0.858,-0.579
-330.269,-951.178,7.009,-0.271,-0.823,-0.642
-329.891,-952.021,6.970,-0.202,-0.769,-0.625
-328.977,-951.970,6.938,-0.077,-0.770,-0.562
-329.861,-952.855,7.919,-0.061,-0.767,-0.561
-329.490,-952.339,7.883,-0.076,-0.780,-0.523
-328.471,-951.508,8.625,-0.088,-0.730,-0.441
-329.669,-952.041,8.780,-0.187,-0.692,-0.420
-329.560,-951.822,7.806,-0.198,-0.702,-0.409
-327.902,-952.121,8.060,-0.132,-0.700,-0.342
-329.000,-953.000,8.000,-0.140,-0.700,-0.350
-329.145,-953.892,7.967,-0.207,-0.697,-0.303
-328.757,-953.596,8.083,-0.167,-0.710,-0.158
-329.276,-951.279,7.488,-0.093,-0.654,-0.144
-328.260,-951.100,6.655,-0.036,-0.626,-0.108
-328.128,-952.052,7.498,0.000,-0.626,-0.064
-329.263,-951.902,7.877,-0.098,-0.643,-0.065
-330.008,-952.022,6.963,-0.137,-0.701,0.007
-329.104,-952.015,7.000,-0.075,-0.636,0.068
-328.729,-951.983,6.905,-0.014,-0.620,0.072
-329.856,-951.347,7.762,0.019,-0.640,0.069
-329.802,-950.347,7.645,-0.051,-0.621,0.050
-330.152,-951.557,6.748,-0.050,-0.635,-0.048
-329.748,-951.565,7.118,0.011,-0.634,-0.061
-330.233,-949.838,6.959,-0.002,-0.716,-0.085
-331.000,-950.000,7.000,-0.000,-0.770,-0.210
-329.188,-950.041,6.999,-0.059,-0.768,-0.212
-328.934,-949.906,7.083,-0.080,-0.775,-0.251
-328.815,-950.267,6.373,-0.086,-0.762,-0.330
-329.514,-951.524,6.179,-0.203,-0.779,-0.377
-329.700,-951.571,7.342,-0.183,-0.761,-0.447
-329.020,-950.968,6.800,-0.139,-0.777,-0.499
-330.042,-952.110,7.089,-0.139,-0.767,-0.485
-329.113,-952.972,7.985,-0.137,-0.765,-0.422
-328.753,-953.086,7.975,-0.153,-0.839,-0.423
-329.746,-952.108,8.067,-0.076,-0.793,-0.374
-330.046,-952.119,7.899,-0.110,-0.763,-0.344
-329.599,-952.959,8.113,-0.126,-0.770,-0.333
-328.838,-951.325,7.888,-0.057,-0.774,-0.266
-329.050,-951.182,8.083,-0.073,-0.763,-0.282
-329.000,-952.000,8.000,-0.070,-0.700,-0.210
-328.975,-951.048,7.014,-0.130,-0.698,-0.138
-329.022,-951.626,7.706,-0.150,-0.700,-0.152
-328.923,-952.107,8.149,-0.133,-0.702,-0.092
-328.926,-951.248,7.915,-0.142,-0.694,-0.066
-328.978,-950.907,8.037,-0.155,-0.710,-0.070
-328.941,-952.287,7.991,-0.217,-0.684,-0.072
-329.051,-951.853,7.997,-0.130,-0.631,-0.069
-329.966,-950.036,7.988,-0.069,-0.696,-0.067
-329.366,-950.746,8.092,-0.078,-0.704,-0.127
-327.984,-950.967,7.311,-0.056,-0.703,-0.149
-328.449,-950.802,6.889,-0.090,-0.664,-0.131
-328.883,-950.525,6.995,-0.043,-0.635,-0.160
-327.593,-949.842,7.183,-0.112,-0.724,-0.236
-328.273,-949.968,8.053,-0.215,-0.686,-0.278
-329.000,-949.000,7.000,-0.210,-0.630,-0.210
-327.917,-950.473,6.783,-0.274,-0.635,-0.258
-329.595,-952.974,8.036,-0.279,-0.577,-0.358
-329.504,-952.457,7.334,-0.296,-0.550,-0.298
-329.079,-953.681,6.954,-0.199,-0.568,-0.286
-330.085,-953.168,6.959,-0.015,-0.553,-0.257
-328.628,-951.975,7.073,-0.007,-0.565,-0.207
-329.134,-953.042,6.939,0.002,-0.558,-0.208
-330.042,-952.108,6.019,0.003,-0.556,-0.144
-329.110,-951.788,6.716,-0.054,-0.623,-0.137
-328.943,-952.102,7.305,-0.122,-0.625,-0.108
-328.864,-951.457,6.293,-0.147,-0.667,-0.017
-329.080,-952.468,6.203,-0.138,-0.705,0.000
-328.709,-952.642,7.282,-0.131,-0.711,0.001
-328.007,-950.787,6.803,-0.060,-0.777,-0.001
-329.000,-951.000,6.000,-0.070,-0.770,-0.000
-329.068,-951.122,6.902,-0.136,-0.825,-0.000
-329.475,-950.702,6.974,-0.143,-0.863,0.003
-330.550,-951.681,7.608,-0.112,-0.778,-0.032
-328.664,-951.398,7.773,-0.019,-0.799,-0.113
-328.159,-950.679,6.890,-0.017,-0.850,-0.145
-329.075,-951.128,8.351,-0.079,-0.836,-0.137
-329.010,-952.068,7.888,-0.067,-0.841,-0.142
-329.051,-952.063,7.868,-0.006,-0.841,-0.205
-328.067,-951.768,9.135,0.066,-0.835,-0.220
-328.562,-952.339,8.089,0.030,-0.853,-0.193
-329.025,-950.320,8.253,-0.016,-0.794,-0.255
-329.208,-950.503,7.359,0.002,-0.786,-0.283
-330.068,-952.023,7.292,-0.121,-0.846,-0.281
-328.731,-950.920,7.930,-0.209,-0.750,-0.278
-328.000,-952.000,7.000,-0.140,-0.700,-0.280
-328.050,-951.292,7.866,-0.136,-0.705,-0.285
-327.849,-950.537,8.050,-0.144,-0.688,-0.230
-328.569,-951.832,8.108,-0.140,-0.722,-0.167
-329.075,-951.244,7.450,-0.118,-0.650,-0.123
-328.853,-950.966,7.201,-0.050,-0.653,-0.159
-329.060,-952.271,8.023,-0.083,-0.697,-0.113
-328.972,-953.028,6.918,-0.064,-0.626,0.004
-328.958,-953.031,6.953,-0.000,-0.628,-0.000
-329.220,-952.223,7.077,-0.009,-0.629,0.053
-327.506,-951.558,6.976,0.058,-0.670,0.083
-327.036,-952.493,6.626,0.039,-0.718,0.061
-328.822,-952.810,5.700,0.001,-0.685,0.075
-330.426,-953.080,6.202,0.110,-0.717,0.075
-330.907,-952.864,5.872,0.228,-0.780,0.156
-329.000,-952.000,6.000,0.350,-0.840,0.210
-327.980,-952.077,7.860,0.362,-0.842,0.152
-328.043,-950.607,7.399,0.286,-0.877,0.086
-328.260,-948.971,7.142,0.290,-0.973,0.031
-329.710,-948.769,8.659,0.229,-0.969,-0.037
-329.832,-948.925,7.235,0.088,-1.006,-0.087
-330.135,-948.802,7.316,-0.028,-1.053,-0.165
-329.911,-947.993,7.953,-0.146,-1.051,-0.288
-328.982,-948.921,7.868,-0.142,-1.053,-0.347
-329.888,-949.058,9.937,-0.226,-0.987,-0.406
-329.373,-949.709,8.662,-0.452,-1.020,-0.431
-328.778,-952.498,7.897,-0.494,-1.043,-0.409
-328.768,-952.156,7.591,-0.486,-0.927,-0.430
-327.714,-950.686,7.248,-0.361,-0.919,-0.412
-328.154,-951.113,9.220,-0.196,-0.900,-0.425
-329.000,-951.000,9.000,-0.210,-0.840,-0.420
-329.915,-949.284,8.959,-0.325,-0.840,-0.354
-329.411,-947.964,8.927,-0.501,-0.840,-0.354
-329.023,-948.779,9.743,-0.763,-0.815,-0.310
-330.498,-950.754,9.080,-1.247,-0.715,-0.269
-327.253,-950.317,6.169,-1.384,-0.714,-0.285
-326.486,-948.644,7.625,-1.367,-0.673,-0.279
-329.032,-949.199,8.989,-1.783,-0.558,-0.278
-327.132,-953.635,8.092,-1.964,-0.625,-0.215
-327.566,-956.148,6.477,-1.814,-0.586,-0.200
-328.272,-954.911,4.939,-1.410,-0.535,-0.224
-328.015,-954.798,5.634,-0.877,-0.584,-0.191
-329.542,-952.171,5.825,-0.603,-0.535,-0.246
-328.389,-949.327,4.625,-0.455,-0.590,-0.280
-328.229,-947.728,3.948,-0.521,-0.626,-0.286
-330.000,-947.000,4.000,-0.840,-0.630,-0.350
-329.232,-948.792,4.863,-1.260,-0.757,-0.354
-328.150,-949.548,5.159,-1.672,-0.775,-0.341
-327.424,-951.708,4.818,-1.794,-0.800,-0.390
-326.608,-953.083,5.022,-1.683,-0.861,-0.435
-327.392,-953.139,2.950,-1.539,-0.825,-0.406
-327.995,-955.340,2.325,-1.149,-0.850,-0.436
-328.044,-953.725,5.171,-0.750,-0.836,-0.491
-328.953,-950.205,5.119,-0.573,-0.833,-0.488
-329.013,-948.249,4.027,-0.420,-0.955,-0.548
-329.454,-947.580,4.050,-0.606,-1.033,-0.563
-330.388,-948.689,3.930,-1.023,-1.064,-0.585
-328.889,-950.832,4.070,-1.307,-1.019,-0.665
-326.342,-952.101,3.936,-1.530,-0.974,-0.717
-326.101,-952.021,4.050,-1.610,-0.981,-0.776
-326.000,-953.000,4.000,-1.540,-0.980,-0.770
-324.116,-954.713,3.061,-1.367,-0.929,-0.824
-325.157,-956.026,3.627,-1.081,-0.794,-0.903
-327.096,-955.126,3.913,-0.759,-0.766,-0.913
-326.294,-954.914,1.952,-0.496,-0.746,-0.886
-326.118,-954.251,2.575,-0.265,-0.686,-0.824
-327.245,-952.862,2.747,-0.119,-0.705,-0.843
-328.055,-952.890,2.069,-0.067,-0.700,-0.760
-328.927,-948.398,3.924,-0.122,-0.761,-0.700
-329.263,-947.649,3.275,-0.560,-0.841,-0.612
-327.044,-953.445,3.362,-1.117,-0.796,-0.398
-324.897,-951.813,4.412,-1.403,-0.734,-0.217
-325.341,-952.721,3.716,-1.504,-0.664,0.389
-326.235,-961.194,4.091,-1.552,-0.636,0.568
-327.114,-960.124,2.675,-1.420,-0.707,0.084
-327.000,-955.000,2.000,-0.840,-0.630,0.140
-326.116,-954.974,3.016,-0.432,-0.551,0.281
-325.245,-953.729,2.219,-0.433,-0.633,0.309
-325.113,-951.799,1.994,-0.360,-0.547,0.427
-326.918,-952.085,1.636,-0.370,-0.473,0.364
-326.400,-951.085,0.787,-0.296,-0.484,0.227
-326.289,-948.424,1.118,-0.215,-0.402,0.128
-328.058,-948.075,0.940,-0.364,-0.428,0.140
-327.113,-948.974,0.044,-0.543,-0.551,0.018
-326.753,-949.591,-0.057,-0.793,-0.626,-0.183
-327.773,-951.425,0.058,-0.881,-0.625,-0.289
-327.920,-951.553,-0.060,-0.732,-0.662,-0.472
-328.187,-950.197,0.056,-0.564,-0.727,-0.604
-329.286,-950.263,-0.048,-0.603,-0.800,-0.633
-328.753,-953.671,0.031,-0.789,-0.927,-0.632
-327.000,-956.000,0.000,-0.700,-0.980,-0.700
-326.888,-954.180,-0.052,-0.337,-1.034,-0.772
-327.776,-954.016,0.143,-0.080,-1.156,-0.719
-327.730,-953.078,-0.333,-0.116,-1.242,-0.664
-325.963,-953.512,1.059,-0.149,-1.280,-0.569
-326.518,-955.159,1.797,-0.301,-1.380,-0.445
-326.587,-955.056,-0.453,-0.509,-1.479,-0.318
-323.879,-957.177,0.164,-0.328,-1.388,-0.205
-324.831,-957.165,1.929,-0.083,-1.265,-0.148
-326.027,-955.188,2.771,0.055,-1.253,0.024
-325.864,-954.305,3.278,0.044,-1.274,0.177
-325.973,-953.284,2.610,-0.055,-1.196,0.276
-326.015,-954.890,3.687,-0.074,-1.073,0.397
-325.619,-955.646,3.704,-0.045,-1.038,0.427
-323.868,-952.504,3.059,0.183,-0.874,0.503
-326.000,-951.000,4.000,0.350,-0.700,0.490
-328.127,-950.192,3.166,0.295,-0.704,0.419
-326.379,-949.639,2.885,0.181,-0.604,0.435
-325.837,-950.755,2.682,0.071,-0.506,0.341
-326.098,-950.298,1.267,0.121,-0.445,0.214
-327.955,-949.824,1.039,0.258,-0.298,0.101
-330.239,-949.859,0.937,0.259,-0.289,0.068
-328.800,-948.932,1.047,0.051,-0.274,-0.011
-327.018,-948.071,1.944,-0.132,-0.211,-0.136
-327.761,-947.732,2.100,-0.244,-0.216,-0.181
-328.115,-949.268,1.842,-0.395,-0.162,-0.358
-327.816,-950.275,2.280,-0.418,-0.129,-0.466
-327.850,-951.648,1.239,-0.445,-0.159,-0.526
-326.471,-953.192,-0.258,-0.498,-0.237,-0.549
-326.103,-952.923,0.081,-0.486,-0.281,-0.491
-327.000,-952.000,0.000,-0.420,-0.280,-0.630
-327.778,-950.867,-0.048,-0.341,-0.339,-0.710
-329.053,-953.223,0.078,-0.506,-0.401,-0.595
-327.803,-953.806,-0.092,-0.540,-0.464,-0.533
-326.550,-951.912,0.092,-0.271,-0.518,-0.609
-327.357,-951.930,-0.080,-0.240,-0.589,-0.613
-328.014,-952.019,0.055,-0.376,-0.638,-0.553
-326.861,-953.090,-0.021,-0.421,-0.708,-0.561
-325.949,-953.062,-0.023,-0.422,-0.771,-0.560
-327.006,-953.427,0.080,-0.368,-0.712,-0.566
-325.688,-955.660,-0.173,-0.301,-0.696,-0.515
-324.583,-955.177,0.568,-0.226,-0.697,-0.457
-325.145,-955.128,1.149,-0.048,-0.708,-0.381
-324.878,-955.967,0.799,0.108,-0.681,-0.353
-325.051,-954.841,-0.117,0.234,-0.627,-0.341
-325.000,-955.000,0.000,0.420,-0.630,-0.280
-324.919,-954.344,0.111,0.602,-0.569,-0.344
-325.749,-952.171,-0.285,0.757,-0.551,-0.303
-326.057,-952.384,0.908,0.707,-0.592,-0.299
-326.106,-952.672,0.457,0.568,-0.680,-0.381
-327.414,-951.303,0.193,0.570,-0.680,-0.326
-326.556,-950.962,1.105,0.545,-0.631,-0.372
-326.114,-951.022,1.014,0.404,-0.705,-0.418
-327.965,-951.903,1.922,0.157,-0.703,-0.354
-327.149,-952.864,2.165,0.055,-0.690,-0.343
-327.545,-953.391,1.298,0.138,-0.749,-0.364
-327.688,-954.499,0.781,0.096,-0.783,-0.288
-326.638,-954.889,1.436,0.088,-0.755,-0.145
-327.043,-954.843,2.083,0.143,-0.794,-0.046
-325.714,-953.838,1.988,0.055,-0.837,0.006
-325.000,-954.000,2.000,0.070,-0.770,0.070
-325.941,-955.007,2.005,0.143,-0.770,0.192
-325.398,-954.275,1.467,0.115,-0.725,0.272
-324.566,-953.283,0.034,0.295,-0.680,0.282
-325.586,-952.186,0.538,0.504,-0.737,0.279
-325.939,-951.863,0.966,0.454,-0.779,0.281
-325.973,-951.836,1.204,0.424,-0.763,0.280
-324.878,-950.956,1.991,0.414,-0.774,0.279
-324.841,-950.970,1.059,0.289,-0.838,0.217
-326.927,-951.687,0.970,0.217,-0.837,0.146
-326.164,-952.769,0.890,0.197,-0.886,0.110
-326.149,-952.292,1.633,0.294,-0.919,-0.015
-325.075,-951.729,1.716,0.527,-0.910,-0.094
-324.016,-951.953,1.025,0.660,-0.897,-0.176
-325.131,-952.074,2.093,0.795,-0.836,-0.293
-326.000,-952.000,1.000,0.910,-0.910,-0.350
-327.921,-949.351,0.792,0.961,-0.980,-0.468
-327.143,-948.672,1.944,1.104,-0.973,-0.597
-328.054,-949.083,1.937,1.034,-1.017,-0.684
-328.617,-948.618,2.062,0.763,-1.089,-0.717
-326.280,-948.924,2.082,0.552,-1.125,-0.815
-327.339,-949.095,3.378,0.272,-1.125,-0.820
-326.875,-951.215,3.958,-0.097,-1.196,-0.694
-325.989,-952.960,3.032,-0.341,-1.196,-0.699
-326.069,-953.623,3.642,-0.407,-1.124,-0.656
-325.868,-955.280,4.942,-0.477,-1.126,-0.537
-325.693,-956.441,4.528,-0.447,-1.087,-0.414
-324.272,-956.778,3.813,-0.256,-1.022,-0.297
-324.027,-955.446,4.098,-0.099,-0.959,-0.168
-324.003,-955.075,3.955,0.015,-0.904,-0.055
-325.000,-955.000,4.000,0.070,-0.840,0.070
-325.291,-953.991,4.052,0.070,-0.714,0.203
-323.095,-954.233,3.855,0.073,-0.690,0.205
-324.496,-952.517,4.630,0.041,-0.682,0.255
-326.622,-951.689,5.156,-0.066,-0.570,0.284
-325.442,-951.629,4.765,-0.174,-0.586,0.286
-326.441,-950.854,3.724,-0.219,-0.626,0.267
-326.893,-951.031,2.987,-0.287,-0.555,0.207
-325.054,-951.869,3.025,-0.349,-0.557,0.149
-325.724,-953.800,2.200,-0.308,-0.567,0.014
-326.086,-952.843,1.889,-0.147,-0.547,0.008
-326.193,-950.763,1.764,0.030,-0.599,-0.070
-327.525,-951.231,0.320,0.073,-0.650,-0.159
-328.152,-952.227,0.084,0.079,-0.741,-0.143
-329.152,-953.106,-0.124,0.153,-0.947,-0.224
-329.000,-953.000,-1.000,0.210,-1.190,-0.280
-328.034,-952.111,-1.031,0.215,-1.380,-0.343
-328.044,-951.318,-0.474,0.128,-1.496,-0.354
-327.795,-950.023,1.386,-0.096,-1.667,-0.352
-328.231,-950.328,2.069,-0.334,-1.807,-0.326
-327.150,-952.822,2.378,-0.608,-1.818,-0.254
-324.488,-954.073,4.431,-0.884,-1.816,-0.195
-324.032,-955.160,5.011,-0.823,-1.742,-0.136
-324.055,-956.975,5.899,-0.577,-1.682,-0.078
-323.121,-956.150,6.237,-0.346,-1.636,0.043
-323.321,-956.386,5.600,-0.038,-1.510,0.156
-324.916,-956.694,6.889,0.203,-1.410,0.301
-324.147,-955.136,6.548,0.310,-1.240,0.366
-323.054,-954.917,5.991,0.249,-1.083,0.472
-325.331,-953.718,5.947,0.214,-0.954,0.648
-325.000,-952.000,6.000,0.210,-0.770,0.700
-324.725,-951.027,6.205,0.080,-0.706,0.767
-326.127,-951.601,4.298,0.111,-0.611,0.722
-325.497,-952.163,4.504,0.156,-0.459,0.693
-326.853,-951.219,4.847,0.147,-0.390,0.680
-326.378,-950.653,3.668,0.254,-0.321,0.606
-326.326,-949.646,4.188,0.269,-0.275,0.531
-328.051,-949.033,3.899,0.207,-0.281,0.335
-327.970,-949.953,2.116,0.209,-0.281,0.217
-328.888,-950.015,1.739,0.212,-0.275,0.054
-328.797,-949.911,2.936,0.237,-0.319,-0.155
-329.711,-949.279,2.482,0.368,-0.416,-0.307
-329.248,-948.909,1.890,0.432,-0.555,-0.520
-327.921,-950.319,2.016,0.410,-0.650,-0.666
-329.117,-949.822,2.008,0.332,-0.714,-0.791
-328.000,-950.000,2.000,0.210,-0.840,-0.910
-327.002,-951.861,2.738,0.152,-0.910,-0.976
-327.007,-951.969,4.091,0.037,-0.900,-0.979
-327.003,-952.359,3.188,-0.049,-0.983,-1.016
-326.523,-953.175,3.454,-0.105,-1.106,-1.052
-325.797,-954.669,4.020,-0.137,-1.113,-0.917
-326.029,-957.429,4.119,-0.043,-1.131,-0.831
-326.009,-956.857,3.878,0.082,-1.195,-0.760
-326.047,-955.955,2.025,0.267,-1.256,-0.575
-325.053,-956.327,3.528,0.353,-1.265,-0.387
-326.064,-953.656,4.272,0.343,-1.286,-0.252
-327.520,-952.948,4.178,0.341,-1.395,-0.115
-326.213,-953.979,5.610,0.197,-1.382,0.089
-326.240,-952.491,6.187,0.018,-1.425,0.141
-327.020,-953.248,7.068,-0.171,-1.371,0.237
-326.000,-953.000,6.000,-0.280,-1.190,0.350
-325.005,-951.812,5.700,-0.158,-1.259,0.223
-325.097,-953.235,8.350,-0.159,-1.081,0.250
-324.682,-950.835,9.347,-0.323,-0.848,0.294
-325.633,-949.952,8.716,-0.342,-0.820,0.294
-325.486,-950.987,9.272,-0.387,-0.594,0.372
-323.711,-951.192,8.701,-0.509,-0.382,0.339
-324.079,-953.094,8.020,-0.484,-0.193,0.353
-324.941,-952.147,8.091,-0.422,-0.009,0.353
-325.822,-951.677,6.245,-0.415,0.104,0.338
-326.080,-952.312,6.510,-0.463,0.288,0.403
-325.779,-950.832,6.947,-0.507,0.404,0.426
-326.302,-951.536,5.035,-0.474,0.437,0.413
-327.153,-953.357,3.689,-0.505,0.518,0.436
-326.960,-954.125,2.884,-0.474,0.559,0.492
-328.000,-955.000,2.000,-0.350,0.490,0.420
-329.901,-954.282,1.091,-0.237,0.369,0.409
-329.943,-952.360,0.396,-0.005,0.249,0.442
-330.174,-951.629,-0.908,0.160,0.100,0.362
-329.255,-952.002,-0.489,0.053,-0.135,0.341
-329.269,-951.391,-0.157,-0.125,-0.355,0.219
-329.917,-949.451,-1.141,-0.129,-0.536,0.133
-328.980,-947.967,-0.985,-0.149,-0.791,0.058
-329.915,-948.860,-1.020,-0.337,-1.035,-0.129
-330.106,-950.686,-0.202,-0.424,-1.218,-0.246
-329.903,-951.113,0.086,-0.377,-1.404,-0.427
-329.586,-950.165,0.303,-0.310,-1.554,-0.560
-328.446,-949.757,1.547,-0.255,-1.658,-0.717
-327.744,-950.061,2.183,-0.193,-1.796,-0.869
-326.920,-951.302,3.167,-0.226,-1.898,-0.923
-327.000,-953.000,4.000,-0.350,-1.890,-1.050
-327.022,-952.189,4.861,-0.359,-1.833,-1.057
-326.518,-951.762,5.686,-0.296,-1.722,-1.043
-324.054,-952.387,7.111,-0.268,-1.593,-1.054
-322.551,-953.641,8.746,-0.296,-1.464,-1.054
-322.970,-955.251,8.983,-0.251,-1.220,-1.022
-321.671,-954.744,9.023,-0.211,-0.914,-0.875
-322.124,-955.114,8.993,-0.205,-0.684,-0.762
-323.036,-956.037,8.996,-0.079,-0.442,-0.639
-322.104,-955.063,8.992,-0.016,-0.137,-0.565
-322.376,-955.070,9.094,0.127,0.127,-0.526
-324.043,-953.333,8.232,0.273,0.330,-0.417
-325.463,-951.428,5.946,0.095,0.486,-0.291
-326.234,-953.864,4.780,-0.116,0.583,-0.184
-327.049,-954.981,3.781,-0.130,0.639,-0.133
-326.000,-955.000,2.000,-0.000,0.700,-0.070
-325.712,-955.167,0.201,0.181,0.654,-0.065
-328.270,-953.439,-0.229,0.371,0.468,-0.078
-329.889,-952.294,0.320,0.484,0.341,-0.059
-329.281,-950.612,-0.677,0.472,0.169,-0.097
-327.362,-948.019,-0.782,0.357,-0.105,-0.179
-328.459,-948.207,0.197,0.058,-0.325,-0.307
-328.899,-949.026,1.086,-0.308,-0.502,-0.351
-327.106,-949.011,1.982,-0.673,-0.624,-0.410
-325.555,-948.926,1.927,-0.944,-0.690,-0.542
-323.222,-949.789,2.699,-1.071,-0.711,-0.597
-323.069,-953.025,3.025,-1.188,-0.664,-0.712
-322.636,-955.721,3.462,-1.134,-0.604,-0.783
-323.384,-955.726,5.652,-0.897,-0.531,-0.770
-322.597,-954.917,5.842,-0.577,-0.398,-0.762
-321.000,-955.000,5.000,-0.280,-0.280,-0.630
-323.745,-955.893,5.908,-0.155,-0.164,-0.561
-323.378,-955.552,5.424,-0.003,0.012,-0.524
-323.272,-953.717,4.705,0.228,0.197,-0.401
-324.203,-954.791,4.994,0.253,0.363,-0.291
-323.859,-955.848,3.383,0.076,0.439,-0.158
-323.978,-954.748,4.561,0.099,0.516,-0.044
-324.035,-955.059,4.815,0.214,0.637,0.077
-324.083,-955.052,2.060,0.211,0.694,0.075
-322.907,-954.832,2.901,0.207,0.812,0.096
-324.379,-955.162,1.746,0.276,0.866,0.309
-324.918,-953.707,1.111,0.467,0.792,0.346
-325.666,-952.501,2.190,0.451,0.755,0.399
-327.042,-953.304,0.391,0.448,0.663,0.507
-325.903,-954.001,0.065,0.566,0.543,0.487
-327.000,-953.000,0.000,0.490,0.420,0.490
-327.936,-952.819,-0.066,0.488,0.296,0.428
-328.183,-953.438,0.109,0.413,0.186,0.454
-327.069,-951.174,-0.126,0.209,0.016,0.550
-327.787,-951.877,0.112,0.088,-0.168,0.561
-328.982,-954.447,-0.073,0.084,-0.349,0.548
-327.808,-953.695,-0.023,0.155,-0.538,0.475
-327.989,-954.112,-1.124,0.217,-0.790,0.496
-327.025,-955.013,-2.019,0.341,-0.972,0.559
-328.492,-954.265,-1.227,0.410,-1.081,0.560
-328.821,-952.577,-0.305,0.471,-1.268,0.561
-327.226,-950.977,0.206,0.472,-1.424,0.562
-328.746,-950.849,-0.227,0.383,-1.667,0.543
-328.850,-951.063,0.325,0.327,-1.853,0.472
-329.052,-952.180,1.014,0.188,-1.902,0.499
-328.000,-952.000,1.000,0.140,-2.030,0.490
-326.929,-951.770,1.895,0.144,-2.095,0.420
-327.234,-953.105,2.031,0.165,-2.151,0.433
-326.517,-951.928,2.419,0.348,-2.181,0.363
-327.770,-952.428,3.595,0.463,-2.163,0.381
-327.524,-952.380,4.245,0.513,-2.173,0.413
-327.054,-950.733,5.247,0.567,-2.171,0.338
-326.913,-951.047,6.055,0.559,-2.166,0.351
-325.956,-951.041,6.936,0.559,-2.041,0.290
-327.678,-950.249,7.137,0.562,-1.960,0.162
-327.552,-949.015,6.757,0.557,-1.938,0.089
-326.558,-948.835,7.659,0.549,-1.776,0.040
-327.241,-948.704,8.006,0.392,-1.617,-0.052
-326.648,-949.152,8.081,0.143,-1.504,-0.170
-326.003,-948.836,7.873,0.069,-1.381,-0.215
-327.000,-949.000,7.000,0.000,-1.260,-0.280
-328.007,-951.839,7.839,-0.193,-1.137,-0.347
-327.311,-950.614,8.119,-0.177,-1.024,-0.350
-326.354,-950.338,8.319,-0.109,-0.857,-0.353
-325.375,-953.042,9.524,-0.175,-0.690,-0.343
-324.876,-952.274,8.235,-0.076,-0.594,-0.369
-325.040,-952.046,6.806,0.106,-0.454,-0.430
-326.156,-951.965,5.901,0.217,-0.345,-0.417
-327.967,-951.955,4.990,0.278,-0.287,-0.416
-327.192,-952.193,5.811,0.282,-0.210,-0.481
-327.402,-950.514,6.097,0.250,-0.259,-0.494
-328.246,-949.350,5.962,0.108,-0.260,-0.488
-327.760,-950.669,5.988,-0.090,-0.186,-0.490
-327.979,-952.195,6.053,-0.256,-0.226,-0.491
-326.787,-951.939,5.907,-0.362,-0.197,-0.489
-327.000,-952.000,5.000,-0.420,-0.140,-0.490
-328.088,-951.988,4.940,-0.373,-0.200,-0.492
-326.519,-952.583,5.122,-0.188,-0.221,-0.484
-325.597,-953.580,4.439,-0.085,-0.195,-0.503
-326.491,-953.906,3.719,-0.044,-0.246,-0.453
-327.061,-953.589,4.427,0.019,-0.287,-0.418
-326.862,-952.839,4.947,-0.022,-0.278,-0.412
-325.932,-953.034,3.924,-0.149,-0.280,-0.346
-325.925,-953.017,3.925,-0.209,-0.280,-0.349
-326.948,-953.600,4.934,-0.254,-0.281,-0.304
-326.357,-954.826,4.454,-0.358,-0.274,-0.220
-325.686,-954.592,3.705,-0.251,-0.313,-0.190
-326.308,-955.174,4.257,-0.084,-0.364,-0.078
-327.309,-954.376,3.769,-0.065,-0.342,0.020
-328.018,-952.985,4.195,0.014,-0.354,0.085
-327.000,-954.000,5.000,0.000,-0.350,0.210
-325.975,-953.233,4.880,-0.125,-0.348,0.275
-326.718,-952.604,5.938,-0.195,-0.315,0.328
-327.140,-954.153,5.392,-0.227,-0.209,0.369
-326.492,-954.832,4.975,-0.157,-0.251,0.328
-325.711,-952.955,4.740,-0.015,-0.265,0.385
-326.292,-951.922,3.896,0.088,-0.202,0.412
-328.131,-951.974,4.009,0.145,-0.211,0.347
-328.992,-951.082,3.991,0.207,-0.208,0.349
-328.980,-950.157,4.092,0.172,-0.266,0.350
-328.977,-949.618,3.335,0.000,-0.288,0.355
-328.901,-950.449,2.528,-0.163,-0.295,0.319
-328.943,-950.828,1.633,-0.209,-0.410,0.249
-329.116,-951.146,2.414,-0.103,-0.523,0.193
-330.132,-952.182,1.530,-0.074,-0.652,0.128
-329.000,-954.000,-1.000,-0.000,-0.770,-0.000
-326.879,-955.238,3.215,0.367,-0.830,-0.134
-329.837,-951.488,5.443,0.530,-0.933,-0.100
-331.772,-947.860,4.473,0.303,-1.080,-0.016
-329.456,-948.501,5.542,-0.068,-1.131,-0.009
-327.125,-950.900,4.336,-0.361,-1.116,-0.127
-325.912,-953.225,4.218,-0.312,-1.121,-0.217
-327.120,-951.818,5.008,-0.128,-1.120,-0.212
-327.121,-950.913,4.964,-0.008,-1.121,-0.276
-325.909,-952.701,5.834,0.066,-1.070,-0.283
-326.796,-952.571,6.064,0.064,-0.995,-0.313
-326.443,-950.486,6.274,0.107,-0.955,-0.399
-326.001,-949.727,7.674,0.140,-0.852,-0.438
-327.472,-949.927,7.805,0.017,-0.746,-0.517
-327.937,-950.160,6.920,-0.165,-0.688,-0.562
-327.000,-952.000,7.000,-0.280,-0.560,-0.560
-326.907,-952.086,7.010,-0.343,-0.435,-0.562
-327.197,-952.478,7.038,-0.359,-0.322,-0.516
-326.229,-953.298,6.532,-0.314,-0.215,-0.437
-325.885,-952.271,5.430,-0.223,-0.220,-0.419
-326.035,-953.655,4.754,-0.096,-0.194,-0.409
-327.485,-955.137,3.722,-0.076,-0.234,-0.325
-329.015,-956.108,2.988,-0.064,-0.357,-0.201
-328.061,-956.169,3.027,0.062,-0.416,-0.081
-328.620,-953.331,2.169,0.088,-0.478,0.094
-329.380,-953.315,2.398,-0.021,-0.526,0.254
-328.064,-954.024,3.507,-0.126,-0.639,0.308
-328.355,-953.779,2.276,-0.135,-0.729,0.390
-328.944,-953.819,2.266,-0.150,-0.802,0.426
-327.831,-952.906,3.033,-0.126,-0.924,0.509
-328.000,-953.000,3.000,0.000,-0.980,0.560
-329.001,-952.200,3.023,0.007,-1.102,0.488
-328.273,-951.180,3.461,-0.009,-1.140,0.554
-327.803,-950.229,5.095,0.010,-1.096,0.489
-327.994,-949.640,4.232,-0.010,-1.164,0.374
-327.958,-949.914,4.585,0.010,-1.190,0.319
-327.874,-949.984,6.139,-0.014,-1.193,0.177
-326.949,-949.964,6.031,-0.072,-1.188,0.061
-326.992,-949.030,6.977,-0.010,-1.127,-0.063
-326.265,-950.327,6.199,0.123,-1.009,-0.121
-326.153,-952.112,6.452,0.144,-0.919,-0.270
-328.020,-950.931,7.313,0.166,-0.891,-0.423
-327.361,-951.278,6.807,0.230,-0.777,-0.407
-327.065,-951.972,7.096,0.198,-0.680,-0.430
-326.904,-952.108,6.977,0.216,-0.618,-0.414
-327.000,-953.000,7.000,0.210,-0.560,-0.420
-327.992,-952.953,6.173,0.256,-0.563,-0.428
-327.839,-953.755,5.273,0.407,-0.509,-0.365
-328.321,-953.517,4.201,0.383,-0.480,-0.315
-327.030,-952.074,4.675,0.325,-0.494,-0.237
-327.702,-951.991,6.301,0.232,-0.498,-0.200
-328.823,-953.360,4.463,0.127,-0.584,-0.109
-326.951,-955.116,4.065,0.143,-0.628,0.004
-328.818,-955.975,4.089,0.203,-0.565,-0.000
-328.696,-956.052,3.631,0.323,-0.548,0.050
-326.028,-955.269,5.681,0.434,-0.613,0.119
-326.813,-954.187,5.516,0.608,-0.633,0.199
-328.861,-953.505,4.957,0.732,-0.644,0.352
-330.254,-952.640,4.796,0.675,-0.727,0.432
-329.805,-951.924,3.942,0.626,-0.775,0.413
-328.000,-951.000,4.000,0.630,-0.840,0.350
-327.703,-949.150,3.100,0.642,-0.964,0.345
-330.400,-949.467,3.530,0.447,-1.037,0.360
-330.764,-950.674,4.755,0.157,-1.087,0.332
-329.194,-950.843,5.401,-0.004,-1.159,0.393
-328.778,-950.503,6.158,-0.090,-1.197,0.407
-327.752,-948.492,6.086,-0.061,-1.187,0.339
-328.105,-949.256,8.206,-0.157,-1.191,0.354
-329.034,-953.684,9.089,-0.407,-1.192,0.414
-327.441,-956.658,7.975,-0.404,-1.142,0.528
-326.523,-956.657,8.289,-0.079,-1.026,0.657
-327.722,-954.339,7.111,0.261,-0.931,0.772
-327.853,-953.919,7.746,0.371,-0.889,0.897
-328.125,-953.667,9.080,0.334,-0.818,1.019
-327.887,-952.998,7.810,0.267,-0.759,1.134
-328.000,-953.000,8.000,0.140,-0.630,1.190
-329.826,-952.826,8.930,0.011,-0.555,1.307
-330.078,-954.076,9.098,-0.010,-0.583,1.402
-329.940,-952.535,8.468,0.033,-0.464,1.388
-329.841,-951.771,7.512,0.148,-0.415,1.418
-330.216,-951.345,6.633,0.365,-0.403,1.370
-331.201,-949.709,5.919,0.517,-0.342,1.326
-332.053,-948.875,6.006,0.640,-0.351,1.248
-332.037,-946.188,5.976,0.703,-0.349,1.061
-332.507,-945.049,6.816,0.593,-0.402,0.945
-334.221,-944.184,6.646,0.439,-0.468,0.731
-332.578,-944.014,5.142,0.161,-0.531,0.501
-332.255,-945.394,5.091,-0.090,-0.566,0.348
-333.008,-946.209,4.907,-0.146,-0.565,0.140
-333.103,-947.034,5.049,-0.130,-0.648,-0.110
-333.000,-946.000,5.000,0.000,-0.770,-0.350
-330.978,-945.822,5.735,0.018,-0.839,-0.529
-333.189,-946.848,7.025,-0.115,-0.833,-0.766
-333.889,-947.207,6.753,-0.172,-0.883,-0.950
-332.163,-948.789,7.615,-0.280,-0.917,-1.005
-331.722,-950.287,7.973,-0.366,-0.911,-1.083
-330.873,-951.124,8.077,-0.345,-0.901,-1.119
-330.990,-952.111,7.959,-0.350,-0.837,-1.041
-330.074,-953.871,7.945,-0.289,-0.839,-0.917
-329.906,-954.936,8.208,-0.162,-0.794,-0.858
-329.948,-954.783,7.553,-0.090,-0.707,-0.718
-330.366,-955.265,9.069,-0.035,-0.705,-0.503
-331.133,-955.907,8.034,0.031,-0.679,-0.350
-330.930,-954.227,7.161,0.078,-0.606,-0.142
-330.990,-952.981,7.956,0.067,-0.556,0.018
-331.000,-953.000,7.000,0.070,-0.560,0.140
-331.943,-952.042,7.923,0.076,-0.561,0.268
-331.324,-952.144,7.282,0.019,-0.559,0.329
-330.843,-950.639,7.387,-0.041,-0.561,0.401
-330.554,-949.523,8.238,-0.105,-0.560,0.422
-330.132,-949.945,7.950,-0.162,-0.559,0.424
-332.478,-949.989,7.878,-0.220,-0.561,0.410
-331.838,-949.947,6.962,-0.207,-0.559,0.345
-330.933,-948.166,7.022,-0.207,-0.558,0.286
-331.956,-946.939,6.126,-0.223,-0.617,0.175
-331.822,-947.453,6.592,-0.152,-0.639,0.005
-332.197,-948.410,6.777,-0.145,-0.623,-0.190
-331.372,-948.957,5.664,-0.127,-0.633,-0.343
-331.164,-948.881,6.139,-0.164,-0.635,-0.447
-332.075,-949.133,6.015,-0.207,-0.716,-0.495
-332.000,-951.000,7.000,-0.140,-0.770,-0.560
-332.041,-952.100,6.289,-0.083,-0.766,-0.629
-331.273,-951.032,5.538,-0.002,-0.819,-0.619
-330.792,-951.490,7.059,-0.045,-0.885,-0.683
-330.980,-951.481,6.344,-0.066,-0.924,-0.676
-331.125,-950.841,6.263,-0.106,-0.896,-0.619
-332.123,-952.251,7.070,-0.227,-0.927,-0.628
-330.833,-951.925,7.027,-0.208,-0.979,-0.553
-329.931,-951.913,7.949,-0.271,-0.915,-0.492
-331.004,-952.946,7.380,-0.350,-0.902,-0.442
-330.213,-952.695,6.523,-0.313,-0.920,-0.326
-329.969,-953.468,7.957,-0.210,-0.877,-0.230
-329.542,-953.399,7.442,-0.083,-0.807,-0.193
-329.041,-951.361,7.235,0.039,-0.763,-0.111
-330.148,-951.063,7.964,0.154,-0.773,-0.070
-330.000,-951.000,7.000,0.210,-0.770,-0.070
-329.878,-950.936,7.851,0.216,-0.713,-0.065
-330.803,-950.529,7.511,0.159,-0.639,-0.087
-331.059,-949.169,6.566,0.102,-0.630,-0.009
-330.571,-950.916,7.438,0.028,-0.623,-0.050
-329.628,-949.959,6.421,0.000,-0.651,-0.180
-330.379,-949.136,6.162,-0.009,-0.706,-0.212
-332.054,-949.980,7.029,-0.075,-0.701,-0.210
-331.125,-949.862,7.001,-0.134,-0.764,-0.271
-330.682,-952.673,7.042,-0.208,-0.783,-0.356
-331.959,-951.683,6.843,-0.165,-0.749,-0.289
-331.317,-950.879,7.623,-0.135,-0.823,-0.319
-330.956,-951.994,7.805,-0.122,-0.819,-0.336
-330.777,-950.516,6.777,-0.057,-0.759,-0.268
-329.927,-951.242,7.074,-0.071,-0.773,-0.283
-330.000,-952.000,7.000,-0.000,-0.770,-0.280
-329.996,-951.994,7.765,0.072,-0.768,-0.283
-330.040,-951.413,8.405,0.018,-0.773,-0.267
-329.796,-950.030,6.972,-0.009,-0.766,-0.336
-330.417,-949.737,7.663,-0.006,-0.775,-0.318
-331.036,-950.075,7.667,-0.131,-0.764,-0.291
-331.002,-951.142,7.087,-0.208,-0.776,-0.353
-330.964,-950.965,8.015,-0.136,-0.766,-0.274
-330.061,-950.977,7.064,-0.138,-0.702,-0.276
-329.899,-951.000,7.635,-0.140,-0.749,-0.288
-330.088,-951.348,8.345,-0.179,-0.793,-0.271
-329.443,-952.200,7.658,-0.232,-0.720,-0.287
-328.675,-951.251,8.337,-0.178,-0.703,-0.277
-329.319,-950.991,7.606,-0.124,-0.686,-0.274
-330.023,-950.960,7.006,-0.061,-0.624,-0.195
-330.000,-951.000,7.000,-0.070,-0.630,-0.140
-330.098,-951.861,6.932,-0.135,-0.632,-0.143
-329.107,-952.232,7.168,-0.140,-0.626,-0.093
-329.497,-950.615,6.680,-0.168,-0.633,-0.050
-329.774,-949.705,7.732,-0.275,-0.630,-0.096
-328.592,-951.632,7.647,-0.387,-0.618,-0.018
-329.248,-951.702,7.088,-0.418,-0.545,0.072
-330.049,-951.037,8.020,-0.341,-0.565,-0.006
-330.930,-951.965,7.085,-0.217,-0.567,-0.003
-331.169,-951.963,6.905,-0.155,-0.488,0.008
-330.210,-952.015,6.571,-0.051,-0.542,-0.013
-329.763,-951.116,5.521,0.034,-0.557,0.039
-330.342,-951.140,6.681,-0.044,-0.586,0.081
-330.993,-951.964,6.773,-0.065,-0.635,0.063
-329.798,-950.840,5.946,-0.078,-0.634,0.074
-330.000,-951.000,6.000,-0.140,-0.700,0.070
-331.018,-951.852,5.181,-0.143,-0.702,0.060
-330.772,-952.845,4.677,-0.099,-0.739,0.137
-331.837,-952.371,6.277,-0.007,-0.828,0.095
-331.104,-951.577,7.255,-0.032,-0.837,0.088
-329.817,-951.804,6.864,-0.074,-0.854,0.157
-331.328,-950.686,7.068,-0.078,-0.929,0.134
-330.886,-951.118,6.981,-0.144,-0.981,0.141
-329.997,-952.021,6.987,-0.141,-0.980,0.139
-330.062,-951.788,6.997,-0.142,-0.982,0.191
-329.827,-952.812,7.514,-0.068,-0.975,0.230
-330.062,-951.837,8.403,0.099,-0.990,0.164
-329.978,-950.519,7.394,0.145,-0.951,0.135
-331.589,-950.987,7.056,0.139,-0.904,0.143
-331.824,-949.795,6.918,0.140,-0.911,0.135
-331.000,-950.000,7.000,0.140,-0.910,0.070
-332.007,-950.247,8.015,0.083,-0.915,0.007
-330.599,-948.242,7.182,0.012,-0.856,-0.048
-329.562,-948.311,7.450,-0.032,-0.836,-0.115
-330.436,-948.949,8.237,-0.116,-0.821,-0.170
-331.332,-948.977,7.872,-0.138,-0.737,-0.236
-331.968,-950.198,8.061,-0.150,-0.696,-0.293
-330.925,-949.938,7.983,-0.214,-0.701,-0.355
-330.955,-949.921,7.982,-0.214,-0.703,-0.415
-331.080,-950.951,8.082,-0.152,-0.645,-0.478
-330.897,-950.241,7.365,-0.131,-0.586,-0.499
-330.599,-949.564,6.766,-0.149,-0.511,-0.482
-329.596,-950.197,7.216,-0.131,-0.506,-0.497
-330.229,-951.286,6.788,-0.148,-0.575,-0.484
-329.862,-952.028,7.195,-0.133,-0.554,-0.494
-330.000,-951.000,8.000,-0.140,-0.560,-0.490
-331.000,-949.922,7.073,-0.264,-0.623,-0.485
-330.816,-951.367,7.086,-0.334,-0.637,-0.504
-331.711,-952.736,6.294,-0.398,-0.620,-0.438
-331.611,-952.441,6.343,-0.409,-0.661,-0.423
-330.581,-951.616,6.988,-0.302,-0.711,-0.400
-329.831,-952.114,5.736,-0.187,-0.694,-0.343
-330.087,-951.953,6.091,-0.140,-0.704,-0.351
-331.012,-951.941,6.976,-0.143,-0.766,-0.350
-330.150,-952.255,7.021,-0.079,-0.776,-0.353
-329.981,-950.367,6.961,-0.104,-0.762,-0.340
-329.380,-949.655,7.098,-0.166,-0.780,-0.390
-329.102,-949.853,6.659,-0.103,-0.757,-0.424
-330.217,-950.008,5.824,-0.068,-0.791,-0.430
-329.939,-949.961,6.113,-0.069,-0.843,-0.501
-330.000,-950.000,7.000,-0.070,-0.840,-0.560
-329.150,-950.114,7.118,-0.127,-0.841,-0.681
-329.387,-949.089,6.168,-0.201,-0.835,-0.761
-330.992,-949.299,5.987,-0.207,-0.850,-0.803
-330.404,-950.313,5.901,-0.235,-0.822,-0.879
-329.742,-951.063,6.309,-0.297,-0.873,-0.930
-328.666,-950.784,7.083,-0.264,-0.900,-0.990
-328.012,-951.139,6.999,-0.208,-0.840,-0.977
-328.057,-952.975,7.030,-0.210,-0.906,-0.977
-327.062,-952.098,6.180,-0.160,-0.864,-0.992
-327.538,-952.963,5.919,-0.115,-0.815,-0.924
-328.124,-954.298,5.960,-0.198,-0.888,-0.914
-327.836,-953.457,6.344,-0.181,-0.916,-0.875
-328.029,-954.355,7.083,-0.146,-0.898,-0.714
-328.035,-955.013,7.109,-0.218,-0.832,-0.533
-329.000,-955.000,9.000,-0.210,-0.840,-0.350
-329.202,-955.823,8.402,-0.209,-0.847,-0.168
-327.416,-956.276,6.727,-0.171,-0.789,0.018
-326.733,-954.974,7.997,-0.084,-0.725,0.162
-327.080,-955.010,7.347,-0.055,-0.691,0.271
-326.815,-954.232,7.308,0.054,-0.694,0.390
-327.158,-952.735,7.955,0.150,-0.606,0.424
-328.067,-951.898,6.940,0.139,-0.560,0.499
-328.926,-950.118,6.973,0.141,-0.560,0.564
-329.856,-949.129,7.024,0.090,-0.608,0.448
-330.031,-948.603,7.052,0.017,-0.659,0.370
-329.864,-949.548,6.532,-0.035,-0.567,0.289
-329.997,-949.461,5.812,-0.084,-0.593,0.146
-329.943,-949.042,6.069,-0.069,-0.628,0.038
-330.038,-950.127,6.028,-0.158,-0.639,-0.093
-330.000,-950.000,7.000,-0.140,-0.700,-0.210
-329.123,-949.917,7.157,0.001,-0.695,-0.214
-328.829,-950.697,6.140,-0.108,-0.757,-0.240
-329.535,-951.079,5.923,-0.118,-0.763,-0.382
-330.201,-950.479,6.374,-0.047,-0.824,-0.423
-329.390,-951.359,7.079,-0.082,-0.937,-0.435
-327.701,-951.896,5.603,-0.066,-0.892,-0.501
-328.103,-952.094,6.183,-0.069,-0.838,-0.486
-329.000,-953.040,8.003,-0.006,-0.837,-0.424
-328.874,-951.981,7.109,0.015,-0.898,-0.412
-329.730,-952.732,7.142,-0.057,-0.916,-0.435
-329.608,-951.790,6.262,-0.073,-0.907,-0.375
-328.426,-950.847,6.577,-0.067,-0.909,-0.350
-327.859,-952.229,8.350,-0.082,-0.914,-0.336
-328.135,-951.953,7.840,-0.148,-0.903,-0.274
-329.000,-952.000,7.000,-0.140,-0.840,-0.280
-328.129,-951.072,6.881,-0.134,-0.841,-0.281
-328.490,-951.642,7.909,-0.152,-0.792,-0.280
-329.392,-951.622,7.414,-0.099,-0.755,-0.277
-328.438,-949.970,7.192,-0.031,-0.781,-0.289
-329.618,-950.128,8.298,-0.016,-0.762,-0.257
-329.709,-951.044,7.857,-0.179,-0.775,-0.206
-329.078,-949.868,8.044,-0.207,-0.768,-0.207
-330.943,-949.834,8.048,-0.324,-0.766,-0.083
-329.578,-951.934,7.786,-0.701,-0.832,0.049
-328.415,-951.382,9.392,-0.979,-0.808,0.157
-329.524,-953.780,9.770,-1.364,-0.736,0.288
-327.930,-954.019,5.896,-1.447,-0.824,0.419
-326.913,-951.852,4.185,-1.440,-0.801,0.619
-326.985,-955.688,7.526,-1.711,-0.605,0.705
-327.000,-957.000,8.000,-1.610,-0.560,0.770
-327.074,-956.766,5.281,-1.249,-0.563,0.899
-326.732,-958.129,4.773,-0.835,-0.520,0.917
-328.209,-956.258,5.212,-0.406,-0.397,0.905
-329.122,-953.284,4.780,0.029,-0.353,0.916
-329.071,-950.907,5.229,0.393,-0.463,0.896
-330.195,-948.406,4.736,0.492,-0.487,0.818
-329.965,-946.933,3.998,0.409,-0.493,0.686
-330.841,-945.234,4.034,0.226,-0.553,0.442
-332.151,-942.270,3.795,-0.004,-0.673,0.188
-330.946,-942.314,4.996,-0.310,-0.753,-0.033
-332.004,-943.597,3.943,-0.569,-0.828,-0.308
-332.770,-946.501,3.009,-0.825,-0.965,-0.496
-330.105,-949.385,4.295,-1.012,-0.979,-0.698
-328.978,-948.979,3.903,-0.963,-1.072,-0.856
-329.000,-951.000,4.000,-0.840,-1.120,-0.980
-329.795,-952.958,4.003,-0.719,-1.048,-1.174
-330.334,-952.844,4.634,-0.559,-1.108,-1.197
-329.053,-953.846,5.266,-0.339,-1.114,-1.196
-329.126,-955.671,4.788,-0.251,-1.141,-1.140
-328.521,-955.633,5.133,-0.162,-1.068,-1.000
-328.002,-956.311,4.999,-0.054,-0.981,-0.875
-327.964,-956.907,6.112,0.006,-1.052,-0.686
-327.922,-954.180,6.119,0.012,-0.985,-0.506
-329.039,-954.298,4.915,-0.234,-1.025,-0.262
-327.652,-957.210,5.818,-0.277,-1.044,-0.104
-326.605,-957.726,5.872,-0.094,-0.870,0.019
-327.292,-955.814,6.481,0.089,-0.865,0.241
-328.395,-954.888,6.883,0.236,-0.910,0.393
-328.881,-954.942,5.895,0.201,-0.824,0.596
-327.000,-954.000,6.000,0.210,-0.770,0.770
-327.616,-953.210,6.026,0.326,-0.775,0.774
-329.759,-950.853,5.979,0.472,-0.715,0.766
-329.960,-948.811,5.998,0.457,-0.698,0.752
-329.970,-948.699,6.028,0.411,-0.676,0.604
-329.874,-947.175,5.943,0.398,-0.614,0.435
-330.131,-947.129,6.073,0.246,-0.638,0.319
-331.060,-946.881,5.941,0.211,-0.627,0.123
-331.048,-945.052,5.024,0.151,-0.626,-0.059
-330.834,-946.300,5.673,0.016,-0.690,-0.227
-331.322,-948.627,6.852,-0.037,-0.706,-0.475
-329.665,-948.361,6.736,-0.148,-0.694,-0.652
-329.129,-947.595,5.260,-0.233,-0.705,-0.743
-330.040,-948.296,5.407,-0.186,-0.695,-0.889
-328.813,-950.428,7.127,-0.142,-0.704,-0.985
-329.000,-953.000,6.000,-0.210,-0.700,-0.980
-329.147,-953.113,4.982,-0.165,-0.636,-0.983
-328.130,-952.820,5.091,-0.013,-0.628,-0.929
-327.927,-953.044,4.868,-0.037,-0.625,-0.902
-327.893,-952.313,5.154,-0.081,-0.658,-0.895
-328.121,-951.657,4.822,-0.075,-0.712,-0.806
-329.314,-952.258,5.231,-0.169,-0.695,-0.757
-329.978,-954.121,5.999,-0.288,-0.701,-0.616
-329.057,-954.094,5.086,-0.349,-0.701,-0.493
-328.966,-953.660,4.797,-0.302,-0.698,-0.447
-328.416,-955.363,5.801,-0.222,-0.702,-0.314
-327.628,-955.979,6.005,-0.190,-0.698,-0.252
-328.168,-955.374,6.086,-0.065,-0.701,-0.150
-327.911,-953.131,5.759,0.124,-0.699,-0.051
-329.346,-952.058,4.976,0.212,-0.700,0.017
-330.000,-953.000,6.000,0.140,-0.700,0.140
-328.059,-953.047,6.192,0.070,-0.701,0.145
-329.354,-951.854,5.008,0.080,-0.694,0.137
-330.305,-948.997,5.610,0.000,-0.739,0.138
-329.707,-949.693,6.093,-0.162,-0.785,0.163
-329.960,-951.186,6.015,-0.357,-0.758,0.238
-328.513,-952.301,5.875,-0.518,-0.779,0.288
-326.931,-952.974,4.945,-0.558,-0.765,0.276
-326.924,-952.907,4.971,-0.436,-0.700,0.213
-328.600,-954.126,5.025,-0.239,-0.758,0.209
-329.267,-952.279,5.477,-0.163,-0.739,0.206
-328.628,-952.326,6.458,-0.072,-0.671,0.224
-329.218,-952.334,5.297,0.045,-0.727,0.162
-328.770,-950.561,5.284,0.073,-0.668,0.043
-329.130,-949.789,5.962,0.066,-0.637,-0.012
-329.000,-948.000,5.000,0.000,-0.700,-0.140
-329.553,-948.810,5.006,-0.063,-0.696,-0.207
-332.131,-949.020,4.293,-0.117,-0.754,-0.253
-330.025,-949.820,4.222,-0.189,-0.772,-0.331
-328.753,-951.027,5.809,-0.218,-0.794,-0.373
-328.665,-949.017,5.892,-0.203,-0.855,-0.452
-328.054,-949.276,6.112,-0.224,-0.833,-0.493
-329.023,-951.178,5.933,-0.364,-0.842,-0.490
-328.080,-953.833,5.032,-0.490,-0.843,-0.490
-327.947,-954.322,4.985,-0.345,-0.782,-0.492
-327.365,-952.855,4.984,-0.102,-0.759,-0.456
-327.050,-953.317,5.039,-0.078,-0.784,-0.344
-328.645,-954.024,4.944,-0.021,-0.738,-0.241
-328.956,-953.725,5.056,0.089,-0.697,-0.198
-329.019,-952.926,4.961,0.067,-0.695,-0.127
-329.000,-953.000,5.000,0.140,-0.630,-0.070
-329.047,-953.004,5.070,0.213,-0.625,-0.073
-328.230,-953.026,4.791,0.161,-0.638,-0.023
-328.265,-952.348,5.791,0.096,-0.617,0.047
-329.352,-951.232,5.628,0.056,-0.663,0.084
-328.595,-950.719,4.852,0.082,-0.711,0.046
-329.335,-951.080,5.020,0.055,-0.694,-0.006
-329.958,-950.936,5.028,-0.002,-0.704,0.001
-329.033,-950.015,5.934,-0.001,-0.767,-0.000
-329.046,-950.725,6.102,0.001,-0.774,0.005
-328.255,-951.085,5.893,-0.003,-0.765,-0.045
-328.163,-950.255,6.093,0.024,-0.776,-0.081
-329.390,-949.559,5.928,0.113,-0.752,-0.076
-328.525,-950.463,6.043,0.131,-0.672,-0.176
-328.099,-952.103,5.983,0.058,-0.632,-0.203
-329.000,-951.000,6.000,-0.000,-0.700,-0.140
-328.971,-950.783,5.993,-0.004,-0.709,-0.195
-329.207,-951.948,6.079,0.010,-0.643,-0.271
-327.677,-951.718,5.400,-0.042,-0.625,-0.287
-327.005,-951.932,5.119,-0.099,-0.633,-0.254
-328.318,-951.852,6.446,-0.170,-0.628,-0.193
-327.813,-953.426,5.621,-0.214,-0.632,-0.221
-328.051,-953.934,5.057,-0.209,-0.629,-0.204
-328.031,-953.010,5.996,-0.149,-0.629,-0.141
-328.591,-953.100,5.211,-0.022,-0.634,-0.146
-329.500,-952.093,4.875,0.050,-0.620,-0.090
-327.828,-951.745,5.068,0.090,-0.668,-0.068
-328.859,-952.005,4.971,0.030,-0.708,-0.050
-329.963,-953.383,4.998,0.014,-0.697,0.013
-328.827,-952.651,5.015,0.071,-0.700,-0.005
-328.000,-951.000,5.000,0.000,-0.700,-0.000
-328.653,-951.972,4.914,-0.009,-0.760,0.003
-330.356,-951.151,5.833,0.056,-0.780,-0.006
-327.813,-951.424,5.578,0.080,-0.759,0.010
-327.527,-951.466,4.693,0.055,-0.780,-0.029
-329.127,-950.963,5.212,0.099,-0.761,-0.096
-327.755,-951.947,4.852,0.134,-0.777,-0.148
-329.182,-949.844,5.075,0.067,-0.767,-0.137
-330.063,-949.919,5.974,0.070,-0.765,-0.135
-329.090,-949.438,6.000,0.018,-0.834,-0.249
-328.926,-948.757,6.035,-0.016,-0.834,-0.344
-328.953,-951.591,5.929,0.015,-0.878,-0.343
-328.869,-951.229,6.095,-0.014,-0.917,-0.374
-329.211,-951.210,5.886,0.013,-0.911,-0.433
-330.042,-952.078,6.126,-0.015,-0.904,-0.412
-329.000,-953.000,7.000,-0.140,-0.840,-0.350
-328.008,-954.041,7.005,-0.150,-0.838,-0.290
-328.047,-953.173,7.076,-0.083,-0.802,-0.227
-327.854,-952.814,6.428,-0.037,-0.710,-0.171
-328.035,-952.726,5.821,0.046,-0.706,-0.101
-327.837,-952.969,6.099,0.069,-0.680,-0.063
-328.099,-952.853,5.946,0.075,-0.621,-0.073
-327.929,-953.075,6.017,0.066,-0.633,-0.069
-326.997,-953.147,6.018,0.062,-0.634,-0.068
-328.430,-950.393,5.935,0.245,-0.567,-0.122
-330.062,-950.181,6.163,0.270,-0.595,-0.193
-329.290,-951.531,5.387,0.134,-0.656,-0.237
-328.920,-952.004,5.158,0.189,-0.589,-0.335
-328.936,-951.545,6.271,0.318,-0.569,-0.447
-329.094,-949.841,5.878,0.437,-0.642,-0.499
-330.000,-950.000,6.000,0.490,-0.700,-0.630
-330.096,-949.218,6.175,0.433,-0.760,-0.764
-329.200,-948.153,4.999,0.365,-0.822,-0.760
-329.232,-947.527,5.658,0.294,-0.881,-0.852
-330.513,-949.250,5.991,0.055,-0.942,-0.915
-329.070,-953.118,6.269,-0.229,-1.007,-0.792
-328.005,-953.917,7.111,-0.270,-1.051,-0.772
-327.902,-954.033,6.980,-0.207,-0.971,-0.688
-326.063,-954.019,6.974,-0.207,-0.909,-0.565
-326.747,-954.599,7.738,-0.270,-0.924,-0.466
-326.525,-955.794,8.348,-0.253,-0.813,-0.255
-325.876,-955.724,7.172,-0.135,-0.753,-0.184
-327.865,-955.706,7.396,0.014,-0.765,-0.060
-327.612,-954.622,8.042,0.302,-0.666,0.113
-327.062,-955.158,8.044,0.414,-0.633,0.231
-328.000,-954.000,8.000,0.280,-0.630,0.350
-328.086,-951.887,7.038,0.102,-0.565,0.407
-327.260,-953.150,7.148,-0.062,-0.563,0.487
-326.719,-951.330,6.197,-0.025,-0.518,0.472
-327.391,-951.324,6.487,-0.004,-0.501,0.547
-328.283,-951.372,6.789,0.035,-0.586,0.505
-329.123,-949.804,6.020,0.160,-0.544,0.328
-328.964,-949.976,7.035,0.134,-0.567,0.350
-328.963,-949.021,6.082,0.072,-0.631,0.225
-329.120,-949.830,6.582,0.068,-0.618,0.088
-328.681,-949.207,7.460,0.045,-0.693,-0.015
-329.682,-949.458,6.176,-0.094,-0.661,-0.127
-329.618,-951.421,6.088,-0.127,-0.640,-0.154
-328.892,-950.642,5.888,-0.058,-0.726,-0.236
-328.961,-951.158,6.112,-0.070,-0.774,-0.289
-328.000,-951.000,7.000,0.000,-0.770,-0.420
-327.855,-950.779,7.108,0.070,-0.763,-0.497
-328.880,-952.585,6.155,0.027,-0.828,-0.428
-328.508,-953.045,6.413,-0.055,-0.840,-0.427
-327.557,-952.347,7.335,-0.066,-0.846,-0.387
-328.448,-951.668,6.716,-0.090,-0.828,-0.343
-328.888,-952.082,7.296,-0.148,-0.858,-0.346
-327.949,-951.963,7.970,-0.139,-0.908,-0.273
-327.971,-951.939,7.033,-0.140,-0.843,-0.213
-328.094,-952.908,7.698,-0.139,-0.842,-0.156
-327.291,-952.288,8.274,-0.148,-0.794,-0.122
-326.738,-951.567,7.724,-0.103,-0.765,-0.165
-327.072,-951.807,8.267,-0.062,-0.752,-0.094
-327.007,-950.481,7.761,-0.070,-0.686,-0.088
-328.231,-951.428,8.170,-0.075,-0.705,-0.138
-328.000,-954.000,8.000,-0.140,-0.700,-0.070
-326.878,-953.208,6.057,-0.091,-0.642,-0.071
-328.003,-952.232,6.797,0.041,-0.570,-0.018
-327.527,-951.108,6.522,0.118,-0.561,-0.023
-329.196,-950.843,5.827,0.151,-0.551,-0.097
-329.457,-950.518,6.015,0.123,-0.584,-0.049
-327.897,-950.007,6.120,0.047,-0.633,-0.088
-329.085,-951.078,7.053,-0.079,-0.632,-0.142
-329.040,-951.062,7.027,-0.140,-0.696,-0.203
-328.943,-950.170,6.946,-0.133,-0.704,-0.277
-328.990,-949.585,7.100,-0.190,-0.700,-0.274
-328.615,-950.562,6.521,-0.197,-0.692,-0.310
-327.426,-950.396,5.930,-0.088,-0.728,-0.398
-328.638,-950.331,7.667,-0.089,-0.774,-0.527
-328.642,-953.427,7.740,-0.138,-0.775,-0.557
-326.000,-953.000,6.000,0.000,-0.840,-0.560
-327.680,-950.242,6.855,0.193,-0.785,-0.623
-328.232,-949.181,7.077,0.195,-0.750,-0.672
-327.837,-948.969,7.009,-0.035,-0.823,-0.764
-327.848,-951.298,6.901,-0.207,-0.843,-0.736
-328.355,-953.430,7.165,-0.191,-0.839,-0.699
-328.798,-953.928,6.805,-0.124,-0.841,-0.690
-326.897,-952.900,7.139,-0.067,-0.839,-0.628
-326.966,-952.032,8.973,-0.068,-0.839,-0.631
-326.918,-951.840,8.168,-0.117,-0.843,-0.574
-328.228,-953.566,8.094,-0.242,-0.832,-0.555
-328.957,-955.802,7.264,-0.255,-0.854,-0.536
-326.979,-953.378,7.658,-0.020,-0.806,-0.457
-325.586,-953.571,9.097,0.056,-0.769,-0.393
-325.105,-954.917,7.844,-0.089,-0.763,-0.261
-327.000,-953.000,8.000,-0.070,-0.700,-0.210
-327.123,-952.920,7.142,0.062,-0.701,-0.155
-326.907,-952.998,7.517,0.029,-0.651,-0.081
-326.497,-952.983,8.340,-0.023,-0.618,-0.035
-325.936,-951.978,7.786,0.027,-0.638,0.022
-327.443,-950.490,7.949,-0.048,-0.626,-0.019
-326.677,-951.207,6.736,-0.152,-0.632,0.015
-327.145,-952.056,7.072,-0.138,-0.630,-0.009
-328.086,-952.088,7.064,-0.139,-0.630,-0.135
-326.225,-950.309,6.827,-0.143,-0.629,-0.140
-326.448,-949.691,7.254,-0.133,-0.632,-0.180
-327.174,-949.783,6.683,-0.169,-0.626,-0.249
-326.964,-950.346,7.360,-0.247,-0.636,-0.310
-328.574,-952.542,6.544,-0.277,-0.623,-0.358
-328.811,-952.967,6.103,-0.191,-0.636,-0.347
-327.000,-953.000,7.000,-0.070,-0.630,-0.350
-326.913,-953.062,6.983,-0.004,-0.560,-0.410
-327.086,-952.283,7.100,0.002,-0.613,-0.432
-326.891,-951.527,6.758,-0.000,-0.632,-0.405
-326.692,-952.430,7.642,-0.002,-0.656,-0.440
-325.556,-952.780,7.761,0.004,-0.712,-0.387
-326.356,-953.199,6.907,-0.009,-0.696,-0.353
-326.939,-953.987,6.998,-0.074,-0.700,-0.345
-325.974,-953.040,6.960,-0.073,-0.698,-0.281
-327.622,-953.694,7.888,-0.059,-0.756,-0.291
-327.637,-954.054,7.466,-0.126,-0.778,-0.183
-326.466,-953.695,6.743,-0.119,-0.768,-0.128
-327.285,-953.641,7.162,-0.028,-0.753,-0.125
-326.779,-952.719,6.905,-0.001,-0.683,-0.057
-327.050,-953.102,7.040,0.005,-0.711,-0.071
-326.000,-953.000,7.000,0.070,-0.770,-0.000
-326.589,-952.946,6.978,0.075,-0.773,0.068
-327.750,-952.499,7.024,0.061,-0.761,0.073
-325.344,-950.925,6.997,0.085,-0.817,0.039
-327.648,-950.645,6.939,0.035,-0.825,-0.042
-326.792,-949.331,7.250,-0.016,-0.748,-0.076
-325.167,-950.451,8.137,-0.096,-0.783,-0.065
-327.041,-950.894,7.974,-0.217,-0.764,-0.075
-326.053,-949.911,7.997,-0.277,-0.701,-0.200
-326.111,-952.463,7.311,-0.289,-0.706,-0.275
-324.954,-953.162,6.612,-0.229,-0.652,-0.315
-326.117,-952.280,7.832,-0.207,-0.621,-0.402
-326.624,-951.468,7.631,-0.192,-0.634,-0.420
-326.328,-952.583,6.901,-0.124,-0.628,-0.422
-328.015,-954.001,7.016,-0.147,-0.631,-0.418
-326.000,-953.000,7.000,-0.140,-0.630,-0.420
-327.532,-953.850,7.011,-0.072,-0.631,-0.425
-328.566,-953.464,6.966,-0.118,-0.626,-0.367
-326.937,-952.478,7.060,-0.131,-0.666,-0.340
-327.056,-953.044,6.912,0.018,-0.721,-0.358
-326.931,-952.834,7.104,0.061,-0.672,-0.344
-326.781,-954.341,6.892,-0.012,-0.626,-0.355
-324.899,-953.837,7.074,0.003,-0.630,-0.347
-325.837,-952.026,7.999,0.004,-0.630,-0.285
-326.389,-952.757,7.180,-0.056,-0.631,-0.222
-324.858,-952.987,7.406,-0.114,-0.626,-0.198
-325.558,-952.707,8.517,-0.185,-0.638,-0.226
-326.045,-952.869,7.054,-0.203,-0.605,-0.176
-325.773,-953.069,5.981,-0.102,-0.548,-0.139
-325.005,-954.185,7.186,0.018,-0.568,-0.134
-327.000,-954.000,7.000,0.140,-0.630,-0.070
-327.347,-952.915,6.023,0.157,-0.635,-0.066
-325.662,-954.000,6.075,0.020,-0.618,-0.074
-327.499,-952.278,5.803,0.032,-0.678,-0.064
-327.498,-949.804,6.543,0.072,-0.700,-0.092
-326.955,-950.116,7.038,-0.067,-0.717,-0.174
-326.789,-951.319,7.035,-0.250,-0.779,-0.210
-326.016,-953.102,6.969,-0.352,-0.770,-0.213
-326.964,-953.065,6.936,-0.287,-0.833,-0.277
-326.281,-952.827,7.954,-0.222,-0.860,-0.280
-325.722,-953.103,7.366,-0.130,-0.771,-0.319
-326.139,-952.155,6.872,-0.000,-0.813,-0.370
-325.578,-951.741,7.013,-0.031,-0.826,-0.332
-324.761,-952.136,7.057,-0.075,-0.754,-0.372
-325.231,-953.139,6.917,-0.069,-0.777,-0.423
-327.000,-953.000,7.000,-0.070,-0.770,-0.420
-326.276,-952.836,8.894,-0.127,-0.703,-0.420
-325.002,-953.906,7.733,-0.165,-0.743,-0.419
-325.410,-953.710,6.504,-0.045,-0.795,-0.425
-326.584,-954.043,7.391,0.010,-0.723,-0.396
-326.771,-953.400,6.682,0.000,-0.714,-0.320
-325.828,-953.004,7.282,-0.009,-0.782,-0.275
-326.039,-952.959,8.014,-0.074,-0.766,-0.281
-326.033,-952.914,8.015,-0.072,-0.704,-0.282
-325.899,-954.073,7.268,-0.066,-0.693,-0.225
-326.144,-952.413,6.719,-0.075,-0.714,-0.195
-325.297,-952.071,7.319,-0.066,-0.655,-0.229
-325.104,-952.875,6.631,-0.073,-0.643,-0.172
-326.294,-951.567,7.473,-0.068,-0.719,-0.149
-325.800,-952.245,7.870,-0.071,-0.689,-0.219
-325.000,-953.000,7.000,-0.070,-0.630,-0.210
-325.868,-952.053,7.929,-0.069,-0.629,-0.147
-326.147,-952.598,7.361,-0.071,-0.630,-0.132
-325.368,-953.128,6.786,-0.069,-0.630,-0.152
-324.657,-952.497,7.132,-0.070,-0.630,-0.122
-325.355,-953.173,6.927,-0.070,-0.630,-0.173
-326.029,-952.611,7.024,-0.069,-0.631,-0.201
-326.011,-952.092,7.002,-0.071,-0.630,-0.139
-326.028,-953.936,7.026,-0.072,-0.628,-0.206
-325.837,-953.288,6.210,-0.014,-0.681,-0.166
-326.799,-952.599,5.844,0.012,-0.756,-0.114
-326.463,-953.311,6.099,-0.012,-0.774,-0.170
-325.844,-954.151,6.111,0.014,-0.767,-0.095
-325.849,-953.515,7.498,-0.020,-0.772,-0.077
-324.897,-953.194,7.911,-0.073,-0.768,-0.060
-325.000,-955.000,7.000,-0.070,-0.770,0.000
-324.973,-953.344,6.965,-0.073,-0.831,-0.006
-325.707,-952.634,7.038,-0.020,-0.850,0.060
-326.034,-953.149,6.958,0.014,-0.829,0.033
-326.252,-952.515,7.050,-0.014,-0.851,0.008
-326.997,-953.100,6.923,0.023,-0.829,0.099
-325.687,-952.717,7.143,0.078,-0.850,0.048
-326.089,-952.011,8.054,0.067,-0.834,0.000
-326.084,-952.922,8.035,0.004,-0.769,0.001
-325.749,-953.171,7.913,-0.010,-0.831,-0.005
-326.358,-952.075,8.133,0.047,-0.803,0.009
-325.330,-951.726,7.815,0.088,-0.751,-0.012
-326.920,-951.900,8.245,0.032,-0.782,0.016
-326.270,-951.785,7.620,0.020,-0.762,-0.024
-325.171,-950.937,7.077,0.152,-0.774,-0.070
-327.000,-952.000,8.000,-0.000,-0.770,-0.070
-325.203,-952.220,7.132,-0.151,-0.765,-0.135
-326.199,-951.481,7.513,-0.057,-0.782,-0.137
-327.045,-953.093,8.399,-0.171,-0.721,-0.181
-325.112,-951.497,7.620,-0.186,-0.699,-0.217
-326.815,-951.406,8.363,-0.136,-0.684,-0.220
-326.556,-953.007,7.629,-0.129,-0.619,-0.300
-324.978,-951.971,7.064,-0.069,-0.633,-0.352
-325.900,-952.920,8.013,-0.073,-0.632,-0.353
-326.873,-953.061,7.100,-0.005,-0.624,-0.289
-327.070,-952.872,7.631,-0.046,-0.639,-0.313
-326.501,-952.587,7.757,-0.050,-0.618,-0.378
-325.398,-953.452,6.643,0.022,-0.643,-0.310
-325.090,-953.554,7.217,-0.013,-0.616,-0.282
-326.130,-951.940,6.882,0.009,-0.643,-0.273
-326.000,-953.000,7.000,0.070,-0.700,-0.210
-325.976,-952.162,7.991,0.022,-0.634,-0.206
-325.373,-952.486,7.315,-0.120,-0.676,-0.215
-325.050,-953.171,6.752,-0.138,-0.713,-0.204
-326.650,-952.572,7.504,-0.169,-0.693,-0.216
-325.126,-952.949,8.126,-0.229,-0.701,-0.204
-325.354,-953.038,7.937,-0.302,-0.703,-0.215
-325.926,-954.076,8.025,-0.348,-0.696,-0.208
-324.979,-954.037,8.043,-0.284,-0.631,-0.207
-325.860,-954.560,7.177,-0.236,-0.685,-0.227
-326.028,-955.897,6.860,-0.070,-0.673,-0.108
-325.195,-955.192,7.171,0.080,-0.600,-0.062
-323.388,-954.816,6.589,0.200,-0.653,-0.052
-326.055,-954.726,5.981,0.305,-0.613,0.012
-325.511,-952.634,7.244,0.352,-0.639,0.000
-325.000,-952.000,7.000,0.210,-0.630,0.070
-328.185,-953.154,4.868,-0.001,-0.675,0.080
-325.622,-950.047,9.085,0.053,-0.788,0.051
-329.379,-949.239,12.251,-0.334,-0.719,0.127
-326.243,-955.241,6.203,-0.603,-0.904,0.121
-320.606,-956.086,4.448,-0.142,-0.932,0.026
-328.962,-952.170,7.548,0.187,-0.753,-0.090
-328.552,-951.004,7.984,0.279,-0.848,-0.062
-324.082,-951.011,7.994,0.093,-0.843,0.001
-324.642,-951.555,7.980,-0.129,-0.884,-0.056
-326.425,-953.463,8.085,-0.102,-0.938,-0.110
-326.403,-953.463,7.796,-0.024,-0.857,-0.194
-324.177,-952.575,8.510,-0.009,-0.840,-0.188
-325.603,-953.104,8.866,-0.094,-0.838,-0.130
-325.907,-952.949,7.906,-0.052,-0.840,-0.142
-326.000,-953.000,8.000,0.070,-0.840,-0.140
-326.109,-953.016,7.992,0.134,-0.843,-0.140
-325.796,-953.004,8.114,0.148,-0.790,-0.139
-326.195,-952.347,7.314,0.106,-0.756,-0.143
-325.652,-951.503,7.260,0.010,-0.784,-0.135
-326.232,-952.082,8.246,-0.110,-0.746,-0.147
-325.692,-951.799,7.893,-0.140,-0.693,-0.132
-325.025,-952.102,8.027,-0.140,-0.702,-0.145
-325.927,-953.029,8.020,-0.140,-0.702,-0.210
-326.802,-952.069,7.956,-0.142,-0.694,-0.151
-327.194,-952.444,8.046,-0.101,-0.713,-0.174
-326.282,-952.953,7.963,-0.047,-0.657,-0.233
-325.903,-952.813,8.010,-0.093,-0.625,-0.190
-325.980,-952.813,8.021,-0.040,-0.629,-0.235
-325.987,-951.898,7.935,-0.006,-0.632,-0.278
-325.000,-952.000,7.000,-0.070,-0.630,-0.210
-323.888,-951.985,6.856,-0.067,-0.625,-0.203
-325.573,-952.640,7.910,-0.122,-0.645,-0.223
-325.650,-953.069,7.473,-0.146,-0.572,-0.187
-324.512,-952.602,7.031,-0.142,-0.589,-0.262
-325.410,-952.999,8.687,-0.120,-0.636,-0.255
-326.029,-952.885,8.802,-0.068,-0.632,-0.217
-325.998,-953.037,7.977,-0.147,-0.626,-0.281
-325.999,-953.039,8.000,-0.147,-0.561,-0.215
-326.007,-952.870,8.005,-0.071,-0.615,-0.206
-325.909,-953.038,7.521,-0.112,-0.635,-0.170
-326.032,-952.532,6.500,-0.162,-0.657,-0.149
-325.602,-953.172,7.772,-0.090,-0.717,-0.245
-324.815,-952.509,7.631,0.024,-0.691,-0.185
-325.115,-952.135,7.107,-0.014,-0.703,-0.228
-326.000,-953.000,8.000,-0.070,-0.700,-0.280
-326.118,-952.034,7.091,-0.065,-0.699,-0.210
-325.124,-952.749,7.054,-0.123,-0.701,-0.262
-325.389,-952.385,6.676,-0.148,-0.702,-0.286
-326.243,-951.806,8.138,-0.137,-0.692,-0.282
-325.570,-953.530,8.622,-0.131,-0.723,-0.265
-324.888,-953.788,6.833,-0.048,-0.770,-0.192
-325.056,-953.001,8.090,0.000,-0.694,-0.137
-325.969,-953.933,7.156,-0.001,-0.694,-0.137
-325.326,-953.414,6.621,0.007,-0.764,-0.198
-324.548,-952.286,8.079,-0.047,-0.771,-0.222
-325.783,-953.868,7.319,-0.084,-0.771,-0.175
-325.522,-953.157,7.228,-0.043,-0.769,-0.124
-325.066,-953.308,8.247,0.011,-0.771,-0.153
-326.135,-953.916,7.829,-0.005,-0.769,-0.128
-326.000,-953.000,7.000,-0.000,-0.770,-0.070
-325.917,-953.048,7.841,0.008,-0.773,-0.134
-326.177,-952.741,8.211,-0.059,-0.723,-0.098
-325.278,-953.723,7.315,-0.069,-0.677,-0.050
-324.786,-953.257,7.113,-0.080,-0.746,-0.088
-325.216,-952.915,8.682,-0.044,-0.755,-0.044
-326.141,-952.796,8.697,-0.003,-0.691,0.007
-325.965,-953.139,6.916,-0.075,-0.702,-0.003
-325.983,-954.130,6.965,-0.074,-0.701,-0.066
-325.366,-951.272,7.038,-0.012,-0.699,-0.077
-324.434,-952.040,7.013,0.015,-0.700,-0.062
-325.976,-952.977,6.869,-0.046,-0.702,-0.079
-325.244,-953.233,7.451,-0.055,-0.693,-0.059
-325.483,-953.667,7.891,0.015,-0.717,-0.088
-327.034,-951.898,6.944,-0.006,-0.771,-0.145
-326.000,-953.000,8.000,-0.000,-0.700,-0.140
-326.043,-952.179,8.140,0.007,-0.691,-0.138
-324.588,-952.477,7.779,-0.055,-0.715,-0.144
-323.926,-953.149,8.278,-0.078,-0.676,-0.130
-326.245,-952.657,7.655,-0.061,-0.749,-0.173
-326.857,-952.678,8.517,-0.089,-0.751,-0.209
-325.652,-951.901,8.871,-0.155,-0.694,-0.114
-325.034,-953.125,7.959,-0.214,-0.700,-0.071
-325.971,-953.966,7.986,-0.215,-0.699,-0.074
-325.271,-954.802,8.008,-0.100,-0.706,-0.009
-324.748,-954.477,8.017,-0.009,-0.653,-0.001
-325.027,-952.992,7.939,0.002,-0.620,0.031
-325.155,-952.833,8.120,-0.004,-0.635,0.087
-326.127,-953.007,7.736,0.012,-0.627,0.059
-324.717,-952.907,6.991,0.079,-0.631,0.079
-325.000,-952.000,8.000,0.070,-0.630,0.140
-326.971,-952.790,8.158,0.008,-0.631,0.142
-326.176,-953.227,7.133,-0.051,-0.625,0.136
-326.401,-952.555,6.977,-0.086,-0.668,0.147
-327.185,-953.102,7.007,-0.049,-0.716,0.114
-326.668,-952.411,6.957,-0.106,-0.687,0.042
-325.720,-951.954,7.137,-0.125,-0.715,-0.007
-325.014,-951.998,8.030,0.008,-0.772,0.003
-325.951,-951.993,7.105,0.005,-0.771,0.005
-325.324,-952.017,7.412,-0.013,-0.769,-0.113
-325.063,-951.764,9.372,0.023,-0.771,-0.162
-327.202,-952.201,7.559,-0.056,-0.769,-0.116
-325.859,-953.394,7.401,-0.045,-0.771,-0.178
-325.316,-953.873,7.835,0.005,-0.769,-0.210
-327.119,-952.863,6.997,0.004,-0.771,-0.212
-326.000,-953.000,8.000,0.070,-0.770,-0.210
-325.854,-953.129,8.060,0.074,-0.769,-0.202
-326.208,-952.092,7.951,0.067,-0.774,-0.273
-325.688,-952.277,8.014,0.046,-0.761,-0.244
-326.205,-953.154,8.014,-0.052,-0.803,-0.197
-325.729,-952.539,7.982,-0.064,-0.839,-0.216
-326.287,-952.106,7.950,-0.083,-0.743,-0.209
-326.987,-954.207,6.898,-0.142,-0.702,-0.208
-326.054,-954.175,6.884,-0.141,-0.766,-0.145
-325.939,-952.633,8.072,-0.142,-0.779,-0.129
-325.489,-954.182,7.614,-0.102,-0.722,-0.157
-324.562,-952.876,9.058,-0.022,-0.689,-0.095
-325.517,-953.407,7.982,0.005,-0.709,-0.066
-326.173,-952.492,7.353,-0.002,-0.693,-0.070
-327.118,-953.407,9.054,0.001,-0.705,-0.070
-326.000,-953.000,8.000,0.000,-0.700,-0.070
-325.714,-952.476,8.919,-0.002,-0.635,-0.069
-326.516,-953.352,7.665,0.006,-0.630,-0.072
-325.171,-950.437,7.066,-0.036,-0.623,-0.067
-327.190,-955.773,8.557,-0.107,-0.661,-0.074
-326.366,-951.772,7.635,-0.152,-0.710,-0.066
-327.525,-955.632,8.203,-0.127,-0.697,-0.073
-326.793,-952.261,7.939,-0.068,-0.701,-0.069
-326.750,-952.150,7.946,-0.070,-0.700,-0.068
-327.801,-955.645,8.139,-0.020,-0.700,-0.076
-325.124,-947.886,7.810,0.023,-0.699,-0.055
-327.259,-957.800,8.203,-0.052,-0.703,-0.119
-324.806,-946.960,7.815,-0.064,-0.694,-0.119
-328.356,-957.024,8.138,-0.088,-0.714,-0.068
-325.059,-950.123,7.929,-0.141,-0.777,-0.157
-327.000,-953.000,8.000,-0.070,-0.770,-0.210
-327.476,-956.867,8.035,-0.002,-0.708,-0.210
-322.513,-944.036,8.522,-0.035,-0.689,-0.208
-328.653,-965.247,9.522,-0.172,-0.742,-0.242
-320.576,-939.652,8.112,-0.177,-0.786,-0.306
-329.472,-961.738,8.451,-0.024,-0.744,-0.244
-322.878,-946.714,8.877,-0.105,-0.701,-0.219
-327.304,-957.464,7.961,-0.131,-0.776,-0.281
-327.528,-957.216,7.976,-0.003,-0.774,-0.217
-320.153,-938.783,8.713,-0.053,-0.758,-0.197
-334.198,-978.096,9.396,-0.079,-0.787,-0.231
-313.973,-917.142,8.134,-0.067,-0.750,-0.159
-340.787,-996.952,8.243,-0.066,-0.778,-0.146
-310.168,-905.726,7.657,-0.085,-0.655,-0.122
-340.775,-994.736,8.321,-0.143,-0.733,-0.067
-325.000,-953.000,8.000,-0.070,-0.700,-0.070
-34.447,-101.294,0.864,-0.002,-0.073,-0.009
