acc_x[mg],acc_y[mg],acc_z[mg],gyro_x[dps],gyro_y[dps],gyro_z[dps]
-320.000,-952.000,9.000,-0.070,-0.630,-0.280
-334.900,-993.904,9.501,-0.147,-0.654,-0.341
-303.170,-904.881,7.645,-0.073,-0.605,-0.455
-334.609,-998.438,8.990,-0.118,-0.646,-0.502
-307.357,-917.422,8.490,-0.131,-0.643,-0.509
-327.628,-981.971,7.909,-0.186,-0.720,-0.576
-313.823,-941.691,8.035,-0.277,-0.693,-0.555
-319.549,-958.473,7.986,-0.131,-0.699,-0.559
-321.244,-961.639,7.980,-0.197,-0.634,-0.496
-315.263,-947.285,8.090,-0.244,-0.675,-0.435
-322.925,-968.241,7.768,-0.089,-0.724,-0.332
-316.522,-944.683,8.734,-0.078,-0.678,-0.227
-322.991,-965.781,8.662,-0.053,-0.719,-0.190
-317.870,-949.024,7.943,-0.097,-0.684,-0.126
-320.971,-959.297,7.907,-0.135,-0.712,-0.143
-319.000,-955.000,7.000,-0.070,-0.770,-0.070
-318.038,-953.058,7.851,-0.072,-0.769,0.006
-321.215,-960.324,8.046,-0.020,-0.774,-0.064
-318.471,-948.359,8.533,0.008,-0.760,-0.029
-321.372,-960.051,8.860,0.015,-0.802,-0.012
-318.921,-951.828,7.687,0.097,-0.851,-0.094
-320.519,-957.281,8.050,0.046,-0.834,-0.056
-318.728,-954.187,6.901,0.003,-0.842,-0.077
-318.772,-954.222,7.793,0.067,-0.844,-0.140
-320.236,-958.073,9.284,0.069,-0.780,-0.135
-320.189,-951.011,7.797,0.086,-0.765,-0.152
-321.221,-957.716,9.352,-0.029,-0.772,-0.118
-319.162,-955.557,9.435,-0.176,-0.770,-0.185
-320.539,-954.505,7.831,0.004,-0.768,-0.185
-319.650,-955.921,9.221,0.053,-0.772,-0.053
-319.000,-955.000,9.000,-0.070,-0.770,0.000
-319.988,-954.142,8.862,0.052,-0.708,0.005
-319.962,-954.014,9.259,0.044,-0.694,-0.016
-320.051,-953.661,8.588,-0.065,-0.704,0.059
-319.885,-955.263,9.834,-0.084,-0.697,0.038
-320.058,-956.931,9.433,-0.170,-0.701,-0.001
-319.853,-954.456,7.792,-0.114,-0.700,-0.013
-318.929,-955.107,8.034,-0.073,-0.700,-0.069
-318.949,-955.136,8.019,-0.077,-0.700,-0.003
-319.202,-953.998,7.971,0.050,-0.701,-0.051
-318.556,-954.584,8.021,0.079,-0.697,-0.079
-320.259,-955.108,7.992,0.066,-0.705,-0.092
-320.782,-954.366,7.991,0.072,-0.691,-0.161
-319.641,-953.875,8.015,0.063,-0.717,-0.128
-318.968,-954.047,7.987,-0.016,-0.775,-0.145
-320.000,-954.000,8.000,-0.070,-0.770,-0.140
-320.319,-953.874,8.023,-0.061,-0.769,-0.137
-318.045,-954.905,7.947,-0.136,-0.771,-0.144
-319.231,-954.217,8.083,-0.094,-0.771,-0.136
-319.685,-954.026,7.887,-0.089,-0.765,-0.139
-318.967,-955.104,8.125,-0.155,-0.787,-0.154
-320.202,-954.889,7.879,-0.136,-0.852,-0.222
-319.966,-955.001,8.076,-0.139,-0.835,-0.207
-320.001,-954.101,8.987,-0.077,-0.773,-0.207
-319.266,-953.740,8.893,-0.004,-0.767,-0.218
-318.664,-954.690,9.793,-0.032,-0.773,-0.198
-319.583,-954.799,9.604,-0.129,-0.769,-0.227
-319.848,-954.818,8.789,-0.114,-0.757,-0.176
-318.477,-955.131,9.087,-0.066,-0.669,-0.137
-318.117,-956.082,8.974,-0.065,-0.632,-0.140
-319.000,-955.000,9.000,-0.000,-0.630,-0.140
-318.907,-954.744,8.994,0.005,-0.565,-0.142
-319.912,-955.576,9.041,-0.042,-0.564,-0.135
-319.284,-953.016,8.891,-0.160,-0.515,-0.147
-319.295,-953.804,9.213,-0.228,-0.505,-0.131
-319.852,-954.839,8.542,-0.201,-0.581,-0.150
-318.917,-955.339,8.142,-0.214,-0.550,-0.130
-320.098,-957.011,8.980,-0.208,-0.563,-0.146
-320.055,-955.158,7.151,-0.148,-0.563,-0.211
-319.941,-954.752,6.762,-0.022,-0.547,-0.152
-319.404,-955.069,7.218,0.013,-0.618,-0.138
-319.024,-954.618,7.141,-0.010,-0.625,-0.132
-320.463,-954.952,8.566,0.009,-0.656,-0.171
-319.637,-954.912,7.428,-0.013,-0.707,-0.203
-320.194,-955.021,7.167,-0.082,-0.702,-0.132
-320.000,-955.000,8.000,-0.140,-0.770,-0.140
-319.716,-955.010,7.086,-0.143,-0.782,-0.138
-321.272,-954.877,7.008,-0.098,-0.704,-0.191
-319.400,-955.479,6.855,-0.012,-0.737,-0.193
-319.417,-955.591,7.519,-0.009,-0.785,-0.086
-319.707,-954.529,8.016,0.028,-0.758,-0.074
-319.026,-955.165,8.153,0.064,-0.783,-0.066
-320.057,-954.917,9.016,-0.002,-0.843,-0.071
-320.013,-954.007,8.093,0.063,-0.841,-0.071
-320.067,-954.712,7.831,0.087,-0.837,-0.068
-319.209,-955.179,8.219,0.012,-0.845,-0.069
-319.257,-953.988,7.706,0.001,-0.833,-0.096
-320.248,-954.273,8.547,-0.017,-0.849,-0.162
-319.709,-954.721,8.875,-0.097,-0.823,-0.123
-318.905,-952.802,7.875,-0.141,-0.765,-0.153
-319.000,-954.000,8.000,-0.140,-0.770,-0.210
-319.965,-955.093,8.896,-0.201,-0.772,-0.204
-319.329,-954.681,9.159,-0.221,-0.766,-0.265
-318.723,-955.728,8.334,-0.172,-0.778,-0.288
-319.141,-955.331,8.167,-0.101,-0.740,-0.256
-318.592,-954.768,9.417,-0.063,-0.686,-0.187
-317.982,-954.975,8.630,-0.072,-0.708,-0.233
-319.105,-955.018,8.059,-0.068,-0.696,-0.277
-319.099,-955.033,9.007,-0.008,-0.633,-0.212
-318.629,-954.809,8.118,0.071,-0.627,-0.215
-320.198,-955.764,8.602,0.022,-0.631,-0.161
-318.504,-954.887,8.787,-0.001,-0.630,-0.138
-318.630,-953.606,7.619,-0.035,-0.629,-0.120
-319.996,-955.675,8.227,-0.181,-0.631,-0.057
-318.961,-955.754,7.889,-0.207,-0.629,-0.078
-320.000,-954.000,8.000,-0.210,-0.630,-0.140
-319.165,-954.779,8.120,-0.218,-0.632,-0.150
-319.522,-955.256,7.710,-0.153,-0.626,-0.075
-319.865,-954.450,8.884,-0.139,-0.637,-0.108
-318.209,-955.538,8.539,-0.120,-0.617,-0.152
-319.909,-955.551,7.920,-0.036,-0.657,-0.134
-320.895,-954.913,7.985,0.002,-0.697,-0.148
-319.985,-955.000,8.023,0.000,-0.624,-0.216
-320.920,-954.983,8.055,0.001,-0.625,-0.217
-320.492,-955.106,7.078,-0.005,-0.693,-0.136
-318.778,-954.098,7.570,0.015,-0.699,-0.200
-319.722,-953.777,8.219,-0.071,-0.727,-0.171
-319.721,-953.722,7.857,-0.165,-0.794,-0.155
-320.444,-954.265,8.091,-0.127,-0.744,-0.220
-320.813,-954.973,7.947,-0.146,-0.700,-0.213
-319.000,-954.000,8.000,-0.140,-0.700,-0.280
-319.044,-954.737,8.884,-0.133,-0.691,-0.284
-318.084,-955.906,9.124,-0.156,-0.766,-0.276
-319.031,-955.879,8.844,-0.089,-0.725,-0.280
-319.970,-955.410,9.209,-0.055,-0.721,-0.287
-318.512,-954.815,8.614,0.056,-0.771,-0.258
-319.213,-956.311,7.958,0.147,-0.681,-0.206
-318.931,-955.876,7.989,0.141,-0.705,-0.208
-318.917,-954.974,7.959,0.145,-0.706,-0.144
-319.957,-955.205,8.844,0.026,-0.634,-0.135
-319.376,-953.832,9.056,-0.014,-0.634,-0.142
-318.628,-954.849,9.024,-0.014,-0.618,-0.144
-319.304,-955.856,8.873,-0.118,-0.659,-0.116
-318.389,-954.617,9.306,-0.136,-0.707,-0.061
-317.017,-955.167,9.925,-0.144,-0.698,-0.071
-319.000,-955.000,8.000,-0.140,-0.700,-0.070
-320.028,-953.945,7.767,-0.077,-0.700,-0.131
-319.912,-954.849,9.025,-0.064,-0.700,-0.145
-320.036,-954.325,8.391,-0.076,-0.700,-0.166
-319.840,-953.610,7.825,-0.062,-0.701,-0.254
-320.050,-953.914,8.277,-0.088,-0.698,-0.297
-319.841,-954.039,9.160,-0.156,-0.702,-0.362
-318.948,-955.092,8.932,-0.213,-0.698,-0.346
-318.967,-955.101,8.038,-0.212,-0.635,-0.345
-319.056,-953.929,7.958,-0.200,-0.617,-0.412
-319.325,-955.104,8.039,-0.264,-0.685,-0.422
-320.609,-956.232,7.957,-0.260,-0.702,-0.419
-318.708,-955.280,8.046,-0.169,-0.704,-0.420
-318.451,-954.941,7.940,-0.138,-0.685,-0.419
-319.975,-955.004,8.085,-0.139,-0.624,-0.421
-318.000,-955.000,9.000,-0.140,-0.630,-0.420
-318.699,-954.950,9.116,-0.199,-0.574,-0.358
-319.358,-955.681,8.190,-0.227,-0.538,-0.346
-318.544,-956.040,7.931,-0.158,-0.617,-0.321
-319.367,-955.605,7.993,-0.139,-0.625,-0.257
-318.362,-956.033,8.187,-0.136,-0.640,-0.288
-318.175,-955.776,9.212,-0.145,-0.615,-0.174
-319.003,-954.951,8.912,-0.137,-0.558,-0.147
-318.086,-954.083,8.012,-0.134,-0.561,-0.213
-317.797,-953.742,8.084,-0.257,-0.553,-0.141
-318.739,-954.771,7.308,-0.292,-0.609,-0.192
-318.956,-954.534,6.886,-0.276,-0.637,-0.204
-319.003,-955.671,7.036,-0.266,-0.629,-0.244
-318.798,-957.027,7.008,-0.184,-0.627,-0.268
-317.893,-955.784,6.970,-0.134,-0.636,-0.210
-318.000,-955.000,7.000,-0.070,-0.700,-0.280
-318.872,-954.893,7.931,-0.002,-0.704,-0.284
-319.211,-955.859,7.401,-0.041,-0.693,-0.282
-318.163,-955.301,6.694,-0.126,-0.734,-0.242
-318.305,-954.869,7.277,-0.138,-0.814,-0.198
-318.944,-956.479,6.732,-0.147,-0.839,-0.214
-317.709,-956.829,7.288,-0.128,-0.850,-0.211
-318.105,-955.979,7.978,-0.067,-0.913,-0.207
-318.996,-956.886,7.063,-0.069,-0.911,-0.143
-318.938,-957.308,6.873,-0.070,-0.912,-0.146
-319.070,-955.736,7.662,-0.075,-0.869,-0.053
-318.749,-956.936,8.217,-0.039,-0.820,0.025
-319.190,-957.801,7.769,0.030,-0.871,-0.002
-318.627,-956.548,8.323,0.091,-0.919,0.108
-318.023,-955.970,9.023,0.144,-0.903,0.136
-318.000,-956.000,9.000,0.140,-0.840,0.140
-316.960,-955.257,9.092,0.142,-0.835,0.145
-318.479,-953.882,8.148,0.095,-0.850,0.129
-318.721,-954.705,8.438,0.024,-0.796,0.158
-317.710,-953.944,9.319,-0.032,-0.759,0.102
-319.875,-952.780,8.589,-0.082,-0.779,0.056
-319.526,-954.233,8.000,-0.064,-0.759,-0.023
-318.001,-953.950,9.127,-0.072,-0.695,-0.069
-318.967,-953.974,10.037,-0.072,-0.633,-0.066
-318.231,-953.978,8.488,-0.064,-0.623,-0.132
-318.313,-954.461,6.959,-0.082,-0.640,-0.136
-319.406,-954.646,7.879,-0.031,-0.614,-0.177
-318.500,-953.321,9.553,0.011,-0.663,-0.216
-319.493,-954.475,8.455,-0.014,-0.703,-0.219
-319.875,-954.895,8.159,-0.082,-0.701,-0.288
-319.000,-954.000,9.000,-0.140,-0.700,-0.280
-319.070,-953.986,8.029,-0.143,-0.697,-0.276
-318.205,-953.935,8.774,-0.130,-0.708,-0.286
-317.861,-954.305,8.573,-0.187,-0.686,-0.273
-318.178,-955.356,7.763,-0.194,-0.722,-0.286
-319.554,-956.120,8.080,-0.120,-0.662,-0.276
-319.807,-957.168,8.067,-0.146,-0.644,-0.277
-318.993,-956.920,9.078,-0.059,-0.698,-0.202
-319.052,-956.018,9.071,0.003,-0.631,-0.140
-318.034,-956.058,8.125,-0.018,-0.687,-0.148
-318.678,-955.166,7.922,0.072,-0.668,-0.089
-318.514,-954.673,8.079,0.022,-0.605,-0.065
-318.024,-954.882,7.904,0.011,-0.662,-0.071
-319.269,-954.967,8.101,-0.028,-0.710,-0.072
-318.904,-954.990,7.918,-0.061,-0.690,-0.068
-319.000,-955.000,8.000,-0.000,-0.630,-0.070
-319.044,-955.077,8.999,-0.126,-0.689,-0.132
-318.945,-954.156,8.250,-0.103,-0.710,-0.148
-318.952,-954.243,7.945,-0.049,-0.692,-0.129
-319.014,-955.091,7.897,-0.082,-0.705,-0.171
-318.628,-954.686,8.367,-0.066,-0.697,-0.223
-318.013,-954.988,8.933,-0.064,-0.701,-0.202
-319.057,-953.892,7.967,0.005,-0.700,-0.214
-318.138,-953.892,8.892,0.003,-0.699,-0.277
-317.639,-954.992,9.239,-0.005,-0.750,-0.282
-319.033,-954.681,8.183,0.003,-0.797,-0.280
-318.199,-955.068,7.954,0.002,-0.708,-0.277
-318.301,-954.472,8.036,-0.020,-0.734,-0.287
-318.961,-955.464,7.941,-0.083,-0.758,-0.263
-317.832,-955.849,8.091,-0.065,-0.697,-0.205
-318.000,-955.000,9.000,-0.070,-0.700,-0.210
-318.979,-956.745,9.087,-0.073,-0.635,-0.155
-318.345,-957.214,8.285,-0.067,-0.674,-0.078
-317.626,-956.252,7.701,-0.072,-0.719,-0.068
-318.544,-955.228,8.662,-0.073,-0.667,-0.071
-318.930,-954.808,8.736,-0.054,-0.613,-0.069
-319.151,-954.945,7.997,0.010,-0.649,-0.071
-320.024,-955.036,9.083,-0.002,-0.699,-0.069
-319.119,-955.074,9.066,-0.000,-0.634,-0.067
-318.063,-953.985,8.200,-0.048,-0.628,-0.128
-317.855,-954.622,7.232,-0.097,-0.623,-0.144
-318.723,-954.330,7.294,-0.013,-0.668,-0.165
-320.632,-953.958,8.354,-0.011,-0.706,-0.233
-319.211,-955.215,7.741,0.023,-0.701,-0.194
-318.073,-954.927,8.200,0.068,-0.696,-0.222
-319.000,-955.000,9.000,0.000,-0.700,-0.280
-318.091,-955.009,8.112,-0.061,-0.770,-0.279
-318.592,-955.008,7.935,-0.126,-0.714,-0.285
-319.236,-954.699,7.986,-0.147,-0.730,-0.272
-318.467,-955.281,8.324,-0.134,-0.788,-0.290
-317.552,-955.933,9.286,-0.156,-0.751,-0.269
-317.016,-955.988,8.749,-0.224,-0.679,-0.290
-318.084,-955.983,7.981,-0.204,-0.632,-0.274
-318.064,-955.964,8.001,-0.140,-0.698,-0.210
-317.793,-956.190,7.976,-0.148,-0.647,-0.221
-318.768,-954.869,8.058,-0.086,-0.624,-0.148
-318.915,-955.549,7.895,-0.074,-0.604,-0.179
-319.046,-955.105,8.163,-0.042,-0.543,-0.196
-318.752,-954.071,7.701,-0.004,-0.566,-0.126
-317.959,-956.231,7.010,-0.080,-0.562,-0.144
-319.000,-955.000,8.000,-0.070,-0.630,-0.140
-320.087,-954.741,8.141,-0.064,-0.634,-0.141
-318.517,-955.426,7.135,-0.119,-0.667,-0.133
-317.687,-954.183,7.355,-0.188,-0.733,-0.184
-317.826,-955.902,8.746,-0.215,-0.645,-0.214
-316.477,-954.970,8.750,-0.212,-0.651,-0.225
-317.389,-954.191,7.880,-0.201,-0.706,-0.290
-317.942,-956.072,8.022,-0.137,-0.699,-0.278
-317.020,-955.120,8.014,-0.139,-0.699,-0.279
-317.043,-954.764,7.974,-0.093,-0.705,-0.279
-316.799,-955.141,8.023,-0.040,-0.657,-0.317
-317.199,-954.372,7.983,-0.153,-0.612,-0.396
-316.538,-955.756,8.001,-0.225,-0.647,-0.429
-317.674,-956.968,8.009,-0.203,-0.607,-0.405
-318.910,-955.886,7.986,-0.214,-0.558,-0.344
-317.000,-957.000,8.000,-0.210,-0.560,-0.350
-317.695,-958.128,8.068,-0.149,-0.555,-0.355
-319.001,-956.441,7.248,-0.092,-0.613,-0.302
-318.486,-955.607,6.877,-0.016,-0.639,-0.233
-317.227,-955.935,7.038,-0.022,-0.624,-0.184
-317.231,-955.762,7.152,-0.086,-0.634,-0.108
-317.968,-956.027,8.236,-0.062,-0.627,-0.070
-316.953,-955.991,7.902,-0.072,-0.633,-0.067
-317.876,-956.005,6.987,-0.072,-0.695,-0.004
-318.294,-955.327,7.813,-0.064,-0.714,0.004
-316.985,-953.888,8.102,-0.081,-0.640,-0.002
-317.439,-954.313,7.946,-0.053,-0.659,-0.001
-318.115,-954.948,8.006,-0.104,-0.715,0.005
-317.871,-954.971,8.041,-0.142,-0.693,-0.015
-318.120,-954.926,7.907,-0.142,-0.703,-0.077
-319.000,-954.000,7.000,-0.140,-0.700,-0.070
-319.016,-954.741,7.769,-0.074,-0.753,-0.065
-319.040,-955.396,8.361,-0.114,-0.840,-0.121
-318.425,-953.817,7.080,-0.158,-0.798,-0.155
-317.655,-954.388,7.449,-0.123,-0.760,-0.121
-318.322,-954.782,8.138,-0.166,-0.776,-0.173
-319.076,-955.188,7.861,-0.216,-0.766,-0.201
-318.986,-956.015,6.949,-0.207,-0.773,-0.139
-319.000,-955.964,7.827,-0.146,-0.836,-0.203
-318.356,-956.865,9.241,-0.077,-0.847,-0.224
-316.945,-956.372,7.367,-0.071,-0.830,-0.156
-317.549,-955.088,7.528,-0.043,-0.854,-0.132
-317.739,-954.924,7.685,0.026,-0.809,-0.149
-316.760,-956.536,7.211,-0.036,-0.764,-0.123
-317.138,-956.792,9.193,-0.151,-0.771,-0.065
-318.000,-955.000,8.000,-0.140,-0.770,-0.070
-318.055,-955.844,7.776,-0.077,-0.715,-0.071
-317.880,-955.431,8.376,-0.060,-0.631,-0.070
-318.155,-954.931,7.474,-0.110,-0.674,-0.065
-317.381,-956.459,8.893,-0.159,-0.688,-0.095
-316.916,-955.139,8.571,-0.102,-0.594,-0.166
-316.946,-955.156,8.018,0.023,-0.558,-0.224
-317.053,-954.893,7.968,-0.010,-0.560,-0.283
-317.960,-953.963,7.954,-0.135,-0.560,-0.282
-318.017,-954.928,8.169,-0.144,-0.560,-0.274
-317.979,-954.201,7.676,-0.140,-0.560,-0.323
-317.834,-953.921,8.513,-0.132,-0.559,-0.372
-318.126,-955.852,7.099,-0.168,-0.560,-0.310
-317.663,-956.859,7.653,-0.208,-0.561,-0.294
-317.037,-954.651,8.884,-0.128,-0.556,-0.350
-318.000,-955.000,7.000,-0.140,-0.490,-0.280
-318.081,-956.985,7.813,-0.209,-0.478,-0.332
-317.305,-956.185,8.104,-0.166,-0.558,-0.376
-316.600,-955.797,8.075,-0.089,-0.519,-0.291
-317.633,-955.988,7.445,-0.065,-0.480,-0.268
-317.795,-957.384,7.256,-0.071,-0.503,-0.165
-318.300,-956.382,7.880,-0.071,-0.583,-0.148
-318.926,-955.073,5.869,-0.067,-0.629,-0.134
-317.076,-956.945,5.932,-0.004,-0.624,-0.069
-317.681,-956.206,6.072,0.004,-0.752,-0.083
-318.154,-955.861,6.523,0.031,-0.734,0.000
-317.839,-955.220,6.941,0.104,-0.707,-0.075
-317.904,-954.920,5.385,0.021,-0.817,-0.136
-318.244,-954.484,6.680,0.013,-0.848,-0.060
-318.957,-952.966,8.069,-0.019,-0.922,-0.159
-317.000,-954.000,8.000,-0.140,-0.910,-0.210
-315.930,-953.088,7.964,-0.077,-0.843,-0.264
-316.706,-954.272,8.666,-0.150,-0.841,-0.342
-317.637,-954.865,9.272,-0.295,-0.839,-0.378
-317.768,-953.006,8.714,-0.229,-0.824,-0.470
-316.386,-954.936,9.318,-0.241,-0.731,-0.486
-316.083,-957.356,8.576,-0.375,-0.703,-0.496
-317.077,-957.984,6.968,-0.339,-0.697,-0.486
-317.088,-957.061,7.907,-0.152,-0.634,-0.423
-315.959,-957.549,8.159,-0.073,-0.578,-0.420
-317.196,-958.906,7.800,-0.040,-0.503,-0.388
-318.356,-957.947,8.254,0.084,-0.490,-0.273
-317.430,-955.803,7.518,0.147,-0.482,-0.171
-316.893,-954.973,6.946,0.012,-0.508,-0.128
-317.097,-956.172,6.999,-0.159,-0.563,-0.057
-318.000,-956.000,7.000,-0.210,-0.560,-0.000
-318.054,-955.870,7.023,-0.211,-0.620,0.000
-317.911,-956.259,6.940,-0.207,-0.636,0.001
-318.079,-955.011,7.108,-0.219,-0.653,-0.002
-317.487,-954.890,6.818,-0.178,-0.751,0.003
-316.906,-954.668,7.364,-0.132,-0.767,-0.002
-318.452,-955.235,8.050,-0.137,-0.773,-0.003
-318.907,-955.987,8.010,-0.063,-0.769,-0.079
-317.091,-955.065,8.044,-0.002,-0.768,-0.141
-316.909,-954.897,7.105,0.004,-0.775,-0.126
-316.981,-954.935,7.534,-0.041,-0.762,-0.238
-316.973,-954.680,8.255,-0.089,-0.780,-0.296
-316.812,-955.154,7.837,-0.052,-0.758,-0.273
-317.284,-956.193,8.077,-0.088,-0.782,-0.280
-317.982,-955.846,8.017,-0.051,-0.759,-0.285
-317.000,-955.000,9.000,0.070,-0.700,-0.350
-316.927,-955.024,9.180,0.015,-0.705,-0.355
-317.078,-954.313,8.072,-0.055,-0.645,-0.343
-316.869,-953.502,8.084,-0.136,-0.626,-0.357
-316.983,-954.655,7.844,-0.297,-0.627,-0.343
-316.926,-956.382,8.195,-0.348,-0.638,-0.356
-316.998,-957.070,7.756,-0.251,-0.615,-0.346
-317.004,-958.104,6.990,-0.132,-0.560,-0.352
-317.008,-958.144,7.022,-0.011,-0.625,-0.354
-316.956,-956.059,6.849,0.121,-0.637,-0.242
-317.036,-957.178,7.839,0.151,-0.624,-0.143
-316.778,-957.337,7.561,0.131,-0.633,-0.150
-317.188,-954.837,6.828,0.149,-0.630,-0.111
-316.582,-955.190,7.054,0.126,-0.627,-0.064
-316.150,-954.889,6.997,0.059,-0.636,-0.070
-318.000,-955.000,7.000,-0.000,-0.700,-0.070
-317.261,-954.321,6.921,-0.058,-0.704,-0.132
-316.630,-952.804,7.823,-0.166,-0.696,-0.143
-317.810,-953.703,7.596,-0.306,-0.704,-0.172
-317.612,-953.490,6.636,-0.366,-0.697,-0.228
-316.497,-954.749,7.448,-0.340,-0.701,-0.208
-316.018,-957.258,7.962,-0.354,-0.700,-0.310
-317.111,-955.793,6.906,-0.266,-0.700,-0.347
-317.999,-953.995,6.889,-0.077,-0.700,-0.345
-317.302,-955.523,8.141,-0.111,-0.702,-0.413
-316.066,-955.833,6.421,-0.175,-0.694,-0.450
-316.333,-953.128,7.124,-0.049,-0.712,-0.557
-317.237,-953.323,9.799,-0.016,-0.669,-0.522
-316.668,-953.882,8.530,-0.217,-0.627,-0.505
-315.971,-954.216,9.238,-0.452,-0.625,-0.559
-316.000,-956.000,9.000,-0.630,-0.560,-0.490
-315.114,-956.804,7.922,-0.761,-0.558,-0.486
-315.472,-958.037,8.281,-0.740,-0.522,-0.495
-316.505,-956.640,7.492,-0.578,-0.430,-0.460
-314.965,-955.536,8.980,-0.404,-0.427,-0.369
-315.665,-956.044,8.265,-0.341,-0.399,-0.361
-316.991,-957.411,6.938,-0.352,-0.342,-0.325
-315.961,-959.061,6.966,-0.349,-0.352,-0.205
-316.889,-959.031,6.917,-0.291,-0.352,-0.210
-317.256,-957.732,8.024,-0.064,-0.344,-0.159
-316.032,-954.172,7.655,0.113,-0.361,-0.094
-316.431,-955.262,8.824,-0.117,-0.329,-0.021
-316.872,-956.837,5.752,-0.322,-0.395,-0.018
-315.719,-954.050,3.198,-0.152,-0.392,-0.081
-317.443,-952.981,7.587,-0.259,-0.275,-0.068
-318.000,-954.000,7.000,-0.630,-0.420,-0.070
-315.062,-957.579,5.020,-0.773,-0.500,-0.062
-317.119,-957.749,5.082,-0.606,-0.462,-0.172
-317.985,-955.785,4.902,-0.228,-0.590,-0.233
-316.015,-955.650,5.054,-0.135,-0.631,-0.190
-316.044,-954.573,5.021,-0.103,-0.657,-0.236
-316.019,-956.563,4.855,0.013,-0.807,-0.286
-317.112,-956.892,3.978,0.001,-0.915,-0.278
-317.980,-955.971,4.901,0.066,-0.973,-0.278
-318.061,-956.226,5.189,0.024,-1.095,-0.291
-317.309,-954.804,4.729,-0.052,-1.137,-0.224
-316.785,-955.840,5.634,-0.131,-1.126,-0.217
-316.817,-957.110,6.105,-0.260,-1.250,-0.178
-315.559,-956.778,5.892,-0.279,-1.236,-0.148
-314.974,-955.793,6.169,-0.279,-1.191,-0.214
-315.000,-955.000,8.000,-0.280,-1.190,-0.140
-315.888,-956.674,8.152,-0.398,-1.126,-0.073
-315.481,-957.939,7.715,-0.451,-1.082,-0.067
-314.518,-957.844,8.804,-0.327,-0.957,-0.078
-315.343,-957.486,8.908,-0.229,-0.864,-0.037
-314.575,-956.565,9.323,-0.068,-0.686,0.005
-315.291,-957.159,10.021,0.103,-0.546,0.007
-314.851,-956.916,8.877,0.217,-0.479,0.074
-313.902,-956.012,7.996,0.278,-0.291,0.071
-315.805,-956.078,8.114,0.280,-0.221,0.120
-315.797,-955.103,7.258,0.283,-0.151,0.160
-316.718,-955.080,6.990,0.256,-0.176,0.118
-316.428,-956.241,6.694,0.155,-0.196,0.177
-316.370,-955.520,5.855,0.042,-0.135,0.211
-318.084,-955.142,5.991,-0.006,-0.226,0.212
-317.000,-957.000,5.000,-0.070,-0.280,0.210
-317.746,-957.127,4.854,-0.080,-0.339,0.149
-318.315,-956.780,5.303,-0.009,-0.399,0.127
-317.213,-957.121,4.140,-0.005,-0.496,0.185
-316.743,-956.172,4.180,0.030,-0.627,0.221
-317.504,-955.896,3.554,0.081,-0.750,0.201
-319.174,-955.791,3.112,0.066,-0.857,0.223
-317.841,-955.001,4.031,0.071,-0.917,0.281
-316.962,-955.938,3.963,0.071,-1.042,0.219
-317.789,-955.413,5.547,0.069,-1.105,0.142
-318.685,-953.833,6.382,0.070,-1.213,0.146
-318.728,-954.278,5.597,0.074,-1.280,0.129
-317.270,-955.290,6.603,0.049,-1.265,0.155
-317.037,-955.971,6.942,-0.014,-1.356,0.116
-316.957,-954.794,7.115,0.006,-1.315,0.070
-317.000,-955.000,8.000,-0.000,-1.260,0.070
-317.059,-956.020,8.018,-0.009,-1.265,0.002
-316.848,-955.778,8.016,0.059,-1.209,0.052
-317.252,-956.323,7.892,0.069,-1.150,0.046
-315.961,-954.246,8.470,0.080,-1.084,-0.027
-314.861,-952.940,8.952,0.035,-1.029,0.023
-316.400,-955.478,7.730,-0.093,-0.965,-0.027
-316.969,-954.819,8.102,-0.061,-0.905,-0.146
-316.086,-953.011,8.997,0.004,-0.783,-0.143
-315.060,-954.411,8.928,-0.162,-0.642,-0.129
-315.924,-956.035,9.193,-0.262,-0.635,-0.192
-318.157,-954.650,8.375,-0.078,-0.572,-0.217
-316.997,-953.854,7.955,0.003,-0.436,-0.205
-316.029,-955.321,7.971,-0.107,-0.427,-0.220
-317.136,-954.802,8.041,-0.131,-0.411,-0.294
-317.000,-954.000,8.000,-0.000,-0.350,-0.350
-316.098,-954.022,7.133,0.020,-0.348,-0.350
-316.366,-953.863,6.271,-0.124,-0.353,-0.350
-318.582,-954.471,5.739,-0.103,-0.345,-0.375
-318.207,-954.638,6.341,-0.077,-0.372,-0.475
-316.605,-953.431,5.443,-0.189,-0.453,-0.477
-317.097,-954.336,5.198,-0.305,-0.491,-0.516
-317.011,-954.969,5.979,-0.348,-0.492,-0.634
-317.939,-954.902,5.026,-0.282,-0.553,-0.630
-317.374,-956.752,5.756,-0.332,-0.623,-0.684
-316.591,-956.346,6.122,-0.331,-0.631,-0.710
-317.005,-955.557,6.020,-0.214,-0.652,-0.695
-314.885,-955.931,5.638,-0.225,-0.743,-0.701
-315.654,-956.060,5.021,-0.187,-0.767,-0.705
-316.974,-957.169,6.158,-0.138,-0.777,-0.689
-316.000,-957.000,6.000,-0.140,-0.840,-0.560
-315.996,-955.998,5.897,-0.138,-0.842,-0.494
-315.914,-956.667,6.711,-0.146,-0.843,-0.445
-316.174,-957.088,7.723,-0.128,-0.804,-0.376
-315.279,-956.259,7.748,-0.175,-0.752,-0.298
-315.233,-955.777,6.719,-0.217,-0.784,-0.164
-315.965,-955.967,7.139,-0.208,-0.754,-0.146
-314.937,-956.044,6.958,-0.211,-0.698,-0.136
-314.976,-956.964,6.961,-0.212,-0.701,-0.073
-314.972,-956.313,7.112,-0.156,-0.651,-0.067
-315.558,-955.507,6.820,-0.124,-0.572,-0.071
-316.121,-956.209,7.257,-0.158,-0.559,-0.070
-315.858,-955.155,6.502,-0.120,-0.557,-0.068
-315.989,-955.237,5.965,-0.161,-0.566,-0.079
-316.084,-955.980,5.986,-0.119,-0.552,-0.154
-317.000,-955.000,6.000,-0.000,-0.490,-0.210
-316.202,-954.925,6.042,-0.061,-0.547,-0.207
-315.771,-955.065,5.892,-0.070,-0.576,-0.256
-316.130,-954.769,6.211,-0.109,-0.539,-0.328
-316.042,-954.766,5.445,-0.149,-0.600,-0.360
-317.449,-955.233,4.965,-0.141,-0.643,-0.339
-316.560,-957.391,4.953,-0.129,-0.723,-0.365
-316.088,-956.853,5.051,-0.068,-0.769,-0.420
-317.053,-955.934,5.958,-0.072,-0.766,-0.356
-315.290,-957.013,6.025,-0.010,-0.832,-0.342
-315.377,-956.030,6.033,-0.035,-0.838,-0.330
-316.254,-956.271,5.857,-0.086,-0.852,-0.186
-315.755,-956.905,6.443,-0.077,-0.805,-0.136
-316.004,-957.147,6.933,-0.164,-0.781,-0.129
-314.725,-958.079,5.854,-0.126,-0.842,-0.060
-314.000,-958.000,6.000,-0.070,-0.770,-0.000
-314.903,-958.858,6.898,-0.015,-0.765,0.120
-315.071,-958.553,7.171,0.062,-0.733,0.204
-314.822,-956.850,6.293,0.097,-0.671,0.237
-315.366,-957.019,6.243,0.192,-0.731,0.331
-316.086,-956.433,7.310,0.203,-0.658,0.343
-316.033,-955.970,6.750,0.220,-0.643,0.364
-317.083,-955.964,5.975,0.202,-0.701,0.422
-317.043,-955.059,5.989,0.077,-0.698,0.419
-317.605,-954.900,6.037,0.018,-0.759,0.429
-317.971,-954.934,5.891,-0.097,-0.774,0.334
-315.463,-954.715,6.503,-0.158,-0.770,0.226
-317.259,-954.896,7.177,-0.132,-0.764,0.194
-317.446,-954.944,6.904,-0.136,-0.785,0.114
-316.035,-954.972,7.047,-0.054,-0.846,0.065
-317.000,-954.000,7.000,0.000,-0.840,0.000
-316.080,-953.791,6.911,-0.001,-0.839,-0.121
-316.117,-955.031,7.804,0.004,-0.840,-0.244
-315.142,-954.078,7.703,-0.007,-0.845,-0.339
-315.407,-954.131,6.195,0.012,-0.812,-0.345
-315.916,-955.181,6.299,-0.026,-0.757,-0.369
-316.222,-956.182,7.077,-0.068,-0.776,-0.430
-316.989,-955.893,7.001,0.006,-0.768,-0.416
-316.916,-954.943,7.034,0.006,-0.769,-0.355
-318.123,-956.711,6.143,-0.063,-0.773,-0.294
-316.389,-956.330,6.461,-0.071,-0.765,-0.233
-316.454,-955.952,7.377,-0.068,-0.775,-0.175
-316.592,-957.249,6.645,-0.086,-0.765,-0.107
-316.192,-956.721,7.424,-0.161,-0.775,-0.064
-316.878,-957.134,7.923,-0.125,-0.767,-0.069
-315.000,-957.000,7.000,-0.070,-0.770,-0.000
-316.683,-956.017,6.971,-0.137,-0.777,0.068
-316.627,-956.096,7.014,-0.092,-0.713,0.067
-315.489,-955.188,7.012,-0.059,-0.700,0.080
-316.215,-954.718,6.954,-0.075,-0.674,0.040
-315.965,-954.713,7.081,-0.069,-0.616,-0.022
-317.276,-953.714,6.848,-0.068,-0.637,-0.086
-316.907,-954.140,5.947,-0.073,-0.628,-0.143
-316.033,-955.960,5.952,-0.137,-0.629,-0.203
-315.871,-955.200,6.802,-0.140,-0.631,-0.276
-316.786,-955.292,7.240,-0.179,-0.663,-0.274
-316.099,-955.821,6.322,-0.229,-0.732,-0.317
-314.678,-954.101,6.215,-0.196,-0.651,-0.359
-316.676,-955.822,7.237,-0.222,-0.649,-0.348
-316.838,-956.845,6.858,-0.200,-0.701,-0.350
-316.000,-955.000,6.000,-0.140,-0.700,-0.350
-315.995,-955.734,5.907,-0.139,-0.767,-0.355
-316.044,-956.894,6.814,-0.141,-0.723,-0.295
-315.401,-956.887,6.640,-0.140,-0.687,-0.279
-314.946,-956.446,5.560,-0.139,-0.708,-0.254
-316.683,-955.584,6.549,-0.143,-0.696,-0.199
-316.686,-956.208,6.860,-0.132,-0.701,-0.208
-314.904,-957.035,5.962,-0.065,-0.700,-0.134
-314.923,-957.027,5.992,-0.065,-0.700,-0.135
-315.904,-956.859,5.956,-0.137,-0.698,-0.155
-315.892,-957.644,6.598,-0.098,-0.705,-0.081
-316.455,-957.130,7.282,-0.054,-0.687,-0.072
-316.857,-954.906,6.538,-0.083,-0.733,-0.064
-315.668,-955.305,5.912,-0.052,-0.764,-0.076
-316.151,-956.028,6.027,0.006,-0.691,-0.065
-316.000,-956.000,6.000,-0.000,-0.700,-0.070
-315.788,-955.197,5.945,-0.063,-0.705,-0.136
-317.081,-954.625,6.694,-0.076,-0.689,-0.136
-316.106,-955.799,7.288,-0.064,-0.744,-0.180
-316.454,-955.189,6.382,-0.075,-0.780,-0.221
-316.737,-955.128,6.169,-0.066,-0.763,-0.205
-315.977,-955.936,7.169,-0.072,-0.775,-0.212
-317.087,-954.967,6.960,-0.069,-0.768,-0.210
-317.072,-955.896,6.967,-0.070,-0.767,-0.210
-316.135,-956.182,7.089,-0.068,-0.783,-0.209
-315.818,-955.564,6.865,-0.108,-0.707,-0.216
-316.148,-956.449,7.165,-0.166,-0.738,-0.176
-315.438,-956.921,6.814,-0.099,-0.758,-0.127
-315.115,-956.824,7.185,-0.073,-0.684,-0.147
-316.102,-955.817,6.831,-0.065,-0.705,-0.137
-316.000,-955.000,6.000,-0.070,-0.700,-0.140
-315.993,-954.935,6.054,-0.140,-0.697,-0.143
-315.910,-955.682,5.785,-0.084,-0.704,-0.132
-316.582,-956.102,6.837,-0.101,-0.696,-0.155
-316.726,-955.213,6.518,-0.156,-0.702,-0.100
-315.647,-954.966,6.143,-0.134,-0.698,-0.080
-316.143,-956.218,7.144,-0.136,-0.701,-0.153
-315.956,-955.905,6.986,-0.065,-0.700,-0.136
-315.959,-954.987,7.025,-0.066,-0.700,-0.135
-316.111,-955.835,6.152,-0.081,-0.699,-0.202
-315.759,-955.391,6.471,-0.051,-0.702,-0.212
-316.217,-954.369,7.329,-0.119,-0.697,-0.210
-315.387,-955.468,6.753,-0.137,-0.704,-0.208
-315.133,-955.772,7.184,-0.155,-0.696,-0.213
-316.111,-954.969,6.859,-0.216,-0.703,-0.208
-316.000,-956.000,6.000,-0.210,-0.700,-0.210
-315.132,-956.975,5.916,-0.210,-0.640,-0.216
-314.740,-956.933,6.804,-0.174,-0.577,-0.154
-316.133,-956.974,6.632,-0.046,-0.547,-0.139
-317.316,-956.291,5.626,0.017,-0.574,-0.116
-316.530,-955.924,6.278,-0.010,-0.546,-0.053
-315.917,-957.229,5.809,0.007,-0.572,-0.079
-316.043,-956.910,6.078,-0.004,-0.554,-0.065
-316.949,-956.019,6.108,-0.066,-0.550,-0.003
-316.440,-955.998,4.911,-0.122,-0.693,0.003
-314.813,-955.801,5.895,-0.200,-0.643,-0.002
-316.014,-955.857,5.400,-0.182,-0.693,0.002
-317.201,-955.777,5.259,-0.123,-0.792,-0.001
-316.891,-956.005,6.109,-0.151,-0.772,0.000
-317.033,-956.007,6.060,-0.132,-0.851,0.000
-317.000,-956.000,7.000,-0.070,-0.840,-0.000
-316.988,-954.284,6.221,-0.008,-0.836,-0.056
-316.991,-954.185,5.693,0.009,-0.845,-0.132
-317.008,-956.166,6.774,-0.011,-0.836,-0.139
-316.553,-954.827,7.015,0.015,-0.840,-0.145
-315.741,-955.492,7.009,-0.026,-0.845,-0.131
-316.097,-955.556,6.992,-0.074,-0.827,-0.154
-315.969,-954.037,7.001,-0.070,-0.770,-0.212
-315.970,-955.920,6.999,-0.070,-0.836,-0.209
-316.079,-955.238,7.009,-0.068,-0.796,-0.264
-315.822,-955.291,6.970,-0.075,-0.744,-0.292
-316.082,-956.027,7.055,-0.059,-0.799,-0.270
-315.813,-956.004,6.910,-0.098,-0.726,-0.288
-315.999,-957.106,7.121,-0.148,-0.705,-0.275
-314.741,-955.707,6.854,-0.138,-0.691,-0.283
-315.000,-955.000,6.000,-0.140,-0.630,-0.280
-317.028,-955.825,6.894,-0.143,-0.629,-0.276
-315.435,-956.872,6.445,-0.093,-0.630,-0.291
-315.273,-956.352,5.653,-0.048,-0.632,-0.235
-316.243,-955.556,6.313,-0.113,-0.626,-0.203
-315.776,-955.993,5.702,-0.140,-0.636,-0.213
-316.096,-955.893,6.311,-0.144,-0.619,-0.209
-315.945,-956.050,6.967,-0.137,-0.556,-0.210
-315.040,-956.937,6.045,-0.135,-0.556,-0.209
-315.592,-957.164,5.981,-0.208,-0.618,-0.215
-316.946,-956.009,5.914,-0.163,-0.640,-0.165
-316.708,-956.196,6.540,-0.137,-0.616,-0.126
-317.289,-957.087,6.905,-0.119,-0.660,-0.150
-316.501,-956.719,5.655,-0.059,-0.707,-0.133
-316.159,-955.895,6.220,-0.073,-0.699,-0.144
-317.000,-956.000,7.000,-0.070,-0.700,-0.140
-315.984,-956.965,6.106,-0.073,-0.700,-0.135
-316.904,-956.313,5.933,-0.019,-0.702,-0.154
-316.214,-955.624,6.034,0.009,-0.693,-0.089
-316.471,-955.940,5.989,-0.001,-0.729,-0.070
-316.448,-955.755,5.992,-0.014,-0.782,-0.065
-314.992,-956.030,6.014,-0.082,-0.764,-0.077
-317.136,-955.989,5.991,-0.067,-0.772,-0.065
-316.181,-955.993,5.986,-0.068,-0.772,-0.000
-315.570,-955.999,6.064,-0.076,-0.760,-0.055
-317.078,-955.839,5.822,-0.061,-0.824,-0.078
-316.216,-955.780,6.645,-0.083,-0.819,-0.066
-316.189,-955.895,6.783,-0.040,-0.742,-0.070
-317.254,-955.787,5.799,0.006,-0.800,-0.072
-316.767,-954.888,6.058,-0.001,-0.834,-0.067
-315.000,-955.000,6.000,0.000,-0.770,-0.070
-315.699,-955.882,6.805,-0.058,-0.827,-0.134
-317.057,-956.156,7.258,-0.086,-0.858,-0.143
-316.291,-955.176,6.674,-0.046,-0.789,-0.142
-315.869,-954.666,7.402,-0.120,-0.764,-0.132
-315.798,-955.052,6.407,-0.120,-0.775,-0.162
-314.754,-956.291,6.201,-0.065,-0.761,-0.216
-315.102,-956.984,7.001,-0.069,-0.696,-0.209
-316.009,-956.070,6.938,-0.067,-0.697,-0.210
-315.822,-955.846,8.022,-0.133,-0.706,-0.207
-316.872,-956.496,6.679,-0.101,-0.691,-0.221
-316.298,-957.127,6.081,-0.055,-0.711,-0.168
-316.307,-956.023,7.495,-0.076,-0.688,-0.139
-316.760,-954.867,6.563,-0.076,-0.712,-0.126
-314.808,-956.233,6.008,-0.152,-0.689,-0.065
-316.000,-956.000,6.000,-0.140,-0.630,-0.070
-316.283,-954.925,5.962,-0.072,-0.631,-0.067
-314.819,-955.875,6.082,-0.076,-0.624,-0.121
-316.191,-955.299,5.849,-0.027,-0.641,-0.150
-317.235,-954.629,6.441,-0.007,-0.611,-0.136
-316.593,-954.908,7.202,-0.115,-0.665,-0.138
-315.896,-955.028,6.789,-0.127,-0.689,-0.149
-316.022,-956.118,5.988,-0.070,-0.630,-0.213
-316.019,-957.015,6.897,-0.134,-0.695,-0.210
-315.947,-956.186,7.267,-0.153,-0.706,-0.259
-316.017,-955.703,6.040,-0.087,-0.697,-0.304
-315.854,-955.919,6.575,-0.063,-0.695,-0.227
-316.023,-955.723,6.838,-0.075,-0.724,-0.228
-315.924,-956.067,5.725,-0.065,-0.779,-0.296
-316.043,-955.935,6.168,-0.074,-0.769,-0.269
-316.000,-956.000,7.000,-0.070,-0.770,-0.210
-315.929,-956.945,7.005,-0.004,-0.709,-0.213
-316.197,-956.372,7.019,-0.040,-0.692,-0.160
-315.166,-955.481,6.940,-0.125,-0.705,-0.126
-315.269,-956.414,7.130,-0.142,-0.701,-0.154
-316.165,-956.865,6.658,-0.140,-0.683,-0.117
-315.828,-957.015,6.009,-0.135,-0.621,-0.063
-314.932,-956.967,7.085,-0.062,-0.630,-0.072
-314.902,-956.086,7.061,0.001,-0.567,-0.072
-316.724,-955.114,6.842,-0.058,-0.546,-0.065
-316.551,-954.755,7.242,-0.072,-0.580,-0.080
-315.495,-954.890,6.672,-0.099,-0.533,-0.052
-316.521,-954.716,7.424,-0.157,-0.606,-0.110
-317.014,-955.188,6.346,-0.130,-0.612,-0.126
-316.964,-956.112,5.008,-0.145,-0.561,-0.069
-316.000,-956.000,6.000,-0.140,-0.630,-0.140
-315.783,-955.036,6.013,-0.077,-0.636,-0.147
-317.117,-955.621,6.106,-0.063,-0.619,-0.131
-315.634,-956.086,5.308,-0.081,-0.673,-0.151
-315.127,-955.569,5.278,-0.035,-0.712,-0.127
-316.026,-956.052,6.224,-0.003,-0.689,-0.163
-314.688,-955.812,5.912,-0.094,-0.714,-0.217
-315.087,-956.098,6.019,-0.141,-0.772,-0.208
-315.084,-957.026,6.011,-0.141,-0.771,-0.208
-314.713,-956.082,5.987,-0.089,-0.769,-0.218
-315.916,-956.410,5.990,-0.048,-0.770,-0.160
-315.701,-957.038,6.048,-0.100,-0.770,-0.133
-316.317,-956.494,5.889,-0.007,-0.769,-0.142
-315.450,-955.622,6.240,0.081,-0.771,-0.141
-315.247,-954.988,7.068,0.066,-0.769,-0.138
-317.000,-955.000,7.000,-0.000,-0.770,-0.140
-315.276,-954.066,7.001,-0.128,-0.772,-0.203
-314.817,-954.564,6.958,-0.183,-0.764,-0.213
-314.903,-955.520,7.136,-0.304,-0.783,-0.240
-315.734,-956.253,6.518,-0.342,-0.733,-0.307
-316.980,-957.004,5.904,-0.245,-0.697,-0.246
-314.296,-956.909,6.002,-0.200,-0.693,-0.211
-314.150,-957.038,6.018,-0.135,-0.625,-0.207
-315.951,-957.915,6.052,-0.077,-0.626,-0.143
-315.990,-958.316,5.079,0.046,-0.689,-0.138
-316.024,-955.727,5.594,0.057,-0.709,-0.107
-315.775,-954.796,6.129,-0.096,-0.687,-0.017
-316.342,-956.380,6.203,-0.157,-0.729,-0.001
-317.124,-955.584,7.230,-0.250,-0.777,0.003
-316.913,-956.276,6.923,-0.359,-0.769,-0.003
-316.000,-957.000,7.000,-0.350,-0.770,-0.000
-315.081,-955.959,6.228,-0.292,-0.769,0.007
-314.879,-956.899,5.622,-0.185,-0.773,-0.057
-315.508,-955.813,6.968,-0.043,-0.763,-0.071
-316.152,-954.299,6.432,0.017,-0.782,-0.092
-315.786,-955.371,6.184,-0.023,-0.743,-0.168
-316.117,-955.897,7.137,-0.079,-0.699,-0.222
-315.933,-954.929,6.980,-0.067,-0.697,-0.285
-315.037,-954.925,7.008,-0.066,-0.631,-0.345
-314.930,-955.938,6.267,-0.134,-0.685,-0.411
-315.516,-955.250,5.729,-0.102,-0.672,-0.422
-316.302,-954.586,6.329,-0.048,-0.601,-0.443
-315.358,-954.980,5.433,-0.101,-0.653,-0.531
-315.043,-954.858,5.039,-0.155,-0.612,-0.562
-314.916,-955.108,4.917,-0.222,-0.643,-0.558
-315.000,-956.000,5.000,-0.280,-0.700,-0.490
-316.028,-956.842,6.842,-0.280,-0.697,-0.362
-315.125,-957.802,6.458,-0.284,-0.707,-0.343
-315.528,-957.901,5.651,-0.244,-0.689,-0.327
-315.708,-957.755,6.340,-0.176,-0.714,-0.227
-314.706,-957.885,5.515,-0.104,-0.685,-0.218
-315.072,-957.903,5.090,0.029,-0.713,-0.196
-314.998,-956.877,6.060,0.069,-0.693,-0.139
-315.039,-955.104,6.042,0.069,-0.627,-0.142
-314.061,-954.777,5.859,0.032,-0.697,-0.082
-315.117,-955.627,6.718,-0.114,-0.652,-0.097
-316.053,-955.883,7.147,-0.137,-0.630,-0.198
-314.217,-955.582,6.683,-0.168,-0.604,-0.204
-315.666,-954.659,5.760,-0.213,-0.556,-0.225
-315.778,-955.280,6.181,-0.216,-0.555,-0.289
-315.000,-957.000,7.000,-0.280,-0.490,-0.350
-316.020,-956.178,6.127,-0.223,-0.489,-0.414
-315.127,-955.807,5.909,-0.197,-0.483,-0.425
-315.522,-955.986,6.039,-0.222,-0.539,-0.417
-315.728,-955.641,6.037,-0.201,-0.535,-0.420
-314.668,-956.114,5.760,-0.207,-0.492,-0.432
-315.121,-957.226,4.853,-0.112,-0.575,-0.507
-314.966,-958.031,5.034,-0.073,-0.558,-0.482
-314.971,-958.010,5.028,-0.138,-0.622,-0.358
-315.073,-958.021,4.926,-0.093,-0.648,-0.289
-314.833,-957.252,5.115,-0.010,-0.599,-0.273
-315.081,-956.549,4.818,-0.021,-0.716,-0.270
-314.757,-957.028,5.412,-0.115,-0.782,-0.135
-315.290,-956.822,6.108,-0.128,-0.765,-0.078
-316.007,-957.098,5.967,-0.066,-0.775,-0.144
-315.000,-957.000,6.000,-0.140,-0.840,-0.070
-313.991,-956.035,6.033,-0.214,-0.849,-0.002
-314.696,-956.045,5.894,-0.150,-0.781,-0.001
-315.131,-955.627,6.572,-0.172,-0.767,0.004
-314.784,-956.384,7.226,-0.228,-0.772,-0.022
-315.068,-956.694,6.676,-0.197,-0.759,-0.103
-314.913,-955.777,5.863,-0.219,-0.677,-0.142
-315.031,-956.102,6.065,-0.204,-0.630,-0.141
-315.035,-957.899,6.979,-0.081,-0.633,-0.141
-314.879,-957.519,6.295,0.051,-0.568,-0.132
-315.166,-955.594,5.701,0.082,-0.595,-0.189
-314.575,-956.783,6.371,0.061,-0.655,-0.221
-315.643,-955.927,5.354,0.066,-0.591,-0.188
-315.571,-955.172,5.242,-0.045,-0.566,-0.123
-313.861,-957.233,5.989,-0.150,-0.644,-0.151
-314.000,-957.000,5.000,-0.210,-0.700,-0.140
-313.911,-956.912,4.927,-0.220,-0.700,-0.006
-315.456,-957.088,5.084,-0.147,-0.702,-0.053
-315.870,-956.737,4.936,-0.145,-0.693,-0.039
-313.966,-956.841,5.001,-0.129,-0.729,0.011
-314.376,-956.874,5.190,-0.156,-0.783,0.012
-314.927,-956.845,6.189,-0.120,-0.763,0.075
-313.929,-955.960,5.946,-0.071,-0.772,-0.008
-313.932,-956.009,5.943,-0.077,-0.774,-0.006
-314.879,-955.183,6.217,0.054,-0.710,0.017
-314.983,-955.242,5.087,0.034,-0.694,-0.057
-314.943,-956.227,5.506,-0.014,-0.703,-0.092
-314.902,-955.475,6.105,0.005,-0.697,-0.186
-315.053,-956.254,6.011,0.002,-0.702,-0.204
-314.942,-955.827,5.919,-0.007,-0.699,-0.219
-315.000,-956.000,5.000,-0.070,-0.700,-0.280
-315.960,-957.129,4.955,-0.068,-0.702,-0.280
-315.334,-955.310,5.001,-0.121,-0.693,-0.284
-314.729,-955.641,5.458,-0.147,-0.741,-0.245
-315.094,-957.759,6.320,-0.142,-0.783,-0.171
-314.825,-957.517,5.721,-0.120,-0.761,-0.132
-315.091,-956.859,6.292,-0.065,-0.777,-0.144
-314.940,-957.063,6.976,-0.068,-0.766,-0.138
-314.026,-957.975,6.057,-0.003,-0.703,-0.138
-314.674,-957.320,5.932,-0.048,-0.697,-0.150
-315.339,-956.000,6.055,-0.089,-0.702,-0.087
-314.090,-955.757,5.960,-0.053,-0.698,-0.068
-314.339,-955.900,6.023,-0.084,-0.701,-0.064
-315.047,-955.768,5.988,-0.059,-0.700,-0.088
-315.033,-954.947,6.004,-0.079,-0.700,-0.140
-315.000,-956.000,6.000,-0.140,-0.700,-0.070
-314.025,-957.008,6.000,-0.146,-0.701,-0.063
-314.735,-956.864,5.997,-0.086,-0.698,-0.082
-314.603,-957.075,6.005,-0.065,-0.706,-0.052
-313.532,-956.158,5.989,-0.050,-0.673,-0.110
-314.405,-956.091,6.009,0.020,-0.613,-0.143
-315.031,-957.000,5.993,-0.010,-0.645,-0.141
-314.997,-955.914,6.003,0.002,-0.702,-0.139
-314.997,-955.940,6.002,-0.058,-0.701,-0.137
-315.014,-956.145,5.999,-0.199,-0.698,-0.197
-314.892,-955.564,5.983,-0.207,-0.702,-0.220
-315.075,-956.505,6.076,-0.223,-0.698,-0.201
-314.519,-956.778,5.656,-0.177,-0.701,-0.219
-314.031,-957.193,4.954,-0.139,-0.699,-0.200
-315.169,-958.091,6.233,-0.134,-0.701,-0.221
-315.000,-958.000,6.000,-0.070,-0.700,-0.280
-314.046,-957.128,4.898,-0.011,-0.699,-0.220
-314.003,-956.779,5.988,0.059,-0.701,-0.205
-313.875,-957.512,5.256,0.073,-0.698,-0.182
-314.256,-957.893,5.437,0.055,-0.702,-0.114
-315.433,-957.684,5.852,-0.044,-0.697,-0.161
-315.926,-956.630,4.941,-0.055,-0.702,-0.119
-314.933,-956.046,6.101,-0.002,-0.699,-0.070
-314.956,-956.992,6.085,-0.069,-0.699,-0.072
-315.099,-956.156,5.106,-0.015,-0.703,-0.063
-314.807,-956.356,4.892,-0.027,-0.694,-0.084
-315.094,-956.724,5.486,-0.124,-0.709,-0.046
-314.788,-955.255,6.191,-0.144,-0.686,-0.115
-315.117,-956.530,5.899,-0.129,-0.723,-0.121
-314.933,-956.857,6.043,-0.058,-0.767,-0.073
-315.000,-956.000,6.000,0.000,-0.700,-0.140
-314.279,-956.082,5.967,0.008,-0.697,-0.139
-313.422,-955.124,6.059,-0.059,-0.698,-0.190
-315.708,-955.291,5.913,-0.067,-0.739,-0.219
-314.964,-956.050,6.128,-0.101,-0.763,-0.207
-314.060,-955.689,5.706,-0.145,-0.668,-0.206
-315.006,-956.078,4.875,-0.148,-0.726,-0.221
-313.954,-955.965,5.032,-0.212,-0.767,-0.283
-314.890,-955.945,5.034,-0.149,-0.702,-0.280
-315.189,-956.859,4.860,-0.075,-0.701,-0.289
-314.724,-956.844,5.743,-0.062,-0.692,-0.191
-315.188,-957.198,6.064,-0.112,-0.738,-0.113
-314.503,-958.136,6.001,-0.112,-0.779,-0.161
-313.861,-957.655,5.955,0.037,-0.767,-0.117
-314.109,-956.923,6.082,-0.020,-0.770,-0.066
-315.000,-956.000,7.000,-0.070,-0.770,-0.070
-315.040,-954.958,7.120,-0.059,-0.774,-0.076
-314.955,-955.828,6.145,-0.133,-0.720,-0.012
-314.959,-955.315,6.414,-0.158,-0.686,-0.029
-314.953,-954.875,7.337,-0.298,-0.715,-0.091
-314.890,-956.424,6.745,-0.336,-0.675,-0.056
-315.089,-957.029,7.134,-0.274,-0.625,-0.079
-314.910,-958.133,5.780,-0.278,-0.630,-0.067
-313.097,-959.049,3.952,-0.155,-0.568,-0.066
-313.504,-957.424,5.742,0.082,-0.490,-0.132
-315.486,-955.966,5.491,0.276,-0.535,-0.145
-316.229,-955.784,4.791,0.210,-0.571,-0.114
-315.195,-955.832,5.070,0.110,-0.551,-0.029
-313.823,-955.975,5.013,0.029,-0.573,0.000
-315.300,-956.000,4.953,-0.166,-0.643,0.002
-316.000,-956.000,5.000,-0.210,-0.700,-0.000
-315.965,-956.003,5.978,-0.203,-0.698,-0.005
-315.461,-955.924,5.279,-0.265,-0.749,0.015
-314.485,-956.340,4.917,-0.291,-0.784,-0.057
-315.430,-957.067,4.920,-0.253,-0.759,-0.040
-314.431,-956.638,5.354,-0.174,-0.779,-0.006
-315.519,-957.140,5.935,-0.034,-0.764,-0.083
-315.842,-956.920,4.969,0.073,-0.772,-0.068
-313.961,-956.018,5.901,0.070,-0.773,-0.130
-315.815,-956.021,6.167,0.075,-0.758,-0.212
-314.703,-955.757,5.822,0.024,-0.829,-0.196
-314.045,-955.673,6.155,-0.010,-0.811,-0.254
-315.307,-953.865,5.884,0.004,-0.753,-0.282
-314.852,-954.735,6.064,0.001,-0.788,-0.283
-314.988,-957.111,5.983,-0.005,-0.847,-0.273
-314.000,-956.000,6.000,-0.070,-0.840,-0.210
-313.855,-956.744,5.173,-0.076,-0.775,-0.206
-314.817,-957.271,4.743,-0.059,-0.772,-0.215
-315.050,-956.541,5.735,-0.113,-0.733,-0.203
-314.800,-957.047,6.041,-0.155,-0.685,-0.220
-315.138,-956.666,5.997,-0.115,-0.709,-0.188
-314.724,-957.073,5.996,-0.064,-0.694,-0.132
-314.034,-957.000,6.002,-0.071,-0.702,-0.142
-314.986,-957.912,6.001,-0.070,-0.704,-0.141
-314.172,-957.518,5.999,-0.076,-0.641,-0.137
-314.434,-955.651,5.993,-0.021,-0.624,-0.144
-315.203,-956.295,6.016,-0.014,-0.635,-0.135
-314.820,-954.963,5.965,-0.117,-0.626,-0.146
-314.917,-955.558,6.057,-0.137,-0.633,-0.135
-313.835,-956.999,5.912,-0.143,-0.628,-0.144
-314.000,-956.000,5.000,-0.140,-0.630,-0.140
-314.940,-955.993,4.928,-0.077,-0.633,-0.132
-315.022,-955.853,5.127,-0.064,-0.621,-0.203
-314.918,-956.550,4.776,-0.076,-0.673,-0.175
-314.966,-956.488,5.586,-0.062,-0.711,-0.126
-314.911,-955.628,5.830,-0.089,-0.693,-0.148
-315.030,-956.142,4.896,-0.151,-0.706,-0.136
-314.985,-957.073,6.154,-0.135,-0.696,-0.141
-314.981,-957.091,7.051,-0.071,-0.632,-0.141
-315.059,-955.959,6.079,-0.120,-0.678,-0.138
-314.861,-956.608,6.121,-0.162,-0.723,-0.144
-314.765,-956.701,5.361,-0.092,-0.670,-0.133
-313.110,-957.322,5.253,-0.068,-0.750,-0.162
-313.363,-957.815,6.047,-0.070,-0.748,-0.225
-313.938,-956.950,4.790,-0.067,-0.705,-0.199
-314.000,-957.000,5.000,0.000,-0.770,-0.140
-315.899,-956.043,6.025,0.012,-0.708,-0.140
-315.276,-956.677,5.264,-0.066,-0.740,-0.137
-314.977,-956.921,4.810,-0.061,-0.791,-0.149
-314.357,-956.878,5.447,-0.089,-0.753,-0.108
-314.385,-956.488,6.175,-0.035,-0.782,-0.061
-316.172,-956.039,5.905,-0.010,-0.763,-0.073
-314.877,-957.059,6.034,-0.072,-0.772,-0.069
-314.903,-957.030,6.041,-0.069,-0.772,-0.070
-315.899,-956.338,5.823,-0.079,-0.764,-0.070
-316.107,-954.690,6.848,-0.012,-0.779,-0.071
-315.009,-956.395,6.582,-0.031,-0.758,-0.068
-313.488,-957.956,5.756,-0.080,-0.784,-0.074
-314.372,-956.643,6.252,-0.068,-0.749,-0.064
-315.044,-957.059,7.102,-0.068,-0.697,-0.077
-315.000,-956.000,7.000,-0.070,-0.700,-0.140
-314.081,-955.792,6.076,-0.079,-0.702,-0.143
-314.594,-956.919,5.980,-0.003,-0.657,-0.137
-314.878,-956.773,5.952,-0.049,-0.601,-0.143
-312.864,-956.857,6.144,-0.043,-0.685,-0.137
-313.662,-956.831,5.622,-0.006,-0.673,-0.143
-315.101,-956.897,5.059,-0.081,-0.638,-0.132
-315.027,-955.927,6.040,-0.071,-0.701,-0.065
-315.955,-955.932,5.119,-0.136,-0.636,-0.064
-315.350,-956.844,4.715,-0.095,-0.623,-0.138
-314.529,-957.005,5.907,-0.045,-0.633,-0.096
-315.791,-956.210,5.897,-0.097,-0.655,-0.058
-315.557,-955.971,6.172,-0.030,-0.721,-0.078
-314.909,-957.252,5.721,0.000,-0.685,-0.057
-315.006,-956.885,4.938,0.002,-0.711,0.009
-315.000,-957.000,5.000,0.000,-0.770,0.000
-315.025,-957.098,5.834,-0.002,-0.770,-0.070
-314.921,-956.775,6.283,0.007,-0.771,-0.019
-315.079,-957.173,5.150,-0.039,-0.768,0.009
-314.708,-956.056,5.401,-0.090,-0.772,-0.003
-315.387,-956.188,6.147,-0.039,-0.767,-0.000
-315.909,-956.921,5.939,-0.005,-0.773,0.002
-314.947,-955.951,6.035,-0.074,-0.767,-0.002
-314.974,-956.002,6.922,-0.071,-0.705,-0.003
-315.066,-955.222,7.209,-0.118,-0.691,0.061
-314.388,-955.074,6.163,-0.166,-0.716,0.068
-313.494,-957.192,6.050,-0.088,-0.655,0.104
-314.875,-957.699,5.862,-0.062,-0.630,0.150
-315.984,-956.560,6.182,0.048,-0.617,0.138
-314.850,-955.996,5.809,0.140,-0.553,0.136
-315.000,-956.000,5.000,0.070,-0.560,0.070
-315.882,-955.117,5.971,0.068,-0.564,0.065
-316.202,-954.879,5.229,0.031,-0.551,0.076
-315.176,-954.905,5.418,-0.056,-0.602,0.067
-315.256,-954.756,6.242,-0.088,-0.643,0.054
-316.178,-954.838,5.911,-0.181,-0.619,-0.037
-315.814,-955.089,5.938,-0.198,-0.644,-0.069
-314.944,-956.057,4.920,-0.140,-0.702,-0.073
-314.935,-955.186,4.927,-0.205,-0.701,-0.135
-315.889,-953.060,5.881,-0.172,-0.700,-0.197
-315.948,-953.974,6.066,-0.065,-0.694,-0.255
-316.002,-955.699,5.931,-0.114,-0.733,-0.318
-315.837,-955.699,6.080,-0.141,-0.784,-0.378
-316.042,-956.232,5.912,-0.145,-0.761,-0.433
-314.607,-957.060,6.074,-0.132,-0.775,-0.411
-313.000,-957.000,6.000,-0.070,-0.770,-0.350
-314.762,-957.812,5.015,-0.071,-0.707,-0.348
-315.140,-958.231,5.713,-0.024,-0.695,-0.355
-314.911,-957.490,6.127,0.044,-0.704,-0.318
-314.820,-958.269,5.956,0.108,-0.696,-0.235
-315.330,-957.005,5.984,0.135,-0.704,-0.211
-315.919,-956.041,6.046,0.048,-0.696,-0.202
-314.958,-957.025,5.967,-0.002,-0.703,-0.134
-315.018,-956.094,5.932,-0.063,-0.766,-0.073
-314.145,-955.801,6.983,-0.135,-0.781,-0.064
-314.449,-956.548,6.254,-0.140,-0.719,-0.080
-315.202,-957.068,6.423,-0.142,-0.691,-0.054
-314.793,-956.107,6.922,-0.138,-0.706,-0.105
-315.052,-954.671,5.714,-0.142,-0.695,-0.140
-315.003,-955.148,6.105,-0.139,-0.704,-0.147
-315.000,-956.000,6.000,-0.140,-0.700,-0.210
-314.075,-956.915,5.938,-0.086,-0.634,-0.209
-314.596,-956.448,6.083,-0.001,-0.672,-0.259
-315.215,-955.355,5.955,-0.040,-0.726,-0.293
-314.732,-956.612,5.746,-0.082,-0.652,-0.268
-315.083,-956.474,4.638,-0.061,-0.645,-0.299
-314.931,-956.045,5.316,-0.081,-0.710,-0.363
-315.000,-957.064,5.974,-0.144,-0.698,-0.343
-314.112,-957.039,5.061,-0.143,-0.698,-0.217
-313.651,-956.871,4.869,-0.128,-0.706,-0.200
-315.546,-957.486,5.680,-0.199,-0.687,-0.223
-315.590,-958.122,6.179,-0.180,-0.742,-0.174
-314.728,-957.041,5.841,-0.126,-0.762,-0.121
-314.969,-955.843,6.153,-0.146,-0.667,-0.166
-313.800,-957.253,5.847,-0.138,-0.634,-0.203
-314.000,-957.000,5.000,-0.140,-0.700,-0.070
-315.005,-955.880,5.844,-0.084,-0.705,-0.058
-314.855,-957.023,6.162,-0.011,-0.692,-0.092
-315.244,-955.631,5.821,0.033,-0.711,-0.009
-314.221,-954.591,6.220,0.100,-0.683,-0.028
-314.258,-954.707,5.603,0.019,-0.731,-0.083
-315.021,-953.843,5.028,-0.078,-0.764,-0.062
-315.049,-955.191,6.089,-0.072,-0.696,-0.076
-315.978,-956.992,6.096,-0.137,-0.699,-0.201
-315.287,-955.530,4.949,-0.050,-0.699,-0.230
-314.217,-954.191,6.290,0.102,-0.740,-0.143
-313.675,-956.358,7.051,-0.059,-0.788,-0.177
-314.501,-956.113,5.080,-0.133,-0.756,-0.218
-314.799,-955.035,5.395,-0.071,-0.781,-0.208
-313.995,-957.318,5.908,-0.241,-0.764,-0.209
-315.000,-957.000,5.000,-0.280,-0.770,-0.210
-315.068,-956.751,5.837,-0.150,-0.781,-0.273
-314.937,-958.064,6.158,-0.136,-0.701,-0.246
-314.943,-957.142,5.847,-0.139,-0.747,-0.146
-315.038,-956.496,6.148,-0.144,-0.751,-0.150
-314.605,-955.436,5.839,-0.133,-0.683,-0.116
-314.023,-956.383,6.212,-0.152,-0.707,-0.065
-315.072,-956.921,7.009,-0.213,-0.698,-0.071
-315.040,-955.951,6.109,-0.213,-0.698,-0.070
-314.927,-957.697,5.081,-0.157,-0.705,-0.070
-314.994,-957.378,4.935,-0.088,-0.692,-0.069
-314.973,-956.580,5.401,-0.041,-0.713,-0.072
-314.608,-956.688,6.338,0.039,-0.667,-0.068
-313.963,-955.701,5.621,0.069,-0.635,-0.072
-315.210,-956.109,5.005,0.076,-0.710,-0.068
-315.000,-956.000,5.000,0.140,-0.700,-0.070
-313.961,-955.915,4.861,0.145,-0.693,-0.073
-314.771,-956.093,6.011,0.094,-0.713,-0.063
-315.022,-956.080,4.829,0.017,-0.678,-0.084
-314.910,-957.469,4.010,-0.001,-0.747,-0.031
-314.944,-955.823,5.420,-0.004,-0.762,-0.000
-315.013,-955.312,4.771,0.006,-0.787,0.011
-314.985,-958.170,5.092,-0.005,-0.839,0.071
-314.963,-958.120,5.978,-0.070,-0.774,0.007
-315.823,-957.002,6.063,-0.010,-0.769,-0.014
-316.005,-956.941,5.310,-0.038,-0.762,0.051
-316.305,-956.593,5.553,-0.065,-0.812,0.105
-317.065,-957.349,7.853,0.053,-0.826,0.155
-315.326,-957.737,6.195,0.062,-0.755,0.129
-315.201,-955.724,6.369,0.076,-0.774,0.149
-316.000,-956.000,8.000,0.070,-0.770,0.210
-315.001,-957.029,6.134,0.002,-0.770,0.216
-315.811,-956.792,6.674,0.046,-0.729,0.154
-315.468,-957.238,7.070,0.089,-0.645,0.163
-314.744,-955.668,7.130,0.032,-0.630,0.243
-314.994,-954.983,6.573,-0.007,-0.618,0.170
-315.083,-956.032,6.129,0.002,-0.538,0.146
-316.072,-954.904,7.001,-0.001,-0.491,0.134
-316.068,-954.917,6.059,-0.001,-0.555,0.070
-315.102,-955.911,6.016,0.004,-0.572,0.084
-315.357,-955.408,5.305,-0.040,-0.504,-0.031
-316.823,-953.895,5.305,-0.114,-0.512,-0.074
-316.529,-954.485,6.274,-0.160,-0.585,-0.109
-315.966,-956.280,5.873,-0.239,-0.540,-0.235
-315.904,-955.905,6.041,-0.276,-0.576,-0.205
-315.000,-956.000,6.000,-0.210,-0.630,-0.280
-315.808,-956.037,5.999,-0.208,-0.617,-0.350
-316.238,-955.948,5.961,-0.174,-0.744,-0.387
-315.274,-955.782,6.132,-0.075,-0.773,-0.457
-314.736,-956.207,5.526,-0.100,-0.781,-0.357
-315.331,-956.852,4.877,-0.150,-0.737,-0.383
-315.948,-955.677,5.093,-0.135,-0.716,-0.410
-314.939,-956.118,6.113,-0.142,-0.847,-0.349
-314.991,-957.018,7.021,-0.143,-0.843,-0.352
-314.248,-956.816,6.161,-0.082,-0.840,-0.290
-314.243,-957.700,5.917,-0.064,-0.797,-0.280
-315.551,-957.393,6.342,-0.052,-0.758,-0.250
-314.123,-956.393,7.474,0.049,-0.774,-0.181
-314.338,-955.785,6.428,0.056,-0.773,-0.117
-314.980,-956.158,6.218,-0.005,-0.762,-0.068
-315.000,-957.000,7.000,-0.000,-0.700,-0.070
-315.932,-956.943,5.025,0.001,-0.761,-0.009
-315.989,-957.240,6.599,-0.001,-0.732,0.007
-316.006,-955.504,6.036,0.001,-0.676,-0.004
-315.853,-954.937,4.965,-0.001,-0.719,0.001
-315.900,-956.161,6.202,0.000,-0.685,0.003
-314.630,-955.833,4.640,-0.000,-0.710,-0.009
-315.188,-956.050,5.107,0.000,-0.696,-0.074
-317.036,-956.064,5.960,0.001,-0.695,-0.072
-315.259,-955.107,6.837,-0.049,-0.768,-0.062
-315.512,-954.804,6.516,-0.129,-0.726,-0.117
-315.706,-954.772,6.033,-0.140,-0.687,-0.154
-314.597,-955.092,7.603,-0.144,-0.709,-0.125
-315.277,-956.224,6.445,-0.133,-0.693,-0.162
-316.116,-955.862,6.097,-0.149,-0.705,-0.212
-316.000,-956.000,6.000,-0.210,-0.700,-0.210
-314.150,-957.847,4.970,-0.156,-0.633,-0.217
-314.566,-957.487,5.794,-0.078,-0.674,-0.149
-315.212,-955.941,6.015,-0.068,-0.722,-0.175
-314.759,-956.133,6.113,-0.071,-0.659,-0.222
-315.044,-957.142,5.647,-0.069,-0.627,-0.208
-314.962,-956.695,5.026,-0.071,-0.629,-0.203
-315.000,-956.026,6.076,-0.070,-0.632,-0.136
-314.984,-956.951,6.049,-0.069,-0.694,-0.139
-315.133,-957.011,5.883,-0.073,-0.715,-0.091
-314.067,-956.931,6.163,-0.064,-0.638,-0.049
-314.836,-956.239,5.801,-0.082,-0.661,-0.093
-316.111,-955.960,6.217,-0.039,-0.712,-0.032
-314.515,-957.273,5.777,0.003,-0.695,0.001
-315.267,-956.823,6.205,0.006,-0.701,0.002
-316.000,-956.000,7.000,0.070,-0.700,-0.000
-315.901,-956.018,6.024,0.015,-0.762,-0.004
-316.246,-955.346,6.781,-0.018,-0.736,0.012
-315.147,-954.447,6.537,0.024,-0.663,-0.048
-315.006,-955.540,6.065,-0.045,-0.761,-0.071
-314.792,-955.520,7.439,-0.069,-0.739,-0.085
-315.218,-955.023,6.668,-0.073,-0.708,-0.151
-316.018,-956.069,6.005,-0.068,-0.773,-0.137
-315.988,-956.043,6.022,-0.068,-0.770,-0.136
-316.106,-955.864,5.920,-0.078,-0.777,-0.200
-315.223,-956.506,6.141,-0.053,-0.715,-0.216
-314.864,-957.048,5.792,-0.121,-0.728,-0.204
-314.936,-956.377,6.282,-0.119,-0.772,-0.217
-315.040,-955.885,5.569,-0.061,-0.662,-0.195
-314.946,-956.063,5.155,-0.072,-0.637,-0.133
-315.000,-957.000,7.000,-0.070,-0.700,-0.140
-315.956,-957.192,6.272,-0.072,-0.703,-0.147
-315.354,-955.894,5.601,-0.060,-0.694,-0.085
-314.647,-957.073,6.948,-0.119,-0.711,-0.062
-315.508,-957.741,6.517,-0.121,-0.667,-0.079
-315.863,-956.309,5.915,-0.053,-0.621,-0.051
-314.719,-955.922,6.002,-0.078,-0.633,0.010
-315.119,-956.053,6.013,-0.068,-0.630,-0.003
-316.046,-956.977,6.040,-0.068,-0.630,-0.003
-315.015,-956.261,5.136,-0.073,-0.625,0.012
-315.712,-955.625,5.449,-0.069,-0.674,-0.056
-315.480,-955.978,6.442,-0.046,-0.714,-0.066
-315.051,-955.696,5.346,0.026,-0.690,-0.095
-316.258,-956.063,5.204,-0.028,-0.707,-0.147
-315.902,-955.960,6.071,-0.069,-0.697,-0.142
-316.000,-956.000,6.000,-0.070,-0.700,-0.210
-316.109,-956.027,5.992,-0.078,-0.704,-0.221
-315.154,-955.920,5.996,-0.007,-0.688,-0.146
-315.320,-955.953,6.021,-0.036,-0.746,-0.174
-316.364,-955.350,5.959,-0.084,-0.776,-0.232
-315.416,-954.819,6.048,-0.063,-0.768,-0.180
-315.048,-956.411,5.955,-0.073,-0.770,-0.144
-314.956,-956.940,6.022,-0.069,-0.770,-0.215
-314.934,-956.005,6.032,-0.069,-0.770,-0.215
-315.290,-956.773,5.840,-0.071,-0.769,-0.146
-313.810,-956.967,6.835,-0.071,-0.772,-0.144
-315.172,-956.735,6.578,-0.047,-0.767,-0.107
-315.731,-956.844,5.801,0.044,-0.773,-0.056
-314.888,-957.005,6.085,0.059,-0.767,-0.077
-314.964,-956.930,5.973,-0.007,-0.772,-0.069
-315.000,-956.000,6.000,0.000,-0.770,-0.140
-316.028,-955.091,5.979,-0.052,-0.768,-0.215
-315.079,-954.825,6.605,-0.139,-0.774,-0.148
-315.688,-955.479,7.804,-0.127,-0.767,-0.177
-315.155,-955.868,7.743,-0.178,-0.757,-0.222
-313.858,-956.000,6.510,-0.212,-0.657,-0.206
-315.229,-957.263,5.978,-0.215,-0.637,-0.211
-314.983,-958.035,5.993,-0.205,-0.624,-0.211
-315.903,-958.047,5.986,-0.080,-0.559,-0.212
-316.154,-957.131,6.062,-0.005,-0.623,-0.153
-315.801,-956.850,5.861,0.007,-0.588,-0.132
-316.021,-956.303,6.260,-0.036,-0.551,-0.144
-315.962,-955.942,5.417,-0.079,-0.558,-0.140
-315.781,-957.140,5.228,-0.074,-0.576,-0.130
-314.979,-955.724,5.965,-0.156,-0.630,-0.060
-316.000,-956.000,5.000,-0.210,-0.560,-0.070
-316.090,-957.068,6.665,-0.208,-0.610,-0.135
-315.927,-956.711,6.833,-0.216,-0.699,-0.142
-315.550,-957.349,4.625,-0.174,-0.694,-0.138
-314.544,-955.545,6.229,-0.100,-0.707,-0.142
-315.398,-955.088,6.800,-0.064,-0.695,-0.137
-316.051,-956.013,5.907,-0.072,-0.703,-0.148
-315.965,-956.057,5.998,-0.069,-0.699,-0.215
-315.066,-956.994,5.962,-0.069,-0.700,-0.215
-314.896,-956.187,6.875,-0.074,-0.698,-0.143
-315.001,-955.770,6.506,-0.033,-0.740,-0.182
-315.296,-955.759,5.662,0.053,-0.789,-0.225
-316.052,-955.992,6.307,0.051,-0.754,-0.199
-314.443,-955.636,5.620,-0.012,-0.783,-0.218
-315.408,-955.062,5.041,0.001,-0.762,-0.206
-317.000,-956.000,6.000,-0.070,-0.770,-0.210
-315.210,-955.932,6.892,-0.140,-0.842,-0.218
-314.877,-956.860,7.197,-0.132,-0.780,-0.152
-314.968,-956.216,6.251,-0.157,-0.807,-0.138
-314.990,-956.106,6.304,-0.095,-0.833,-0.136
-314.823,-956.825,7.220,-0.085,-0.730,-0.148
-315.200,-955.768,6.915,-0.148,-0.701,-0.127
-316.022,-956.039,7.002,-0.139,-0.699,-0.068
-315.988,-955.997,6.108,-0.141,-0.699,-0.070
-316.122,-956.777,5.705,-0.086,-0.702,-0.064
-315.139,-956.447,7.005,-0.057,-0.696,-0.122
-315.342,-955.393,6.379,-0.081,-0.707,-0.117
-316.141,-956.130,6.039,-0.061,-0.678,-0.050
-315.916,-955.789,5.737,-0.077,-0.614,-0.079
-316.018,-956.049,5.009,-0.065,-0.642,-0.069
-316.000,-955.000,6.000,-0.070,-0.700,-0.140
-316.014,-954.694,6.079,-0.134,-0.641,-0.155
-315.929,-956.764,5.901,-0.144,-0.619,-0.067
-316.111,-956.722,6.095,-0.137,-0.642,-0.118
-315.413,-957.079,5.918,-0.144,-0.615,-0.140
-314.901,-956.322,6.057,-0.126,-0.655,-0.147
-314.944,-956.155,5.966,-0.050,-0.705,-0.127
-315.062,-956.998,6.010,0.001,-0.699,-0.068
-315.990,-956.071,6.010,-0.000,-0.700,-0.069
-315.216,-955.862,5.974,0.002,-0.701,-0.069
-314.842,-956.464,6.038,-0.005,-0.698,-0.074
-314.908,-957.138,5.947,0.011,-0.705,-0.063
-315.281,-956.238,6.064,-0.030,-0.679,-0.082
-316.099,-956.077,5.915,-0.067,-0.615,-0.050
-316.020,-955.817,6.112,0.012,-0.640,0.002
-316.000,-955.000,7.000,-0.000,-0.700,0.000
-314.158,-956.808,6.220,-0.071,-0.701,0.006
-315.165,-956.412,5.653,-0.017,-0.700,-0.060
-316.562,-955.970,6.913,-0.017,-0.699,-0.037
-315.423,-957.619,6.528,-0.132,-0.701,0.017
-316.237,-957.824,5.926,-0.097,-0.698,-0.010
-314.334,-957.839,5.976,0.126,-0.702,0.009
-314.183,-955.818,6.043,0.285,-0.699,0.077
-316.050,-954.947,6.947,0.221,-0.699,0.140
-314.181,-955.833,7.068,0.086,-0.707,0.086
-315.102,-956.472,6.932,0.062,-0.651,0.059
-316.340,-956.796,7.088,0.078,-0.621,0.077
-315.705,-954.670,6.711,0.050,-0.636,0.068
-316.138,-954.111,5.743,-0.024,-0.625,0.062
-315.891,-955.093,6.190,-0.076,-0.636,-0.013
-315.000,-955.000,7.000,-0.140,-0.700,-0.070
-314.869,-954.919,6.113,-0.209,-0.710,-0.130
-315.868,-955.758,5.940,-0.166,-0.636,-0.154
-315.839,-955.540,5.988,-0.089,-0.666,-0.117
-316.467,-954.241,6.109,-0.066,-0.714,-0.205
-316.796,-955.576,5.664,-0.060,-0.693,-0.301
-315.852,-955.573,5.001,0.017,-0.704,-0.269
-316.002,-954.015,6.106,-0.007,-0.699,-0.285
-315.097,-955.881,6.970,-0.071,-0.699,-0.348
-314.766,-955.430,7.092,-0.059,-0.702,-0.347
-315.774,-954.387,6.332,-0.128,-0.697,-0.394
-315.934,-955.558,5.843,-0.130,-0.702,-0.434
-316.006,-956.046,6.090,-0.175,-0.698,-0.410
-315.813,-957.274,5.952,-0.199,-0.702,-0.429
-314.874,-956.847,6.017,-0.135,-0.699,-0.411
-315.000,-957.000,6.000,-0.140,-0.700,-0.350
-315.929,-957.995,6.004,-0.082,-0.704,-0.349
-316.021,-957.850,5.942,-0.019,-0.652,-0.310
-315.938,-958.123,6.509,0.050,-0.609,-0.221
-315.949,-957.079,7.312,0.071,-0.673,-0.216
-315.786,-957.197,6.553,0.076,-0.689,-0.191
-314.744,-957.844,6.070,0.057,-0.616,-0.125
-315.112,-955.842,7.051,-0.001,-0.635,-0.066
-316.035,-954.983,6.158,0.002,-0.698,-0.065
-315.065,-955.694,4.866,-0.056,-0.702,-0.138
-315.553,-956.755,5.915,-0.109,-0.698,-0.091
-316.135,-956.269,5.401,-0.200,-0.701,-0.091
-315.618,-955.989,5.245,-0.164,-0.700,-0.162
-314.741,-957.116,6.124,-0.050,-0.699,-0.128
-315.190,-955.689,6.051,-0.075,-0.704,-0.145
-316.000,-955.000,7.000,-0.070,-0.770,-0.140
-315.914,-955.919,6.218,-0.072,-0.780,-0.136
-316.287,-956.020,5.756,-0.021,-0.710,-0.145
-314.961,-955.797,6.210,0.015,-0.700,-0.160
-315.650,-955.857,6.083,-0.029,-0.697,-0.267
-315.355,-955.631,7.518,-0.099,-0.704,-0.269
-313.948,-954.775,6.556,-0.147,-0.696,-0.292
-315.062,-955.105,6.087,-0.221,-0.702,-0.273
-314.990,-956.880,7.036,-0.407,-0.702,-0.208
-315.848,-957.892,6.025,-0.496,-0.691,-0.276
-315.405,-957.911,6.769,-0.411,-0.721,-0.234
-314.795,-957.708,6.522,-0.259,-0.642,-0.208
-314.681,-957.975,6.163,-0.174,-0.662,-0.187
-313.960,-957.692,7.099,-0.010,-0.688,-0.132
-315.178,-957.011,5.743,0.063,-0.630,-0.138
-315.000,-958.000,5.000,0.000,-0.700,-0.070
-314.892,-957.307,4.160,0.067,-0.642,-0.009
-315.684,-955.871,4.312,0.019,-0.660,0.056
-316.769,-956.587,6.607,0.000,-0.738,0.074
-316.223,-956.499,6.695,-0.034,-0.642,0.075
-314.703,-955.450,5.606,-0.058,-0.651,0.048
-316.417,-954.850,4.891,0.002,-0.712,0.001
-315.847,-955.073,5.032,-0.076,-0.775,0.074
-314.937,-955.993,5.035,-0.072,-0.774,0.011
-315.949,-955.225,4.861,-0.071,-0.755,-0.075
-315.825,-954.667,5.696,-0.025,-0.834,-0.050
-316.210,-954.944,6.475,-0.016,-0.805,-0.145
-315.348,-954.700,7.313,-0.095,-0.761,-0.233
-315.214,-955.163,6.626,-0.057,-0.773,-0.193
-315.992,-956.186,6.006,-0.072,-0.770,-0.227
-315.000,-957.000,6.000,0.000,-0.770,-0.350
-314.942,-956.122,5.865,0.071,-0.769,-0.297
-314.988,-956.456,6.961,0.066,-0.772,-0.256
-315.480,-957.402,6.330,0.050,-0.766,-0.339
-315.847,-955.601,6.300,-0.058,-0.775,-0.344
-314.521,-954.957,7.177,-0.056,-0.765,-0.360
-315.252,-956.220,6.976,-0.094,-0.774,-0.336
-314.902,-957.079,6.964,-0.217,-0.768,-0.278
-314.870,-957.988,6.037,-0.276,-0.768,-0.280
-316.181,-957.247,6.693,-0.294,-0.777,-0.278
-314.410,-956.618,7.265,-0.188,-0.756,-0.288
-314.240,-957.046,6.762,-0.093,-0.792,-0.243
-315.398,-956.387,7.197,-0.046,-0.728,-0.201
-316.209,-955.858,6.850,0.013,-0.707,-0.213
-315.802,-956.094,7.091,-0.009,-0.687,-0.210
-315.000,-957.000,7.000,-0.070,-0.630,-0.210
-315.979,-957.105,6.063,-0.074,-0.699,-0.150
-315.192,-956.201,5.999,-0.059,-0.642,-0.129
-315.453,-955.662,5.917,-0.117,-0.669,-0.153
-315.786,-956.225,6.389,-0.143,-0.682,-0.124
-314.629,-957.069,7.232,-0.154,-0.628,-0.167
-315.140,-956.765,6.785,-0.222,-0.719,-0.214
-314.962,-955.975,5.969,-0.207,-0.695,-0.210
-314.969,-956.001,5.988,-0.207,-0.696,-0.210
-315.076,-955.911,6.009,-0.219,-0.712,-0.208
-314.806,-956.542,6.040,-0.163,-0.648,-0.214
-315.426,-956.567,5.594,-0.103,-0.618,-0.201
-316.217,-955.386,4.671,-0.055,-0.659,-0.236
-315.630,-956.425,5.372,-0.083,-0.698,-0.289
-315.059,-956.926,5.989,-0.059,-0.618,-0.277
-316.000,-956.000,6.000,0.000,-0.630,-0.280
-315.181,-955.890,7.000,-0.058,-0.697,-0.281
-314.853,-956.825,5.623,-0.125,-0.700,-0.279
-314.627,-956.375,4.972,-0.156,-0.702,-0.280
-313.453,-955.799,7.077,-0.099,-0.697,-0.283
-314.505,-957.373,6.480,-0.083,-0.702,-0.264
-314.939,-956.623,6.070,-0.146,-0.698,-0.198
-315.043,-957.169,5.944,-0.060,-0.701,-0.214
-315.074,-958.119,5.905,0.001,-0.700,-0.215
-314.021,-956.111,7.065,-0.010,-0.699,-0.147
-314.599,-956.117,6.121,0.056,-0.702,-0.140
-315.054,-954.806,6.602,0.047,-0.698,-0.135
-314.926,-955.812,6.691,-0.038,-0.702,-0.150
-314.936,-956.637,6.064,-0.075,-0.699,-0.120
-315.119,-954.945,7.064,-0.067,-0.701,-0.070
-316.000,-956.000,6.000,-0.070,-0.700,-0.140
-314.355,-955.065,5.873,-0.132,-0.699,-0.206
-313.503,-956.356,6.178,-0.148,-0.702,-0.214
-315.015,-956.658,5.810,-0.131,-0.697,-0.202
-314.272,-955.638,6.171,-0.150,-0.706,-0.241
-314.219,-957.453,5.864,-0.121,-0.682,-0.290
-315.067,-956.538,6.085,-0.053,-0.618,-0.277
-315.008,-956.068,5.972,0.001,-0.635,-0.279
-315.046,-956.980,5.972,-0.061,-0.697,-0.216
-314.089,-956.958,6.077,-0.143,-0.703,-0.197
-314.538,-956.966,5.885,-0.090,-0.698,-0.231
-314.798,-956.253,6.134,-0.066,-0.702,-0.160
-313.384,-955.884,5.863,-0.069,-0.699,-0.143
-314.667,-957.405,6.113,-0.074,-0.701,-0.132
-316.008,-956.660,5.932,-0.065,-0.699,-0.150
-315.000,-955.000,6.000,-0.070,-0.700,-0.210
-314.915,-955.933,6.091,-0.195,-0.701,-0.151
-315.115,-955.262,5.792,-0.218,-0.696,-0.126
-314.792,-955.181,6.371,-0.237,-0.710,-0.185
-315.126,-956.118,5.200,-0.307,-0.665,-0.221
-314.608,-955.672,5.422,-0.250,-0.636,-0.200
-313.887,-956.048,5.849,-0.200,-0.716,-0.223
-314.049,-956.011,5.012,-0.135,-0.696,-0.284
-314.946,-956.913,5.973,-0.136,-0.696,-0.344
-315.040,-957.179,5.197,-0.155,-0.713,-0.414
-315.449,-956.135,5.498,-0.077,-0.676,-0.416
-316.012,-955.240,5.914,-0.102,-0.757,-0.452
-313.910,-954.888,4.458,-0.166,-0.756,-0.518
-314.545,-956.372,5.496,-0.234,-0.798,-0.582
-314.743,-955.735,5.939,-0.281,-0.833,-0.633
-313.000,-955.000,6.000,-0.280,-0.770,-0.630
-313.933,-956.788,6.983,-0.340,-0.835,-0.631
-313.262,-957.092,6.307,-0.362,-0.794,-0.625
-313.295,-957.195,5.817,-0.307,-0.762,-0.642
-314.510,-958.213,6.134,-0.266,-0.750,-0.593
-315.178,-957.456,5.896,-0.294,-0.682,-0.558
-314.632,-958.447,6.069,-0.262,-0.709,-0.552
-312.938,-960.019,5.974,-0.211,-0.696,-0.485
-313.012,-959.075,5.971,-0.277,-0.635,-0.427
-312.148,-958.923,6.098,-0.234,-0.568,-0.306
-312.453,-958.377,5.815,-0.154,-0.561,-0.232
-313.190,-957.348,6.304,-0.107,-0.529,-0.144
-312.815,-958.528,5.388,-0.054,-0.475,-0.025
-313.016,-958.605,5.228,-0.079,-0.498,0.010
-313.067,-956.805,5.994,-0.066,-0.487,0.084
-314.000,-957.000,5.000,-0.070,-0.490,0.140
-314.016,-957.119,4.883,-0.072,-0.493,0.142
-314.611,-956.210,5.800,-0.104,-0.481,0.135
-315.271,-955.241,5.759,-0.209,-0.531,0.153
-314.362,-954.763,4.082,-0.173,-0.573,0.085
-313.861,-956.831,4.469,-0.139,-0.549,-0.039
-314.046,-957.818,4.834,-0.130,-0.573,-0.077
-313.973,-955.858,4.012,-0.066,-0.634,-0.147
-313.945,-955.014,4.955,-0.067,-0.694,-0.207
-314.912,-954.938,4.931,-0.122,-0.764,-0.262
-314.387,-955.396,5.834,-0.196,-0.769,-0.331
-313.699,-956.470,5.113,-0.211,-0.776,-0.385
-314.106,-956.877,3.845,-0.215,-0.759,-0.435
-313.868,-957.080,5.439,-0.195,-0.790,-0.409
-314.117,-958.173,4.802,-0.131,-0.843,-0.427
-315.000,-958.000,5.000,-0.070,-0.840,-0.420
-314.300,-956.958,6.047,0.002,-0.843,-0.353
-312.303,-957.786,5.212,-0.097,-0.826,-0.356
-312.206,-957.837,4.919,-0.168,-0.896,-0.306
-314.002,-957.885,5.051,-0.117,-0.878,-0.276
-315.053,-957.704,4.932,-0.161,-0.849,-0.266
-313.528,-958.136,5.137,-0.119,-0.916,-0.198
-313.077,-957.905,6.055,-0.071,-0.831,-0.213
-314.015,-956.972,6.035,-0.134,-0.770,-0.213
-313.146,-957.919,5.918,-0.198,-0.771,-0.202
-312.935,-957.195,6.115,-0.225,-0.771,-0.226
-312.842,-956.731,5.857,-0.168,-0.746,-0.162
-313.126,-956.733,6.171,-0.134,-0.659,-0.156
-312.745,-957.268,5.734,-0.143,-0.630,-0.225
-313.284,-957.975,4.927,-0.137,-0.625,-0.203
-315.000,-957.000,5.000,-0.070,-0.560,-0.210
-314.126,-956.172,5.850,0.000,-0.552,-0.276
-313.981,-955.008,6.245,-0.048,-0.578,-0.277
-313.755,-955.525,5.231,-0.111,-0.501,-0.317
-314.629,-955.389,5.074,-0.179,-0.518,-0.366
-314.418,-955.098,4.660,-0.212,-0.569,-0.337
-312.888,-957.460,4.022,-0.218,-0.559,-0.364
-314.091,-957.989,5.077,-0.284,-0.559,-0.422
-314.042,-958.009,5.049,-0.283,-0.557,-0.421
-313.994,-957.247,4.885,-0.275,-0.619,-0.415
-313.304,-956.580,5.158,-0.287,-0.635,-0.463
-313.189,-957.384,4.805,-0.272,-0.629,-0.511
-314.101,-958.030,5.235,-0.289,-0.626,-0.455
-312.342,-957.670,4.655,-0.266,-0.637,-0.419
-312.168,-957.020,4.031,-0.199,-0.620,-0.414
-313.000,-958.000,5.000,-0.140,-0.560,-0.350
-312.124,-958.062,5.132,-0.140,-0.620,-0.349
-311.895,-957.917,4.128,-0.097,-0.634,-0.307
-311.991,-957.854,4.434,-0.045,-0.660,-0.257
-312.172,-957.843,5.317,-0.113,-0.724,-0.304
-313.345,-957.610,4.752,-0.150,-0.670,-0.246
-312.632,-956.816,5.188,-0.236,-0.626,-0.212
-312.055,-957.067,4.902,-0.277,-0.631,-0.206
-312.986,-957.959,3.991,-0.212,-0.631,-0.143
-312.868,-958.034,4.183,-0.218,-0.623,-0.139
-313.799,-957.854,3.037,-0.123,-0.677,-0.138
-313.442,-957.141,3.967,-0.018,-0.710,-0.146
-312.886,-954.766,5.318,0.011,-0.694,-0.128
-312.810,-955.627,4.877,-0.027,-0.703,-0.162
-311.921,-956.969,5.031,-0.157,-0.699,-0.208
-312.000,-956.000,5.000,-0.210,-0.700,-0.140
-311.981,-956.842,5.056,-0.272,-0.700,-0.133
-312.089,-957.079,4.226,-0.248,-0.700,-0.188
-311.700,-956.847,4.296,-0.142,-0.699,-0.261
-312.595,-956.406,5.751,-0.169,-0.702,-0.280
-312.682,-955.695,5.817,-0.235,-0.696,-0.298
-311.933,-956.005,4.709,-0.287,-0.704,-0.358
-311.983,-956.032,4.006,-0.280,-0.696,-0.350
-311.940,-956.941,4.914,-0.343,-0.633,-0.414
-312.965,-957.053,5.214,-0.369,-0.627,-0.431
-312.229,-956.826,4.138,-0.285,-0.631,-0.405
-312.277,-956.707,4.412,-0.290,-0.635,-0.437
-313.215,-957.228,5.226,-0.263,-0.607,-0.401
-312.740,-958.014,4.893,-0.307,-0.549,-0.445
-311.895,-958.113,4.996,-0.346,-0.563,-0.490
-312.000,-959.000,4.000,-0.280,-0.560,-0.490
-312.116,-957.214,4.609,-0.272,-0.559,-0.498
-311.715,-958.089,5.866,-0.378,-0.556,-0.427
-312.446,-959.181,1.932,-0.410,-0.601,-0.456
-310.946,-956.145,1.981,-0.095,-0.621,-0.501
-311.602,-956.115,4.680,-0.203,-0.531,-0.489
-311.616,-955.819,5.150,-0.623,-0.582,-0.477
-311.148,-958.404,4.794,-0.626,-0.632,-0.340
-313.066,-962.049,0.233,-0.633,-0.694,-0.341
-310.895,-958.759,2.330,-0.381,-0.671,-0.429
-314.392,-956.966,8.047,-0.062,-0.531,-0.327
-314.983,-956.097,5.905,-0.180,-0.668,-0.236
-310.315,-956.638,3.113,-0.346,-0.646,-0.181
-311.525,-959.560,3.341,-0.433,-0.562,-0.132
-310.764,-958.751,5.256,-0.322,-0.633,-0.143
-311.000,-958.000,5.000,-0.210,-0.560,-0.140
-311.124,-957.161,3.962,-0.269,-0.558,-0.081
-311.433,-956.814,4.199,-0.331,-0.514,-0.016
-312.109,-956.909,3.605,-0.373,-0.478,0.040
-309.599,-957.281,4.859,-0.285,-0.478,0.090
-310.940,-959.747,4.364,-0.181,-0.383,0.041
-311.800,-959.596,2.935,-0.121,-0.347,-0.002
-311.053,-957.915,4.091,0.011,-0.353,-0.001
-312.886,-957.062,4.074,0.073,-0.416,-0.002
-313.126,-956.823,3.123,-0.034,-0.423,0.009
-312.892,-957.169,2.954,-0.173,-0.452,-0.052
-312.593,-955.942,2.708,-0.253,-0.540,-0.071
-311.593,-956.471,1.519,-0.290,-0.577,-0.089
-312.346,-958.313,2.558,-0.274,-0.657,-0.161
-313.037,-957.821,2.771,-0.283,-0.704,-0.220
-313.000,-957.000,1.000,-0.280,-0.770,-0.280
-312.165,-957.798,1.831,-0.275,-0.895,-0.280
-311.763,-958.301,2.598,-0.294,-0.930,-0.322
-312.280,-956.968,4.466,-0.229,-0.850,-0.404
-311.263,-956.950,4.360,-0.211,-0.887,-0.420
-311.017,-956.576,2.786,-0.200,-1.015,-0.433
-310.882,-957.388,4.293,-0.228,-0.955,-0.506
-311.063,-959.053,2.787,-0.276,-0.911,-0.483
-311.106,-958.994,1.879,-0.088,-0.914,-0.419
-309.856,-959.158,3.809,0.063,-0.849,-0.481
-311.466,-957.439,3.929,0.071,-0.837,-0.457
-311.538,-956.909,4.586,0.050,-0.842,-0.372
-311.078,-958.527,4.832,-0.058,-0.826,-0.343
-312.104,-958.853,3.748,-0.168,-0.739,-0.357
-310.729,-957.790,4.105,-0.212,-0.702,-0.342
-310.000,-957.000,4.000,-0.210,-0.700,-0.280
-310.781,-957.866,3.882,-0.213,-0.634,-0.280
-312.040,-958.083,4.302,-0.161,-0.635,-0.273
-310.759,-957.764,3.059,-0.125,-0.587,-0.325
-309.960,-957.815,3.600,-0.153,-0.555,-0.338
-311.346,-957.873,3.705,-0.128,-0.546,-0.244
-310.811,-957.923,3.080,-0.154,-0.479,-0.208
-311.034,-958.057,3.997,-0.213,-0.493,-0.210
-310.143,-958.967,2.166,-0.214,-0.492,-0.211
-309.566,-958.963,1.707,-0.106,-0.485,-0.207
-311.673,-959.055,2.362,0.006,-0.497,-0.220
-311.444,-957.715,1.566,-0.044,-0.480,-0.170
-310.864,-956.808,2.672,-0.070,-0.514,-0.136
-310.944,-958.330,2.782,-0.082,-0.579,-0.130
-311.114,-957.843,1.925,-0.151,-0.640,-0.062
-312.000,-958.000,2.000,-0.210,-0.700,-0.070
-311.177,-959.022,2.847,-0.215,-0.705,-0.074
-310.797,-957.701,3.239,-0.196,-0.688,-0.065
-311.161,-955.709,2.275,-0.262,-0.748,-0.076
-310.674,-956.711,1.928,-0.277,-0.771,-0.064
-311.382,-958.110,2.183,-0.293,-0.785,-0.076
-311.938,-957.888,3.232,-0.251,-0.852,-0.065
-310.925,-958.025,2.912,-0.057,-0.835,-0.074
-310.925,-958.029,2.862,0.001,-0.773,-0.136
-311.937,-957.286,4.898,-0.001,-0.765,-0.145
-311.383,-955.881,3.809,-0.031,-0.780,-0.134
-310.675,-956.702,2.550,-0.128,-0.731,-0.147
-311.155,-958.245,3.546,-0.118,-0.690,-0.133
-310.810,-957.761,3.967,-0.058,-0.704,-0.146
-311.162,-958.063,2.733,-0.075,-0.699,-0.136
-312.000,-957.000,2.000,-0.070,-0.700,-0.140
-311.200,-955.847,3.797,-0.061,-0.700,-0.149
-310.095,-957.573,3.581,-0.133,-0.700,-0.074
-310.375,-957.964,2.029,-0.104,-0.698,-0.113
-311.280,-957.762,2.424,-0.057,-0.704,-0.125
-310.660,-957.836,3.201,-0.076,-0.693,-0.047
-311.230,-958.005,2.805,-0.068,-0.714,-0.088
-310.873,-957.992,1.959,-0.070,-0.770,-0.142
-309.923,-958.001,1.962,-0.070,-0.705,-0.141
-311.769,-957.349,2.784,-0.071,-0.741,-0.139
-311.400,-955.842,3.221,-0.064,-0.805,-0.140
-310.795,-956.360,2.719,-0.101,-0.702,-0.160
-310.888,-957.064,3.361,-0.172,-0.738,-0.259
-311.291,-958.506,2.490,-0.221,-0.757,-0.262
-311.899,-958.787,2.216,-0.201,-0.695,-0.211
-310.000,-957.000,4.000,-0.140,-0.700,-0.280
-310.708,-958.671,3.113,-0.141,-0.698,-0.286
-311.352,-958.757,3.647,-0.098,-0.709,-0.272
-310.559,-956.605,3.729,-0.015,-0.655,-0.291
-311.309,-957.521,2.588,-0.015,-0.623,-0.249
-310.620,-957.704,3.282,-0.110,-0.631,-0.197
-311.246,-958.230,2.773,-0.131,-0.631,-0.219
-310.877,-958.989,1.939,-0.067,-0.629,-0.205
-309.952,-958.068,1.038,-0.069,-0.627,-0.142
-310.942,-957.882,1.648,-0.066,-0.689,-0.145
-310.760,-957.971,2.419,-0.115,-0.704,-0.092
-311.680,-957.619,1.148,-0.152,-0.701,-0.066
-311.552,-958.241,1.368,-0.135,-0.693,-0.052
-311.101,-959.080,2.116,-0.134,-0.716,0.015
-312.050,-958.980,1.958,-0.055,-0.775,-0.006
-311.000,-959.000,2.000,-0.000,-0.770,-0.000
-310.825,-958.202,2.867,-0.000,-0.771,0.007
-311.907,-957.088,3.148,0.000,-0.762,-0.055
-311.535,-956.871,2.829,0.003,-0.817,-0.079
-310.232,-956.436,3.192,-0.021,-0.823,-0.060
-310.167,-955.591,2.784,-0.101,-0.750,-0.090
-311.129,-956.205,3.263,-0.149,-0.780,-0.154
-310.977,-957.047,3.985,-0.217,-0.765,-0.216
-310.993,-957.899,3.066,-0.278,-0.703,-0.279
-310.949,-958.991,2.873,-0.282,-0.695,-0.229
-311.607,-958.091,3.632,-0.249,-0.710,-0.193
-311.752,-958.471,4.344,-0.128,-0.661,-0.228
-310.449,-960.563,3.202,-0.041,-0.622,-0.179
-311.493,-959.181,1.771,0.031,-0.631,-0.126
-311.886,-958.080,2.058,0.155,-0.634,-0.057
-311.000,-959.000,2.000,0.140,-0.700,-0.000
-311.023,-957.298,2.770,0.015,-0.707,-0.002
-310.843,-956.665,3.950,-0.052,-0.686,0.044
-311.680,-957.181,3.554,-0.143,-0.749,0.125
-311.594,-956.345,2.339,-0.271,-0.775,0.121
-310.928,-957.670,2.173,-0.256,-0.768,0.049
-312.305,-958.875,3.172,-0.207,-0.770,0.083
-311.880,-956.866,2.959,-0.208,-0.770,0.063
-310.963,-956.927,2.969,-0.144,-0.770,0.000
-311.922,-956.503,3.045,-0.133,-0.770,0.009
-311.349,-955.000,3.437,-0.146,-0.771,-0.054
-310.788,-958.307,4.516,-0.140,-0.768,-0.068
-310.790,-959.663,3.233,-0.112,-0.775,-0.092
-309.672,-957.245,3.344,0.058,-0.757,-0.159
-310.206,-957.171,3.918,0.139,-0.692,-0.219
-311.000,-958.000,3.000,0.070,-0.700,-0.210
-310.904,-957.105,3.846,-0.049,-0.708,-0.138
-311.849,-957.492,4.130,-0.141,-0.645,-0.199
-311.533,-958.320,3.894,-0.123,-0.596,-0.176
-310.334,-956.966,4.106,-0.187,-0.513,-0.127
-309.837,-957.222,3.757,-0.190,-0.494,-0.145
-310.128,-957.987,2.817,-0.143,-0.477,-0.140
-311.085,-958.036,3.064,-0.213,-0.420,-0.139
-311.977,-958.077,3.092,-0.150,-0.484,-0.137
-311.342,-956.973,1.960,-0.071,-0.501,-0.201
-310.442,-957.630,2.815,-0.076,-0.474,-0.208
-312.339,-957.357,2.530,-0.061,-0.532,-0.243
-312.445,-956.712,1.926,-0.093,-0.568,-0.293
-310.607,-956.935,1.818,-0.162,-0.555,-0.273
-311.144,-957.123,0.958,-0.214,-0.565,-0.286
-311.000,-958.000,2.000,-0.210,-0.630,-0.350
-310.799,-957.866,2.988,-0.263,-0.694,-0.362
-312.611,-959.586,2.427,-0.350,-0.706,-0.283
-312.704,-959.410,1.106,-0.308,-0.691,-0.299
-311.148,-958.903,1.447,-0.273,-0.727,-0.209
-311.063,-960.152,2.064,-0.272,-0.797,-0.134
-310.799,-959.954,2.109,-0.188,-0.848,-0.124
-309.969,-961.087,3.055,-0.139,-0.837,0.008
-309.981,-960.188,3.028,-0.141,-0.836,0.064
-310.660,-958.789,2.945,-0.137,-0.905,0.233
-311.944,-959.816,3.101,-0.149,-0.870,0.354
-311.287,-959.203,2.525,-0.105,-0.823,0.361
-311.250,-958.835,1.928,-0.044,-0.853,0.485
-311.966,-958.765,3.663,0.024,-0.824,0.583
-310.862,-957.932,3.778,0.070,-0.758,0.635
-311.000,-958.000,3.000,-0.000,-0.700,0.630
-310.964,-957.164,4.153,-0.069,-0.758,0.630
-312.310,-956.777,1.559,-0.028,-0.749,0.589
-313.465,-957.097,2.227,0.054,-0.585,0.504
-312.447,-956.241,4.984,0.071,-0.587,0.491
-313.420,-955.657,2.991,0.074,-0.639,0.479
-312.524,-954.624,1.974,0.060,-0.629,0.394
-312.132,-954.052,1.994,-0.004,-0.629,0.271
-314.002,-955.000,2.000,-0.002,-0.628,0.152
-312.339,-954.124,1.937,0.008,-0.687,-0.028
-312.410,-954.427,2.684,-0.044,-0.708,-0.174
-312.782,-954.577,2.774,-0.109,-0.694,-0.274
-311.769,-953.660,1.564,-0.167,-0.702,-0.418
-313.497,-955.608,2.422,-0.230,-0.706,-0.508
-312.726,-955.902,2.986,-0.286,-0.786,-0.575
-312.000,-956.000,3.000,-0.280,-0.840,-0.700
-311.229,-956.883,3.113,-0.214,-0.780,-0.709
-311.207,-958.275,2.111,-0.252,-0.758,-0.684
-312.951,-959.533,2.510,-0.280,-0.790,-0.725
-310.106,-957.670,3.154,-0.107,-0.707,-0.649
-311.114,-958.743,3.136,-0.108,-0.608,-0.643
-312.868,-959.755,4.133,-0.218,-0.642,-0.604
-310.907,-957.940,2.855,-0.132,-0.625,-0.486
-310.980,-958.882,2.850,-0.133,-0.562,-0.492
-310.951,-959.868,4.181,-0.210,-0.563,-0.382
-311.121,-960.038,3.010,-0.165,-0.518,-0.295
-310.627,-959.145,3.364,-0.128,-0.472,-0.220
-311.345,-958.874,2.356,-0.147,-0.509,-0.090
-310.645,-958.791,4.049,-0.144,-0.462,-0.063
-312.591,-959.250,4.390,-0.220,-0.429,0.013
-313.000,-960.000,-2.000,-0.070,-0.560,-0.000
-308.744,-954.886,0.861,0.218,-0.513,-0.071
-314.577,-952.195,5.492,-0.160,-0.450,-0.019
-313.637,-955.882,2.374,-0.618,-0.605,0.014
-307.868,-959.286,0.233,-0.548,-0.595,-0.046
-312.068,-959.663,0.141,-0.321,-0.572,-0.207
-313.835,-958.689,1.228,-0.001,-0.638,-0.276
-311.840,-956.829,0.929,0.059,-0.630,-0.207
-310.932,-955.895,0.913,-0.131,-0.693,-0.271
-312.723,-958.492,1.950,-0.152,-0.762,-0.350
-312.456,-958.680,1.929,-0.098,-0.781,-0.344
-311.786,-956.479,2.133,-0.018,-0.728,-0.360
-311.653,-955.601,1.833,-0.033,-0.710,-0.339
-311.078,-956.417,2.169,-0.183,-0.789,-0.362
-312.063,-957.043,1.869,-0.204,-0.762,-0.339
-311.000,-958.000,2.000,-0.210,-0.770,-0.280
-310.935,-959.190,3.887,-0.336,-0.780,-0.286
-310.429,-957.032,3.358,-0.361,-0.707,-0.222
-309.183,-958.147,2.826,-0.342,-0.708,-0.216
-309.111,-959.251,3.037,-0.340,-0.665,-0.158
-310.667,-960.442,3.214,-0.228,-0.625,-0.030
-310.736,-959.492,4.088,-0.117,-0.624,0.007
-310.055,-959.145,2.855,0.012,-0.554,0.076
-310.989,-959.187,1.975,0.136,-0.493,0.136
-310.837,-957.591,2.181,0.142,-0.482,0.197
-311.366,-958.205,1.114,0.143,-0.537,0.220
-310.265,-955.769,1.526,0.112,-0.572,0.202
-312.302,-959.684,1.842,0.034,-0.549,0.216
-312.580,-954.918,0.860,-0.005,-0.576,0.207
-312.195,-957.083,2.284,-0.001,-0.639,0.208
-313.000,-956.000,2.000,-0.070,-0.700,0.140
-312.872,-954.549,-0.009,-0.140,-0.764,0.074
-312.075,-959.428,1.456,-0.128,-0.771,0.032
-310.140,-953.240,2.263,-0.194,-0.801,-0.090
-314.051,-960.572,1.857,-0.185,-0.864,-0.179
-311.476,-950.650,2.065,-0.129,-0.818,-0.221
-312.723,-962.225,1.983,-0.138,-0.863,-0.202
-310.620,-956.422,1.997,-0.062,-0.907,-0.215
-311.495,-956.191,1.984,-0.001,-0.843,-0.279
-312.747,-964.991,2.117,-0.004,-0.839,-0.232
-308.367,-951.235,1.218,0.044,-0.838,-0.152
-313.789,-971.365,1.371,0.085,-0.845,-0.142
-306.720,-946.898,2.212,0.059,-0.834,-0.109
-315.733,-969.115,2.028,0.077,-0.846,0.055
-309.799,-954.546,3.193,0.069,-0.837,0.145
-312.000,-958.000,3.000,0.140,-0.840,0.210
-314.834,-968.037,2.016,0.104,-0.783,0.340
-305.921,-941.020,2.071,-0.085,-0.791,0.351
-321.207,-984.066,1.860,0.078,-0.898,0.383
-300.114,-922.396,2.203,0.097,-0.751,0.461
-325.298,-996.764,1.727,-0.011,-0.833,0.487
-301.085,-919.326,2.408,0.090,-0.800,0.397
-319.509,-977.045,4.022,0.066,-0.787,0.430
-325.289,-995.644,2.221,0.069,-0.870,0.438
-52.627,-161.143,0.145,0.021,-0.151,0.070
