acc_x[mg],acc_y[mg],acc_z[mg],gyro_x[dps],gyro_y[dps],gyro_z[dps]
-94.000,-33.000,-1018.000,3.010,0.840,1.680
-97.995,-34.244,-1057.773,3.910,0.700,1.990
-90.376,-33.433,-957.131,4.272,0.462,2.083
-103.008,-38.980,-1057.280,4.645,0.503,2.490
-96.749,-37.533,-973.257,4.579,0.321,2.577
-100.176,-41.408,-1045.347,5.254,0.246,2.956
-92.910,-39.010,-1007.791,5.550,-0.109,3.075
-93.425,-38.116,-1025.440,5.510,-0.514,3.083
-93.498,-38.150,-1024.057,4.712,-0.874,2.964
-87.072,-37.437,-1009.238,3.709,-1.373,2.601
-81.946,-40.822,-1032.505,3.150,-1.714,2.246
-79.412,-43.022,-1005.418,2.359,-2.004,1.905
-81.298,-42.401,-1025.489,1.649,-2.305,1.794
-76.068,-42.677,-1007.962,1.014,-2.630,1.715
-72.689,-47.771,-1019.432,0.861,-2.986,1.593
-72.000,-49.000,-1014.000,1.190,-3.150,1.470
-78.068,-46.452,-1010.430,1.672,-3.320,1.288
-78.311,-42.583,-1013.731,1.996,-3.511,1.145
-71.694,-38.003,-998.729,1.689,-3.369,1.079
-70.792,-36.673,-1008.854,1.238,-3.284,1.009
-67.166,-37.529,-995.845,0.796,-3.407,0.978
-63.285,-39.349,-997.812,0.322,-3.421,0.968
-60.851,-40.058,-996.526,0.145,-3.355,0.827
-59.173,-41.849,-999.342,0.517,-3.355,0.705
-56.937,-41.755,-1000.087,0.958,-3.429,0.606
-60.470,-38.025,-996.447,0.833,-3.379,0.336
-64.979,-35.965,-1004.066,0.498,-3.401,0.022
-62.436,-34.137,-1001.759,0.228,-3.602,-0.308
-60.640,-34.451,-1006.678,-0.146,-3.886,-0.788
-60.078,-34.736,-1005.530,-0.909,-4.343,-1.256
-63.000,-33.000,-1011.000,-1.750,-4.690,-1.680
-64.908,-38.820,-1016.663,-2.304,-4.919,-2.054
-67.363,-42.699,-1011.215,-2.797,-5.362,-2.347
-71.463,-40.492,-1014.455,-3.283,-5.867,-2.682
-69.739,-41.934,-1021.027,-3.944,-6.118,-2.895
-73.825,-39.474,-1020.544,-4.555,-6.168,-3.106
-82.816,-38.199,-1013.435,-5.213,-6.149,-3.323
-88.334,-37.760,-1013.316,-5.836,-6.087,-3.361
-90.968,-34.966,-1017.029,-5.768,-6.148,-3.423
-91.322,-36.527,-1013.352,-5.316,-6.293,-3.494
-96.908,-29.684,-1008.482,-4.558,-6.196,-3.477
-104.148,-23.429,-1002.915,-3.288,-5.920,-3.298
-109.254,-23.827,-993.769,-1.719,-5.724,-3.020
-112.597,-17.713,-990.476,-0.268,-5.409,-2.675
-113.164,-13.752,-985.832,1.220,-4.976,-2.153
-116.000,-12.000,-980.000,2.660,-4.550,-1.610
-116.370,-10.861,-985.053,3.962,-4.005,-1.016
-114.612,-11.453,-985.435,5.658,-3.474,-0.290
-117.055,-9.704,-977.983,7.067,-2.747,0.371
-117.560,-11.940,-979.426,8.139,-1.813,0.935
-115.479,-16.813,-976.213,9.238,-1.048,1.605
-117.798,-22.657,-972.331,10.483,-0.217,2.333
-118.902,-30.494,-980.645,12.256,0.536,2.988
-117.889,-32.209,-983.093,14.021,1.015,3.535
-121.746,-29.105,-984.692,15.285,1.502,3.956
-127.355,-31.284,-988.198,15.760,1.906,4.470
-134.577,-34.808,-982.691,15.615,2.240,5.007
-136.060,-38.302,-981.957,15.432,2.644,5.472
-124.386,-48.282,-989.321,16.060,3.072,6.079
-108.800,-53.054,-994.529,17.338,3.492,6.657
-99.000,-52.000,-997.000,18.270,3.850,7.070
-96.396,-50.751,-1002.657,18.856,4.003,7.334
-90.905,-43.375,-1011.123,18.795,3.726,7.285
-81.715,-37.789,-1016.342,18.004,3.191,7.004
-77.617,-36.643,-1025.551,16.238,2.635,6.668
-79.002,-37.832,-1033.971,13.049,1.970,6.125
-82.878,-42.463,-1033.373,9.051,1.221,5.337
-85.066,-54.252,-1030.811,4.692,0.345,4.484
-85.049,-70.974,-1028.980,0.015,-0.690,3.633
-84.148,-81.336,-1031.999,-4.522,-1.598,2.880
-84.717,-97.655,-1033.015,-8.204,-2.078,2.292
-88.740,-116.975,-1025.656,-11.011,-2.302,1.806
-92.417,-127.265,-1016.167,-12.753,-2.587,1.295
-94.576,-138.466,-1004.314,-13.305,-2.753,0.744
-94.726,-144.345,-997.514,-13.179,-2.720,0.288
-90.000,-146.000,-996.000,-12.600,-2.590,-0.070
-85.262,-146.497,-995.084,-11.807,-2.239,-0.378
-85.507,-141.621,-992.203,-11.174,-1.800,-0.625
-86.435,-136.065,-986.109,-10.920,-1.425,-0.894
-84.940,-125.031,-993.851,-10.719,-1.080,-1.248
-84.130,-108.124,-1000.285,-10.356,-0.817,-1.595
-88.309,-89.953,-996.602,-10.263,-0.572,-1.889
-92.066,-76.171,-1002.663,-11.172,-0.418,-2.277
-91.027,-66.693,-1007.820,-12.889,-0.544,-2.827
-93.138,-59.681,-1011.096,-14.398,-0.731,-3.330
-95.316,-58.017,-1012.466,-15.638,-0.912,-3.754
-94.239,-54.135,-1012.656,-16.464,-1.036,-4.167
-93.800,-51.195,-1017.605,-16.737,-1.092,-4.457
-94.919,-48.675,-1012.642,-16.668,-1.346,-4.691
-102.233,-41.949,-1011.589,-16.218,-1.479,-4.838
-104.000,-36.000,-1013.000,-15.400,-1.680,-4.760
-97.674,-29.087,-1008.858,-14.143,-2.011,-4.583
-95.378,-22.314,-1012.968,-12.704,-2.016,-4.313
-94.029,-13.616,-1013.413,-10.722,-2.183,-3.913
-94.573,-4.070,-1013.099,-8.285,-2.387,-3.461
-95.032,4.163,-1011.104,-6.128,-2.360,-2.941
-98.376,11.386,-1002.883,-4.114,-2.281,-2.400
-105.460,15.197,-994.441,-2.716,-2.085,-1.924
-109.725,16.083,-991.781,-1.518,-1.964,-1.379
-112.158,15.336,-995.740,0.214,-1.912,-0.711
-109.801,21.667,-993.319,1.928,-1.742,-0.092
-109.058,27.754,-985.552,3.299,-1.329,0.539
-107.509,25.230,-975.763,3.887,-0.807,1.224
-102.948,20.040,-978.279,4.467,-0.234,1.884
-103.230,10.343,-982.841,5.833,0.371,2.548
-104.000,2.000,-980.000,7.210,0.980,3.080
-104.125,-3.149,-985.944,8.322,1.602,3.504
-101.951,-8.622,-991.093,9.156,2.002,3.929
-99.868,-12.208,-999.153,9.894,2.303,4.358
-100.237,-13.341,-1004.206,10.492,2.374,4.726
-99.529,-15.273,-1004.178,10.478,2.294,4.854
-97.292,-21.532,-1007.932,9.819,2.296,4.921
-92.549,-26.316,-1013.584,9.054,1.996,4.967
-86.412,-32.385,-1019.872,8.585,1.568,4.843
-83.693,-39.637,-1018.286,7.654,1.255,4.666
-85.843,-46.775,-1018.789,6.366,0.968,4.443
-84.228,-57.904,-1016.664,5.350,0.610,4.143
-80.826,-64.128,-1014.904,4.415,0.305,3.695
-81.552,-70.293,-1015.453,3.738,0.177,3.232
-84.573,-75.324,-1011.510,3.117,0.052,2.890
-88.000,-77.000,-1009.000,2.520,0.000,2.520
-88.953,-81.727,-1005.667,2.091,-0.053,2.045
-89.170,-79.556,-1012.173,1.791,-0.172,1.448
-88.177,-75.227,-1012.831,1.627,-0.322,0.868
-88.479,-68.306,-1011.542,0.958,-0.532,0.363
-88.726,-56.697,-1017.423,-0.032,-0.685,-0.101
-88.194,-48.154,-1013.602,-1.236,-0.899,-0.514
-91.235,-40.553,-1010.923,-2.855,-1.135,-0.945
-92.050,-38.900,-1007.453,-4.305,-1.314,-1.431
-92.464,-39.895,-1002.566,-5.661,-1.514,-1.928
-95.067,-41.486,-1000.742,-6.634,-1.521,-2.323
-97.472,-44.994,-1002.975,-6.848,-1.384,-2.626
-100.152,-43.589,-1010.115,-6.676,-1.304,-2.772
-100.953,-38.030,-1013.220,-6.347,-1.379,-2.822
-99.759,-30.942,-1011.561,-6.329,-1.654,-2.964
-98.000,-26.000,-1008.000,-6.650,-1.820,-3.080
-95.482,-23.358,-1003.880,-7.065,-1.823,-3.196
-92.577,-22.330,-996.877,-7.532,-1.779,-3.339
-90.751,-25.734,-993.844,-7.714,-1.691,-3.341
-85.402,-26.472,-999.044,-7.645,-1.674,-3.219
-79.494,-22.770,-1002.755,-7.301,-1.524,-3.111
-82.181,-23.389,-1004.291,-6.523,-1.287,-2.969
-86.178,-21.612,-1004.958,-5.756,-1.183,-2.789
-88.672,-16.277,-1002.306,-5.029,-1.061,-2.731
-94.501,-13.692,-999.797,-4.329,-0.936,-2.685
-100.259,-10.529,-1001.508,-3.821,-0.815,-2.562
-104.161,-10.454,-1001.119,-3.386,-0.723,-2.457
-104.454,-11.055,-1001.586,-3.079,-0.665,-2.283
-100.792,-13.355,-1002.661,-2.514,-0.506,-2.019
-98.915,-19.939,-999.770,-1.782,-0.417,-1.783
-98.000,-23.000,-1003.000,-0.910,-0.420,-1.470
-95.300,-23.063,-1004.478,0.585,-0.361,-1.045
-94.740,-22.361,-1001.694,2.119,-0.298,-0.660
-95.515,-20.877,-1003.967,3.301,-0.235,-0.374
-97.122,-19.381,-1004.230,4.042,-0.199,-0.187
-99.866,-20.986,-1002.387,4.364,-0.226,0.009
-99.741,-23.490,-1003.184,4.494,-0.301,0.163
-98.973,-26.269,-1002.944,4.563,-0.348,0.215
-98.119,-28.922,-1003.752,4.931,-0.222,0.337
-96.992,-29.648,-1008.143,5.424,-0.137,0.517
-97.186,-30.721,-1009.059,5.871,-0.152,0.706
-96.317,-27.778,-1005.655,6.161,-0.121,0.833
-96.000,-27.949,-1004.498,6.072,-0.177,0.818
-95.905,-30.341,-1001.619,5.639,-0.203,0.749
-96.087,-31.473,-999.078,4.926,-0.125,0.692
-96.000,-37.000,-1003.000,4.340,0.000,0.630
-95.736,-40.601,-1004.265,4.027,0.131,0.567
-98.350,-43.437,-1002.836,3.829,0.143,0.519
-99.572,-43.658,-1003.610,3.642,0.144,0.378
-100.830,-43.076,-1003.837,3.296,0.115,0.171
-99.998,-44.073,-1006.071,2.971,0.044,0.010
-96.478,-41.048,-1007.816,2.626,-0.010,-0.195
-97.067,-37.851,-1004.831,1.972,0.005,-0.437
-94.459,-37.846,-1006.657,1.244,0.010,-0.617
-88.731,-40.521,-1009.222,0.518,-0.224,-0.797
-87.536,-41.667,-1007.740,-0.092,-0.359,-0.950
-88.974,-43.127,-1008.040,-0.274,-0.338,-1.011
-90.901,-43.798,-1004.638,-0.279,-0.345,-1.099
-92.155,-41.057,-1001.478,-0.281,-0.239,-1.232
-90.575,-38.675,-1002.260,-0.271,-0.123,-1.341
-88.000,-37.000,-1005.000,0.000,0.000,-1.330
-88.623,-36.270,-1006.991,0.392,0.012,-1.265
-91.319,-33.152,-1007.300,0.464,-0.058,-1.222
-92.844,-30.735,-1008.973,0.608,-0.131,-1.094
-92.988,-31.629,-1004.809,0.507,-0.287,-1.040
-92.863,-31.996,-1003.358,0.219,-0.238,-1.043
-91.638,-32.124,-1004.553,0.532,-0.227,-0.949
-91.036,-34.262,-1000.950,0.933,-0.277,-0.752
-91.953,-37.804,-1006.423,1.289,-0.210,-0.507
-92.030,-39.011,-1008.905,1.982,-0.271,-0.318
-92.340,-38.551,-1005.005,2.765,-0.237,-0.173
-94.853,-36.769,-1005.211,3.293,-0.225,-0.107
-98.437,-35.852,-1003.909,3.486,-0.319,-0.020
-98.743,-35.964,-1002.690,3.487,-0.368,0.108
-97.891,-36.141,-1001.880,3.424,-0.420,0.229
-96.000,-38.000,-1001.000,3.430,-0.280,0.350
-93.953,-40.461,-999.027,3.318,-0.091,0.470
-94.956,-44.740,-1002.606,3.269,0.035,0.596
-94.596,-47.641,-1008.264,3.723,0.103,0.713
-96.247,-48.311,-1006.061,4.235,-0.016,0.802
-96.448,-49.577,-1006.875,4.477,-0.209,0.741
-94.988,-51.467,-1009.227,4.565,-0.282,0.799
-95.994,-53.090,-1011.293,4.711,-0.285,0.834
-94.133,-54.758,-1014.069,5.138,-0.471,0.767
-93.965,-59.577,-1010.136,5.698,-0.673,0.843
-92.664,-65.344,-1006.427,6.046,-0.761,0.747
-93.134,-68.837,-1005.332,6.168,-0.737,0.667
-97.480,-70.988,-1006.671,6.646,-0.738,0.566
-92.520,-71.550,-1006.361,7.049,-1.120,0.487
-86.580,-63.131,-1006.540,6.808,-1.328,0.474
-86.000,-53.000,-1011.000,6.440,-1.260,0.280
-82.748,-49.761,-1007.495,5.156,-1.491,0.163
-78.598,-41.719,-1010.255,2.806,-1.755,-0.101
-77.795,-36.297,-1015.295,0.658,-2.009,-0.401
-77.969,-38.472,-1009.484,-1.401,-2.355,-0.607
-78.497,-41.282,-1014.101,-3.212,-2.596,-0.862
-81.856,-46.012,-1017.248,-4.462,-2.774,-1.001
-84.093,-48.119,-1010.690,-5.451,-3.033,-1.051
-85.795,-52.466,-1010.986,-5.931,-3.280,-1.049
-88.513,-57.799,-1006.160,-6.095,-3.307,-1.059
-90.334,-57.019,-998.253,-5.761,-3.211,-0.967
-91.748,-58.286,-994.305,-4.656,-2.995,-0.815
-92.173,-57.981,-988.120,-3.622,-2.597,-0.553
-93.357,-54.356,-989.124,-2.590,-2.066,-0.159
-92.771,-57.823,-990.740,-1.563,-1.540,0.192
-93.000,-59.000,-988.000,-1.260,-1.190,0.490
-96.527,-53.610,-991.190,-0.992,-0.832,0.673
-99.142,-51.488,-995.281,-0.451,-0.450,0.861
-101.705,-48.746,-997.140,-0.297,-0.139,0.966
-101.462,-45.883,-997.999,-0.469,0.148,1.008
-100.874,-46.237,-998.120,-0.893,0.341,1.063
-97.737,-45.856,-1002.161,-1.334,0.431,1.040
-92.873,-47.261,-1004.986,-1.480,0.416,0.972
-94.840,-50.862,-1003.877,-1.785,0.356,0.848
-93.147,-50.341,-1010.090,-2.148,0.242,0.781
-90.847,-50.776,-1012.090,-2.118,0.141,0.720
-98.588,-52.680,-999.977,-2.149,0.155,0.694
-101.532,-49.167,-1003.190,-2.071,0.102,0.697
-93.399,-49.652,-1011.799,-1.628,0.087,0.720
-94.155,-46.859,-1006.195,-1.641,0.232,0.865
-103.000,-40.000,-1009.000,-1.610,0.210,0.980
-101.793,-41.202,-1013.016,-1.266,-0.199,0.989
-98.133,-34.233,-1013.349,-1.470,-0.638,0.918
-98.502,-28.153,-1013.784,-1.474,-0.741,0.945
-99.545,-32.644,-1009.302,-1.239,-0.857,0.980
-100.028,-32.066,-1009.298,-1.249,-1.026,0.850
-100.059,-31.151,-1006.739,-0.858,-1.061,0.762
-99.916,-33.231,-1002.972,-0.473,-1.203,0.771
-98.114,-37.620,-1004.851,-0.239,-1.263,0.770
-97.272,-40.831,-1006.980,0.232,-1.246,0.815
-95.043,-41.504,-1012.668,0.777,-1.316,0.910
-93.414,-41.873,-1016.325,1.546,-1.365,0.868
-94.420,-37.784,-1014.588,1.993,-1.613,0.844
-93.494,-36.017,-1012.712,1.680,-1.883,0.807
-91.722,-37.228,-1014.273,1.276,-2.067,0.596
-90.000,-40.000,-1013.000,0.910,-2.380,0.420
-90.608,-42.790,-1010.996,0.647,-2.575,0.186
-93.860,-45.289,-1008.578,0.521,-2.684,-0.082
-97.238,-50.587,-999.549,0.054,-2.827,-0.255
-97.585,-49.714,-997.956,-0.418,-2.893,-0.484
-95.112,-49.591,-994.546,-0.483,-2.813,-0.698
-95.273,-49.279,-990.860,-0.505,-2.502,-0.779
-96.000,-44.781,-990.746,-0.476,-2.063,-0.765
-95.973,-44.084,-983.608,-0.104,-1.517,-0.641
-96.162,-40.924,-978.233,0.229,-0.866,-0.559
-94.750,-38.333,-981.060,0.545,-0.091,-0.544
-93.084,-36.824,-990.367,1.164,0.586,-0.343
-93.411,-33.249,-991.865,1.508,0.870,-0.131
-93.734,-30.246,-1001.269,1.797,1.146,-0.052
-90.440,-28.763,-1007.448,2.024,1.341,0.012
-90.000,-25.000,-1002.000,1.680,1.330,0.140
-91.400,-23.276,-1013.340,1.542,1.176,0.331
-86.408,-29.863,-1016.000,1.311,0.703,0.367
-84.707,-30.645,-1016.282,0.676,0.310,0.329
-86.864,-34.597,-1019.186,0.390,-0.121,0.408
-84.979,-44.166,-1016.378,0.379,-0.532,0.539
-84.050,-49.224,-1019.221,1.002,-0.552,0.663
-85.124,-56.506,-1012.228,2.433,-0.642,0.856
-87.751,-58.202,-1006.183,4.013,-0.705,0.979
-89.951,-54.801,-1002.936,5.409,-0.590,0.971
-89.729,-51.201,-1001.357,6.313,-0.461,1.039
-91.293,-49.061,-1004.669,6.660,-0.399,1.017
-94.570,-48.754,-1001.841,6.329,-0.423,0.975
-97.858,-47.963,-999.860,5.464,-0.306,0.963
-97.601,-50.603,-1001.314,4.730,-0.291,0.815
-94.000,-54.000,-1004.000,4.060,-0.350,0.700
-93.702,-55.042,-1006.730,3.445,-0.398,0.584
-96.149,-54.270,-1007.256,2.824,-0.544,0.409
-98.637,-53.761,-1006.476,2.065,-0.568,0.216
-98.074,-54.906,-1007.043,1.373,-0.792,0.071
-94.980,-58.479,-1004.480,0.477,-1.027,-0.051
-95.296,-59.966,-1004.735,-0.147,-0.965,-0.152
-94.827,-60.115,-1009.220,-0.041,-1.064,-0.139
-92.974,-61.151,-1009.133,0.511,-1.188,-0.202
-95.302,-55.729,-1006.813,0.962,-1.189,-0.230
-96.710,-49.879,-1002.798,0.858,-1.193,-0.142
-93.901,-48.389,-1001.223,0.657,-1.187,-0.179
-90.887,-47.570,-1000.469,0.487,-1.182,-0.214
-91.685,-46.952,-1003.426,0.540,-1.076,-0.215
-94.301,-48.291,-1005.793,0.617,-0.974,-0.198
-96.000,-49.000,-1002.000,0.420,-0.980,-0.070
-100.355,-49.597,-1001.871,0.354,-0.921,-0.118
-101.297,-51.999,-1002.367,0.364,-0.898,-0.178
-96.765,-51.363,-1005.529,0.663,-0.896,-0.030
-96.485,-53.904,-1006.688,1.003,-0.785,-0.008
-96.553,-54.237,-1008.353,1.329,-0.947,0.030
-94.782,-51.815,-1011.863,1.423,-1.240,0.064
-96.182,-51.894,-1005.560,0.866,-1.336,-0.004
-97.110,-49.926,-1007.483,0.628,-1.458,-0.062
-94.459,-55.274,-1009.443,0.558,-1.591,-0.189
-95.086,-59.858,-1002.893,0.254,-1.631,-0.222
-99.723,-61.208,-1005.693,0.263,-1.555,-0.185
-98.611,-66.242,-1007.812,0.394,-1.580,-0.088
-95.102,-66.569,-1007.209,0.447,-1.706,-0.108
-92.616,-66.100,-1010.475,0.668,-1.670,-0.303
-92.000,-66.000,-1011.000,0.700,-1.680,-0.350
-94.809,-63.323,-1010.934,0.447,-1.796,-0.465
-93.771,-62.701,-1008.992,0.268,-2.011,-0.562
-92.457,-63.569,-1002.052,-0.350,-2.266,-0.577
-93.631,-65.441,-1001.660,-0.950,-2.293,-0.696
-94.197,-71.564,-1002.396,-0.912,-2.211,-0.659
-95.262,-73.621,-1001.221,-0.493,-2.157,-0.544
-96.035,-68.551,-1006.422,0.348,-2.096,-0.565
-96.035,-62.549,-1007.250,0.902,-2.095,-0.628
-95.842,-54.055,-1004.814,0.603,-2.206,-0.631
-96.461,-46.591,-1006.435,-0.424,-2.342,-0.662
-93.863,-43.872,-1006.190,-1.649,-2.425,-0.775
-91.701,-44.415,-1003.274,-2.756,-2.459,-0.896
-95.450,-45.440,-1000.142,-3.906,-2.438,-1.011
-98.107,-49.999,-1000.295,-4.619,-2.365,-1.051
-97.000,-55.000,-1002.000,-4.830,-2.240,-1.050
-95.932,-54.986,-999.628,-4.617,-2.119,-1.051
-97.379,-54.978,-995.774,-4.236,-1.960,-1.050
-98.854,-49.204,-993.920,-4.246,-1.717,-1.025
-98.791,-44.515,-993.825,-4.200,-1.489,-0.912
-97.059,-44.949,-993.782,-3.813,-1.214,-0.799
-94.653,-42.438,-994.071,-3.327,-0.914,-0.662
-96.284,-41.974,-995.138,-3.070,-0.603,-0.475
-99.856,-39.290,-997.771,-2.893,-0.233,-0.291
-99.514,-37.747,-1000.392,-2.567,-0.068,-0.212
-97.834,-37.531,-1003.797,-2.496,-0.116,-0.182
-98.967,-33.440,-1008.449,-2.550,-0.175,-0.073
-100.790,-33.810,-1007.691,-2.660,-0.241,-0.105
-102.390,-35.287,-1005.687,-2.861,-0.294,-0.136
-101.694,-37.550,-1006.026,-3.031,-0.365,-0.151
-100.000,-41.000,-1006.000,-2.940,-0.490,-0.210
-100.069,-43.522,-1006.238,-2.395,-0.561,-0.092
-99.118,-45.502,-1003.448,-1.920,-0.511,0.028
-99.571,-42.677,-1004.289,-1.170,-0.474,0.203
-99.745,-42.700,-1005.728,-0.246,-0.524,0.306
-98.772,-41.626,-1003.450,0.220,-0.574,0.279
-98.977,-36.011,-1006.479,0.654,-0.542,0.376
-97.916,-34.924,-1001.349,0.761,-0.409,0.421
-97.937,-31.308,-997.852,0.575,-0.287,0.482
-98.729,-31.661,-996.894,0.262,-0.175,0.556
-100.789,-36.670,-989.060,-0.281,-0.003,0.558
-103.361,-37.073,-995.593,-0.535,0.188,0.563
-104.770,-41.709,-1000.566,-0.758,0.334,0.559
-107.936,-43.737,-1002.170,-1.065,0.342,0.553
-107.608,-41.943,-1006.155,-1.291,0.361,0.475
-105.000,-43.000,-1005.000,-1.400,0.420,0.420
-104.150,-42.180,-1007.747,-1.384,0.307,0.370
-103.143,-41.837,-1007.025,-1.630,0.164,0.197
-102.669,-42.419,-1009.618,-2.034,0.102,0.045
-100.798,-44.181,-1011.694,-2.494,0.017,-0.055
-99.994,-47.222,-1007.578,-2.807,-0.138,-0.206
-99.715,-50.862,-1009.769,-2.773,-0.317,-0.390
-97.911,-53.023,-1009.769,-2.567,-0.426,-0.493
-97.974,-51.263,-1006.174,-2.139,-0.487,-0.489
-97.362,-46.481,-1006.376,-1.643,-0.492,-0.584
-96.084,-40.063,-1007.812,-1.286,-0.520,-0.785
-96.070,-34.903,-1004.064,-1.410,-0.620,-0.888
-95.502,-29.984,-1003.169,-1.927,-0.605,-0.930
-93.203,-31.114,-1003.728,-2.362,-0.552,-1.014
-92.020,-32.714,-1004.558,-2.697,-0.561,-1.134
-93.000,-29.000,-1009.000,-2.660,-0.560,-1.120
-93.800,-30.570,-1007.313,-2.347,-0.614,-1.052
-95.568,-31.364,-1007.550,-2.164,-0.730,-1.019
-95.808,-31.139,-1007.046,-1.833,-0.860,-0.849
-94.097,-32.748,-1005.063,-1.105,-0.937,-0.705
-94.362,-33.311,-1004.242,-0.231,-0.868,-0.565
-94.894,-35.579,-1003.025,0.511,-0.746,-0.380
-92.811,-37.066,-1005.110,1.252,-0.699,-0.193
-91.931,-37.933,-1004.133,2.106,-0.701,0.053
-92.947,-38.750,-1003.336,2.858,-0.652,0.240
-93.221,-39.904,-998.842,3.492,-0.542,0.424
-96.168,-39.363,-992.369,3.971,-0.372,0.571
-98.768,-39.576,-992.152,4.024,-0.025,0.675
-99.093,-41.028,-991.382,3.601,0.401,0.685
-100.227,-38.741,-990.007,2.813,0.656,0.629
-101.000,-42.000,-994.000,2.240,0.770,0.700
-97.827,-46.135,-1001.419,2.113,0.886,0.705
-93.824,-43.514,-1001.374,2.056,1.067,0.733
-96.164,-43.185,-1003.952,2.372,1.191,0.837
-95.985,-41.381,-1013.692,2.725,1.149,0.809
-93.597,-38.312,-1013.797,2.544,0.955,0.751
-95.417,-39.222,-1015.189,2.123,0.620,0.673
-94.877,-37.819,-1021.195,1.407,0.330,0.470
-94.018,-37.776,-1016.707,0.618,0.028,0.225
-93.278,-41.339,-1009.395,-0.207,-0.302,0.091
-92.696,-43.839,-1010.605,-1.025,-0.444,-0.017
-93.507,-46.988,-1011.849,-1.269,-0.597,-0.134
-94.827,-48.092,-1007.757,-1.231,-0.770,-0.111
-97.848,-48.135,-1007.541,-0.884,-0.864,-0.072
-97.732,-47.701,-1008.835,-0.178,-0.913,-0.153
-97.000,-44.000,-1005.000,0.210,-0.910,-0.140
-99.639,-41.243,-1004.601,0.279,-0.911,-0.069
-100.400,-39.622,-1005.763,0.246,-0.906,-0.122
-98.778,-37.578,-1002.496,0.071,-0.920,-0.150
-97.022,-37.212,-1001.680,-0.277,-0.876,-0.117
-95.610,-40.592,-999.851,-0.754,-0.834,-0.034
-96.278,-43.337,-1000.850,-1.196,-0.839,-0.008
-95.803,-45.275,-1005.164,-1.170,-0.843,-0.073
-92.201,-48.942,-1004.970,-0.974,-0.908,-0.071
-92.326,-45.432,-1008.005,-1.261,-0.857,-0.073
-94.826,-41.658,-1009.699,-1.344,-0.859,-0.024
-94.487,-42.277,-1007.428,-1.165,-0.994,-0.011
-93.629,-39.709,-1005.810,-1.253,-1.103,-0.119
-92.742,-40.847,-1001.842,-1.358,-1.206,-0.134
-93.204,-41.884,-1003.798,-1.493,-1.094,-0.146
-94.000,-42.000,-1007.000,-1.610,-1.050,-0.140
-93.051,-44.078,-1004.195,-1.837,-1.125,-0.013
-93.235,-42.199,-1005.353,-2.102,-1.055,-0.028
-90.858,-43.352,-1005.247,-1.972,-1.093,-0.143
-87.959,-42.557,-1002.677,-1.870,-1.106,-0.101
-90.104,-37.292,-1003.079,-1.873,-1.016,-0.071
-90.767,-37.323,-1002.951,-1.712,-0.977,-0.059
-88.870,-36.832,-1005.277,-1.687,-0.980,0.002
-88.812,-35.026,-1006.231,-1.869,-0.918,-0.001
-93.639,-35.704,-1002.887,-2.142,-0.840,0.056
-96.515,-37.191,-1006.349,-1.992,-0.853,0.044
-91.605,-39.122,-1005.960,-1.332,-0.796,-0.039
-92.980,-37.544,-997.108,-1.079,-0.757,0.067
-97.780,-32.668,-1000.386,-0.988,-0.662,0.149
-95.429,-32.267,-1006.194,-0.761,-0.643,0.139
-94.000,-33.000,-1003.000,-1.120,-0.700,0.140
-96.553,-30.998,-1001.780,-1.533,-0.568,0.194
-98.218,-33.651,-1003.545,-1.362,-0.654,0.282
-97.028,-36.142,-1004.124,-1.049,-0.696,0.228
-97.887,-32.749,-1003.400,-0.711,-0.571,0.252
-98.926,-30.868,-1004.483,-0.226,-0.552,0.398
-96.282,-32.262,-1004.581,0.115,-0.472,0.417
-95.034,-30.756,-1003.071,0.141,-0.495,0.420
-95.990,-28.913,-1007.583,0.383,-0.496,0.359
-94.543,-31.604,-1009.024,0.895,-0.422,0.276
-93.830,-30.598,-1003.667,1.134,-0.430,0.334
-96.955,-27.477,-1003.759,1.314,-0.377,0.328
-95.807,-28.918,-1004.106,1.372,-0.352,0.242
-95.693,-28.479,-999.874,0.972,-0.319,0.205
-99.411,-28.339,-1001.553,0.682,-0.108,0.213
-100.000,-33.000,-1001.000,0.630,-0.070,0.210
-100.174,-35.932,-998.252,0.495,-0.147,0.149
-97.190,-35.898,-1007.477,0.655,-0.069,0.128
-95.113,-36.294,-1009.698,0.965,-0.150,0.183
-97.127,-34.994,-1005.033,0.915,-0.243,0.225
-95.955,-33.976,-1010.960,0.811,-0.342,0.186
-92.209,-35.242,-1015.043,0.637,-0.631,0.134
-91.046,-34.956,-1012.851,0.333,-0.851,0.140
-92.000,-35.838,-1012.066,0.276,-0.970,0.078
-90.567,-37.130,-1009.782,0.291,-1.141,0.002
-88.803,-36.492,-1007.060,0.261,-1.315,0.008
-90.361,-39.051,-1006.258,0.331,-1.297,-0.038
-92.900,-41.901,-1003.458,0.339,-1.238,-0.078
-92.906,-41.901,-1005.230,0.401,-1.159,-0.069
-94.355,-42.025,-1007.891,0.762,-1.128,-0.066
-95.000,-41.000,-1004.000,0.980,-1.190,-0.000
-94.667,-37.603,-1003.029,0.867,-1.069,0.007
-97.051,-34.366,-1000.456,0.657,-1.037,-0.013
-95.437,-34.698,-997.264,0.298,-1.007,0.021
-95.916,-37.426,-998.169,0.014,-0.771,-0.047
-96.563,-37.816,-995.941,-0.107,-0.546,-0.054
-93.312,-38.533,-999.500,-0.134,-0.286,0.012
-91.941,-42.220,-1005.259,-0.064,-0.058,0.078
-91.896,-41.312,-1007.735,0.112,0.003,0.204
-93.788,-38.040,-1011.494,0.680,-0.100,0.216
-93.785,-39.342,-1011.963,1.244,-0.311,0.212
-95.295,-40.472,-1011.713,1.350,-0.614,0.154
-95.157,-41.722,-1009.046,1.322,-0.872,0.026
-92.742,-41.414,-1007.035,1.340,-1.021,0.111
-95.496,-38.757,-1010.540,1.417,-1.133,0.125
-96.000,-39.000,-1011.000,1.540,-1.190,-0.000
-95.769,-36.666,-1009.257,1.502,-1.306,-0.002
-97.129,-33.317,-1006.912,1.248,-1.445,-0.038
-95.392,-32.615,-1004.043,1.147,-1.487,-0.155
-93.117,-30.976,-1000.414,0.973,-1.420,-0.262
-95.126,-29.624,-995.253,0.384,-1.261,-0.263
-95.552,-30.606,-996.783,-0.085,-1.082,-0.203
-92.929,-35.366,-997.880,-0.449,-0.974,-0.209
-94.787,-37.062,-996.861,-0.697,-0.856,-0.085
-96.050,-37.924,-1000.310,-0.562,-0.610,0.063
-96.365,-42.693,-1001.608,-0.125,-0.484,0.060
-97.852,-41.015,-1002.848,0.605,-0.504,0.113
-97.664,-38.174,-1003.854,1.016,-0.462,0.138
-96.805,-35.791,-1002.595,0.789,-0.402,0.162
-97.085,-31.747,-1003.271,0.270,-0.342,0.300
-96.000,-35.000,-1006.000,-0.070,-0.350,0.350
-92.333,-38.021,-1008.842,-0.186,-0.472,0.348
-92.360,-37.210,-1008.257,-0.340,-0.548,0.354
-93.953,-36.766,-1008.999,-0.296,-0.618,0.347
-93.607,-38.097,-1012.054,-0.359,-0.829,0.337
-92.698,-40.693,-1009.120,-0.707,-1.061,0.228
-93.249,-39.639,-1006.832,-1.047,-1.222,0.123
-92.831,-41.319,-1005.791,-1.192,-1.338,0.065
-90.947,-44.060,-1003.015,-1.190,-1.401,0.003
-94.128,-41.459,-1006.000,-1.070,-1.302,-0.002
-96.015,-41.040,-1007.288,-0.575,-1.146,-0.000
-97.009,-39.064,-1003.343,-0.353,-1.092,0.005
-100.109,-33.816,-1003.346,-0.490,-1.019,-0.021
-97.704,-33.323,-1003.743,-0.740,-1.088,-0.085
-94.883,-33.980,-1003.011,-1.272,-1.104,-0.060
-96.000,-34.000,-1004.000,-1.610,-0.980,0.000
-96.166,-35.705,-1004.874,-1.682,-1.097,0.003
-95.560,-36.970,-1005.679,-1.602,-1.143,-0.007
-97.959,-36.826,-1006.920,-1.303,-1.094,0.036
-98.752,-37.633,-1007.952,-0.688,-1.164,0.108
-95.978,-37.409,-1003.704,-0.262,-1.190,0.157
-96.411,-34.538,-1002.643,-0.394,-1.196,0.234
-96.867,-36.244,-1008.330,-0.328,-1.267,0.359
-93.288,-36.289,-1007.370,0.045,-1.330,0.419
-91.665,-32.938,-1003.311,0.259,-1.283,0.418
-93.643,-35.104,-1002.837,0.353,-1.168,0.451
-93.469,-36.454,-1002.304,0.584,-1.062,0.595
-93.502,-37.901,-1001.939,0.962,-1.059,0.761
-97.228,-36.973,-1005.222,1.509,-1.029,0.759
-99.050,-32.579,-1006.828,1.820,-0.981,0.778
-99.000,-33.000,-1005.000,1.400,-1.050,0.770
-99.068,-33.049,-1009.205,0.837,-1.108,0.700
-98.752,-34.168,-1010.395,0.423,-1.222,0.716
-100.214,-36.363,-1005.723,-0.086,-1.310,0.612
-101.276,-38.391,-1003.890,-0.661,-1.366,0.544
-100.627,-42.494,-1000.698,-1.137,-1.386,0.565
-98.099,-44.212,-1003.046,-1.360,-1.214,0.564
-93.787,-45.015,-1004.842,-1.400,-1.120,0.639
-94.748,-43.228,-1001.196,-1.455,-1.125,0.762
-96.348,-41.755,-1000.659,-1.757,-0.965,0.788
-94.732,-42.979,-1002.772,-1.809,-0.749,0.706
-96.525,-42.535,-1003.652,-1.479,-0.656,0.714
-98.946,-41.151,-997.978,-1.593,-0.613,0.662
-100.082,-38.152,-999.636,-1.893,-0.662,0.637
-97.390,-38.184,-1002.843,-2.159,-0.780,0.614
-96.000,-37.000,-1001.000,-2.660,-0.700,0.490
-98.091,-34.035,-1007.045,-2.870,-0.561,0.495
-95.613,-33.969,-1009.932,-2.928,-0.655,0.352
-95.711,-29.041,-1010.607,-3.285,-0.731,0.169
-97.906,-26.511,-1009.367,-3.787,-0.682,0.116
-97.693,-26.938,-1006.001,-4.480,-0.874,0.031
-95.167,-27.529,-1005.680,-4.962,-1.072,-0.106
-93.052,-31.198,-1002.887,-5.046,-1.045,-0.211
-95.848,-31.084,-1005.633,-5.120,-0.986,-0.146
-94.750,-31.027,-1007.514,-4.569,-0.914,-0.132
-93.225,-28.525,-1004.998,-3.619,-0.951,-0.144
-95.133,-21.826,-1005.282,-3.039,-0.992,-0.164
-94.326,-16.938,-1006.121,-2.683,-0.984,-0.235
-94.249,-12.960,-1005.325,-2.932,-1.095,-0.183
-94.992,-12.104,-1002.799,-3.141,-1.195,-0.142
-94.000,-14.000,-1004.000,-2.940,-1.120,-0.210
-95.330,-17.498,-1002.623,-2.831,-0.995,-0.222
-100.636,-19.627,-999.759,-2.506,-0.887,-0.106
-102.986,-21.585,-1001.523,-2.081,-0.736,-0.020
-99.531,-23.610,-1004.452,-1.446,-0.695,0.026
-94.083,-20.327,-1008.122,-0.869,-0.696,0.108
-93.454,-17.658,-1008.765,-0.450,-0.711,0.240
-96.092,-15.799,-1007.976,0.027,-0.774,0.276
-95.113,-14.002,-1006.298,0.202,-0.834,0.212
-95.433,-14.805,-1002.337,0.331,-0.903,0.216
-97.680,-15.912,-1002.892,0.315,-0.940,0.157
-97.908,-19.376,-1004.538,0.289,-1.053,0.164
-98.532,-21.702,-1005.455,0.399,-0.974,0.228
-100.577,-24.075,-1007.126,0.570,-0.814,0.201
-100.931,-27.172,-1004.421,0.973,-0.843,0.214
-101.000,-25.000,-1003.000,1.260,-0.770,0.210
-101.931,-23.090,-1004.121,1.402,-0.758,0.152
-102.565,-21.805,-1001.780,1.189,-0.833,0.081
-103.325,-19.702,-1000.348,0.743,-0.818,0.069
-98.933,-21.340,-1001.338,0.308,-0.677,0.064
-95.541,-23.609,-1002.422,-0.306,-0.511,0.092
-97.403,-24.080,-1005.836,-0.556,-0.493,0.141
-96.881,-25.099,-1008.065,-0.249,-0.490,0.062
-95.998,-25.141,-1008.051,0.057,-0.550,0.002
-96.655,-22.484,-1006.531,0.173,-0.678,-0.006
-98.071,-21.714,-1004.683,0.401,-0.753,0.047
-96.520,-22.135,-1005.530,0.554,-0.782,0.076
-94.625,-22.165,-1005.682,0.592,-0.745,0.097
-96.800,-23.245,-1006.312,0.740,-0.685,0.262
-98.098,-22.984,-1006.954,0.776,-0.714,0.262
-99.000,-25.000,-1006.000,0.910,-0.840,0.140
-99.860,-26.268,-1005.907,0.814,-0.849,0.139
-101.397,-24.633,-1006.751,0.720,-0.824,0.134
-102.461,-26.891,-1006.282,1.193,-0.891,0.184
-101.299,-24.704,-1002.746,1.081,-0.914,0.199
-100.735,-19.798,-1002.312,0.652,-0.909,0.104
-98.258,-21.721,-1004.124,0.518,-0.912,0.062
-97.089,-23.020,-1002.853,0.186,-0.907,-0.006
-98.956,-24.732,-1001.108,0.130,-0.785,-0.006
-97.570,-27.771,-1000.710,0.253,-0.597,0.067
-96.341,-27.541,-1001.445,0.476,-0.429,0.061
-98.921,-25.961,-999.032,0.838,-0.222,0.109
-102.618,-24.406,-1000.432,0.928,-0.098,0.149
-103.933,-23.655,-1004.878,1.000,-0.073,0.130
-101.561,-20.359,-1006.359,0.870,-0.157,0.055
-100.000,-18.000,-1010.000,0.630,-0.210,0.000
-100.029,-18.057,-1008.524,0.354,-0.254,0.007
-99.417,-18.771,-1007.827,-0.170,-0.487,-0.061
-97.697,-23.595,-1011.273,-0.316,-0.688,-0.034
-96.960,-25.054,-1011.856,-0.023,-0.875,0.011
-98.554,-25.771,-1011.190,0.329,-1.027,0.007
-97.461,-28.363,-1007.057,0.418,-1.154,0.092
-95.984,-29.135,-1009.562,0.595,-1.264,0.141
-96.035,-31.904,-1015.023,1.277,-1.320,0.140
-95.799,-29.339,-1011.519,1.763,-1.506,0.138
-96.538,-25.084,-1012.517,1.972,-1.584,0.149
-94.012,-25.378,-1013.135,2.013,-1.734,0.081
-93.656,-24.298,-1007.007,1.534,-1.987,-0.057
-96.525,-24.315,-1006.267,0.866,-2.036,-0.051
-94.505,-26.402,-1004.165,0.426,-2.114,0.000
-93.000,-30.000,-998.000,-0.070,-2.100,-0.070
-93.098,-33.635,-998.563,-0.246,-1.975,-0.135
-92.670,-35.041,-999.032,0.043,-1.872,-0.185
-94.697,-33.724,-996.016,0.004,-1.658,-0.240
-96.722,-29.773,-999.382,0.108,-1.424,-0.137
-94.865,-27.354,-1002.015,0.162,-1.285,-0.060
-92.915,-25.394,-999.074,-0.235,-1.155,-0.066
-95.251,-22.904,-995.817,-0.592,-0.964,0.007
-97.017,-24.656,-994.947,-1.149,-0.781,0.068
-96.122,-29.328,-996.469,-1.374,-0.661,0.071
-96.418,-30.339,-998.856,-1.070,-0.464,0.098
-98.025,-29.899,-1000.437,-0.580,-0.174,0.224
-99.840,-29.212,-999.150,0.109,-0.013,0.308
-101.290,-24.392,-1000.836,0.626,0.113,0.375
-100.816,-21.811,-1001.864,1.040,0.223,0.420
-100.000,-19.000,-1002.000,1.260,0.350,0.420
-100.844,-16.663,-1005.816,1.204,0.548,0.540
-101.226,-20.357,-1003.837,1.065,0.481,0.623
-99.943,-20.713,-1004.059,0.741,0.316,0.637
-98.007,-23.323,-1009.416,0.634,0.234,0.602
-98.861,-28.316,-1009.196,0.846,0.066,0.539
-102.933,-27.714,-1009.372,0.815,-0.102,0.466
-105.050,-29.270,-1012.197,0.941,-0.220,0.343
-105.025,-31.983,-1013.055,1.500,-0.403,0.346
-104.320,-29.275,-1012.677,1.808,-0.602,0.362
-102.624,-24.434,-1014.132,1.763,-0.708,0.300
-101.478,-25.062,-1011.509,1.454,-0.917,0.251
-103.135,-25.785,-1010.137,0.975,-1.138,0.158
-105.308,-25.283,-1011.551,0.725,-1.330,0.038
-103.628,-28.438,-1003.609,0.604,-1.566,-0.000
-103.000,-29.000,-1001.000,0.420,-1.540,0.000
-103.259,-30.617,-1002.374,0.517,-1.357,-0.005
-101.183,-30.927,-999.773,0.785,-1.178,0.051
-101.953,-28.555,-1001.530,0.954,-1.015,0.107
-103.940,-29.803,-1000.946,1.152,-0.957,0.184
-105.780,-27.652,-1001.847,1.179,-0.862,0.206
-107.040,-26.085,-1003.893,1.205,-0.755,0.229
-105.897,-26.994,-1000.762,1.094,-0.774,0.357
-105.060,-26.046,-999.935,0.597,-0.776,0.353
-103.553,-26.581,-1000.844,0.298,-0.658,0.392
-100.991,-28.924,-1000.918,0.247,-0.572,0.484
-98.341,-31.070,-1001.479,0.118,-0.534,0.507
-96.010,-30.669,-1006.422,0.110,-0.445,0.610
-94.683,-31.352,-1007.040,0.333,-0.438,0.622
-93.845,-30.702,-1004.090,0.158,-0.586,0.639
-92.000,-30.000,-1009.000,0.000,-0.700,0.630
-90.086,-30.409,-1007.746,-0.070,-0.760,0.498
-90.113,-27.042,-1006.370,-0.687,-0.822,0.537
-88.900,-29.892,-1011.490,-1.005,-0.907,0.543
-87.474,-32.298,-1010.327,-1.380,-1.067,0.438
-88.695,-30.999,-1008.527,-1.731,-1.124,0.413
-90.133,-35.015,-1007.425,-1.348,-1.123,0.319
-88.830,-35.902,-1003.702,-0.877,-1.116,0.205
-87.899,-35.020,-1001.050,-0.450,-0.993,0.206
-90.434,-33.714,-1002.939,-0.133,-0.810,0.265
-91.814,-30.682,-1006.659,0.170,-0.693,0.328
-92.978,-29.164,-1005.419,0.351,-0.746,0.368
-97.217,-26.656,-1002.922,0.150,-0.767,0.305
-100.475,-24.664,-1003.296,-0.150,-0.788,0.168
-98.526,-25.153,-1003.881,-0.300,-0.841,0.055
-98.000,-25.000,-1001.000,-0.630,-0.770,0.000
-100.892,-23.039,-1001.321,-1.151,-0.703,0.058
-99.567,-25.006,-1005.534,-1.132,-0.735,0.088
-99.185,-26.340,-1005.737,-0.861,-0.864,0.018
-100.587,-23.181,-1005.664,-0.440,-0.929,-0.001
-101.529,-21.455,-1002.059,-0.024,-0.878,-0.005
-103.165,-19.707,-1001.543,0.101,-0.732,0.015
-101.874,-21.220,-1004.012,0.373,-0.626,0.152
-101.905,-22.115,-1002.960,0.552,-0.567,0.274
-102.265,-21.466,-1005.422,0.713,-0.491,0.334
-101.111,-24.459,-1006.065,0.935,-0.501,0.406
-100.953,-24.608,-1005.867,1.021,-0.463,0.403
-101.394,-23.457,-1005.264,1.075,-0.556,0.291
-103.729,-21.328,-1005.307,1.141,-0.631,0.184
-103.762,-22.551,-1005.785,1.092,-0.644,0.133
-102.000,-25.000,-1004.000,0.770,-0.770,0.070
-100.353,-24.630,-1008.242,0.622,-0.712,0.004
-98.746,-28.880,-1009.346,0.695,-0.730,-0.001
-100.466,-30.739,-1004.340,0.666,-0.835,-0.003
-100.340,-32.008,-1001.931,0.602,-0.818,0.022
-98.579,-32.962,-1001.990,0.689,-0.734,0.101
-99.113,-33.440,-1001.774,0.872,-0.707,0.144
-97.817,-34.914,-1003.380,0.911,-0.773,0.139
-96.023,-31.246,-1008.879,0.918,-0.771,0.139
-97.333,-30.737,-1005.239,0.563,-0.772,0.145
-99.850,-30.964,-1004.058,0.016,-0.757,0.099
-98.971,-32.421,-1005.898,-0.098,-0.823,0.026
-97.961,-33.998,-998.068,-0.219,-0.788,-0.010
-99.221,-31.453,-999.619,-0.248,-0.561,0.014
-97.689,-33.398,-1001.690,-0.048,-0.395,0.081
-98.000,-32.000,-1000.000,-0.070,-0.210,0.140
-99.962,-28.186,-1003.692,-0.136,-0.137,0.147
-99.308,-28.048,-1003.273,-0.148,-0.185,0.082
-98.361,-27.168,-1003.759,-0.091,-0.268,0.072
-97.985,-24.036,-1005.351,-0.107,-0.248,0.037
-99.777,-21.604,-1006.840,-0.256,-0.227,0.016
-99.617,-23.483,-1012.376,-0.168,-0.387,0.173
-97.943,-22.829,-1017.284,0.011,-0.502,0.128
-97.990,-21.918,-1019.039,0.133,-0.869,0.064
-98.005,-23.537,-1016.841,0.151,-1.335,0.148
-97.526,-26.799,-1012.580,0.151,-1.543,0.041
-96.452,-32.050,-1008.287,0.353,-1.709,-0.010
-97.638,-33.028,-1005.952,0.636,-1.750,-0.003
-96.067,-34.803,-1004.619,1.168,-1.758,0.015
-95.320,-34.528,-1005.204,1.559,-1.739,0.075
-98.000,-31.000,-1005.000,1.400,-1.680,0.070
-96.204,-29.548,-1004.575,1.221,-1.798,-0.035
-97.238,-23.833,-1007.357,0.840,-1.886,-0.295
-98.276,-20.308,-1002.926,0.066,-1.894,-0.373
-98.772,-22.827,-997.371,-0.873,-1.850,-0.342
-101.774,-28.587,-995.054,-1.765,-1.675,-0.340
-98.974,-35.292,-995.434,-1.907,-1.499,-0.262
-97.060,-38.073,-996.953,-1.350,-1.233,-0.205
-98.882,-37.211,-995.042,-0.742,-0.864,-0.142
-99.875,-33.731,-997.097,-0.280,-0.654,-0.144
-99.716,-31.115,-1000.824,-0.091,-0.548,-0.059
-97.465,-27.413,-1006.737,-0.052,-0.394,0.058
-97.894,-23.440,-1008.118,-0.143,-0.358,0.086
-102.316,-21.581,-1004.087,-0.455,-0.448,0.158
-102.622,-22.434,-1005.297,-0.738,-0.493,0.132
-100.000,-26.000,-1005.000,-0.980,-0.490,0.140
-101.669,-26.819,-1004.879,-1.064,-0.485,0.146
-101.785,-29.826,-1004.488,-0.939,-0.544,0.129
-99.425,-31.709,-1003.778,-0.835,-0.564,0.153
-98.595,-30.570,-1005.902,-0.412,-0.581,0.142
-97.959,-30.700,-1005.198,0.224,-0.640,0.264
-100.961,-25.529,-1003.630,0.530,-0.520,0.258
-102.945,-23.094,-1003.071,0.637,-0.418,0.214
-101.073,-24.970,-1005.782,0.639,-0.421,0.281
-101.708,-24.190,-1006.363,0.454,-0.413,0.216
-102.113,-23.896,-1005.462,0.454,-0.466,0.258
-102.340,-24.598,-1005.262,0.770,-0.526,0.255
-103.043,-27.427,-1000.607,0.978,-0.579,0.208
-101.467,-27.345,-1002.493,1.097,-0.537,0.315
-100.984,-24.848,-1006.020,1.387,-0.486,0.348
-100.000,-26.000,-1003.000,1.750,-0.420,0.350
-100.581,-25.299,-1001.887,1.776,-0.291,0.407
-102.422,-25.037,-1003.206,1.659,-0.274,0.483
-100.230,-28.501,-1005.922,1.756,-0.305,0.461
-101.000,-27.863,-1006.698,1.694,-0.428,0.377
-101.756,-25.716,-1005.401,1.705,-0.493,0.344
-101.246,-28.950,-1004.677,1.503,-0.507,0.351
-104.173,-29.844,-1002.920,0.870,-0.638,0.267
-103.234,-27.952,-1003.847,0.696,-0.634,0.080
-101.089,-30.502,-1004.442,0.672,-0.623,0.057
-100.978,-30.212,-1001.587,0.472,-0.607,0.084
-101.373,-28.058,-1001.094,0.391,-0.472,0.053
-101.936,-30.292,-1004.562,0.480,-0.404,0.102
-98.754,-30.635,-1005.731,0.557,-0.432,0.144
-97.071,-28.805,-1003.802,0.391,-0.405,0.143
-98.000,-29.000,-1005.000,0.350,-0.280,0.210
-96.284,-29.962,-1007.779,0.421,-0.329,0.219
-95.700,-29.880,-1007.104,0.374,-0.419,0.189
-96.662,-31.088,-1003.259,0.274,-0.437,0.273
-97.250,-32.221,-1003.966,0.165,-0.572,0.245
-96.201,-29.937,-1006.143,0.272,-0.638,0.210
-93.628,-29.108,-1004.668,0.222,-0.629,0.198
-95.217,-30.059,-1007.430,-0.162,-0.631,0.138
-95.268,-30.915,-1011.938,-0.096,-0.690,0.142
-91.947,-31.317,-1009.139,0.188,-0.823,0.082
-94.675,-29.365,-1005.681,0.239,-0.842,0.068
-95.833,-29.745,-1006.360,0.359,-0.870,0.041
-92.679,-31.536,-1004.516,0.278,-0.914,-0.017
-93.823,-30.622,-1002.714,0.243,-0.791,0.015
-96.205,-31.315,-1003.065,0.539,-0.694,0.083
-96.000,-33.000,-1003.000,0.770,-0.700,0.140
-95.763,-31.361,-1001.379,0.946,-0.648,0.080
-98.311,-30.016,-999.743,1.222,-0.517,0.061
-98.908,-29.367,-1000.853,1.543,-0.482,0.074
-97.337,-25.861,-999.916,1.600,-0.457,0.086
-98.657,-23.518,-1000.949,1.512,-0.277,0.176
-98.898,-24.431,-1004.258,1.448,-0.210,0.210
-100.244,-27.235,-1001.758,1.238,-0.207,0.212
-102.978,-29.815,-1001.769,0.989,-0.145,0.274
-100.802,-33.072,-1004.686,1.105,-0.039,0.341
-98.657,-35.591,-1004.878,1.459,0.118,0.384
-100.189,-33.303,-1005.381,1.671,0.118,0.501
-100.960,-33.759,-1008.378,2.126,0.022,0.578
-99.602,-33.187,-1009.868,2.277,-0.115,0.544
-100.269,-31.111,-1007.687,1.996,-0.223,0.478
-101.000,-35.000,-1008.000,1.890,-0.350,0.420
-98.426,-35.296,-1010.624,1.701,-0.538,0.423
-96.854,-34.663,-1012.134,1.646,-0.691,0.368
-98.072,-34.859,-1010.277,1.332,-0.996,0.344
-99.691,-33.765,-1007.272,0.778,-1.186,0.333
-100.283,-38.174,-1004.824,0.586,-1.187,0.248
-102.560,-41.135,-1002.668,0.465,-1.189,0.199
-101.720,-39.870,-1004.262,0.501,-1.192,0.136
-98.937,-37.312,-1006.964,0.628,-1.194,0.137
-102.301,-32.787,-1005.516,0.496,-1.123,0.147
-102.381,-30.976,-1004.000,0.096,-1.167,0.131
-99.298,-30.936,-1002.437,-0.305,-1.174,0.149
-99.060,-31.695,-997.532,-0.649,-1.070,0.141
-98.882,-35.113,-997.948,-0.871,-0.925,0.264
-97.664,-37.169,-1002.574,-0.632,-0.751,0.446
-95.000,-38.000,-1004.000,-0.070,-0.700,0.630
-95.665,-36.568,-1004.682,0.433,-0.639,0.821
-96.515,-33.222,-1007.323,0.682,-0.621,0.898
-94.848,-33.759,-1008.329,0.648,-0.658,0.924
-95.779,-33.379,-1010.800,0.448,-0.803,0.873
-95.258,-33.702,-1014.125,0.293,-1.093,0.836
-92.548,-36.311,-1006.808,-0.039,-1.290,0.834
-93.142,-36.077,-1004.243,-0.600,-1.329,0.763
-94.058,-41.408,-1006.218,-0.962,-1.326,0.641
-92.420,-46.091,-1001.618,-1.112,-1.399,0.510
-91.096,-44.968,-1000.981,-1.056,-1.287,0.446
-91.283,-45.124,-1004.677,-0.813,-1.071,0.370
-92.739,-42.123,-1011.418,-0.483,-1.076,0.358
-94.670,-37.475,-1008.022,-0.489,-1.131,0.315
-97.411,-30.970,-1009.034,-1.001,-1.214,0.107
-99.000,-28.000,-1011.000,-1.610,-1.470,-0.070
-100.648,-28.288,-1002.271,-2.398,-1.671,-0.311
-101.614,-27.070,-1005.026,-2.994,-1.681,-0.482
-99.235,-31.657,-1000.028,-3.216,-1.666,-0.485
-99.606,-32.563,-999.964,-3.277,-1.487,-0.498
-99.742,-32.541,-1003.294,-2.731,-1.253,-0.483
-100.554,-32.189,-995.479,-2.037,-1.072,-0.492
-103.060,-25.532,-996.279,-1.488,-0.822,-0.406
-101.234,-22.192,-998.846,-0.629,-0.642,-0.160
-99.086,-18.165,-999.747,0.022,-0.464,0.043
-99.986,-14.366,-994.054,-0.017,-0.283,0.121
-101.919,-14.701,-994.903,-0.328,-0.064,0.181
-99.281,-20.142,-998.183,-0.442,0.153,0.203
-98.432,-26.532,-997.407,-0.394,0.231,0.115
-101.407,-29.368,-1002.628,-0.150,0.378,0.155
-104.000,-31.000,-1002.000,0.420,0.490,0.210
-106.167,-29.328,-1001.944,0.989,0.487,0.257
-103.458,-27.624,-1000.430,1.233,0.538,0.408
-104.124,-25.286,-1001.930,1.350,0.603,0.376
-104.215,-26.393,-1007.012,1.648,0.666,0.370
-101.138,-30.020,-1008.754,1.893,0.704,0.434
-100.794,-29.749,-1014.193,2.083,0.585,0.416
-97.758,-28.954,-1015.990,2.323,0.329,0.419
-96.943,-28.926,-1015.178,2.324,0.087,0.358
-97.089,-30.027,-1010.967,1.999,-0.150,0.241
-97.147,-29.075,-1009.558,1.554,-0.406,0.108
-94.910,-30.315,-1012.093,1.484,-0.587,0.032
-90.704,-32.779,-1008.151,1.514,-0.638,-0.035
-94.849,-33.238,-1002.768,1.249,-0.633,-0.071
-96.709,-35.344,-1004.891,1.302,-0.721,-0.077
-94.000,-36.000,-1010.000,1.680,-0.840,-0.140
-95.578,-33.564,-1006.005,1.996,-0.844,-0.083
-97.704,-30.376,-1001.377,2.082,-0.838,-0.054
-97.817,-30.034,-1000.689,1.819,-0.816,-0.090
-95.869,-29.679,-1000.798,1.571,-0.703,-0.028
-97.159,-30.854,-998.675,1.371,-0.585,-0.009
-100.310,-33.529,-998.661,0.947,-0.465,-0.087
-97.676,-36.278,-1004.407,0.781,-0.419,-0.061
-95.038,-38.995,-1006.934,1.216,-0.360,0.065
-95.615,-36.772,-1007.338,1.691,-0.227,0.072
-97.987,-33.920,-1003.601,1.822,-0.204,0.107
-99.009,-31.812,-1001.177,1.815,-0.210,0.163
-94.851,-33.191,-1004.132,1.817,-0.216,0.106
-94.720,-35.325,-1003.283,1.689,-0.195,0.064
-97.105,-36.319,-1003.372,1.433,-0.135,0.072
-96.000,-39.000,-1007.000,1.330,-0.140,0.070
-95.170,-39.892,-1007.389,1.451,-0.141,0.011
-93.954,-39.881,-1003.903,1.464,-0.139,-0.051
-95.277,-35.949,-1002.496,1.185,-0.138,-0.117
-95.290,-36.090,-1006.267,0.942,-0.158,-0.145
-91.818,-38.044,-1009.537,0.747,-0.256,-0.149
-92.527,-35.534,-1008.611,0.421,-0.371,-0.231
-94.002,-36.104,-1009.153,0.358,-0.424,-0.282
-93.063,-36.928,-1009.246,0.426,-0.546,-0.343
-93.505,-38.060,-1005.880,0.246,-0.690,-0.419
-95.695,-36.405,-1009.665,0.245,-0.721,-0.377
-95.419,-37.670,-1012.297,0.559,-0.918,-0.334
-95.630,-40.251,-1007.350,0.758,-1.112,-0.368
-98.721,-35.497,-1006.112,0.773,-1.114,-0.318
-96.219,-36.684,-1007.071,0.859,-1.123,-0.197
-93.000,-39.000,-1006.000,0.910,-1.120,-0.210
-96.417,-36.239,-1001.671,0.790,-1.064,-0.220
-97.693,-36.986,-999.501,0.704,-0.983,-0.148
-95.292,-40.226,-1001.678,0.723,-1.023,-0.146
-95.613,-40.845,-1003.875,0.859,-1.036,-0.110
-97.835,-39.691,-1004.968,1.031,-0.957,-0.059
-99.110,-40.113,-1003.492,0.916,-0.994,-0.075
-97.802,-40.014,-1003.093,0.534,-0.972,-0.067
-95.123,-41.807,-1004.066,0.416,-0.848,-0.006
-95.441,-42.468,-1001.024,0.398,-0.782,0.063
-97.748,-40.744,-997.981,0.137,-0.692,0.072
-97.183,-41.942,-1002.441,0.055,-0.534,0.071
-95.373,-41.269,-1006.998,0.056,-0.483,0.067
-96.761,-39.534,-1005.326,-0.026,-0.495,0.076
-99.268,-37.697,-1006.323,-0.173,-0.582,0.059
-99.000,-37.000,-1006.000,-0.420,-0.700,-0.070
-96.310,-36.359,-1004.151,-0.541,-0.588,-0.140
-96.229,-35.114,-1001.021,-0.749,-0.446,-0.135
-98.340,-39.445,-996.191,-1.001,-0.349,-0.151
-96.437,-41.369,-1000.603,-1.053,-0.187,-0.108
-95.033,-43.222,-994.689,-0.880,0.014,-0.054
-97.630,-44.615,-991.252,-0.443,0.271,0.035
-97.864,-39.638,-1002.510,0.115,0.506,0.304
-96.013,-37.172,-997.743,0.607,0.687,0.548
-98.157,-33.047,-994.685,0.663,0.864,0.672
-100.023,-31.530,-999.899,0.584,1.063,0.769
-96.086,-35.377,-1003.450,0.760,1.153,0.732
-93.144,-35.681,-1014.035,1.085,1.065,0.694
-93.104,-34.625,-1017.673,1.499,0.947,0.699
-94.253,-32.751,-1014.675,1.328,0.810,0.703
-95.000,-34.000,-1013.000,0.840,0.490,0.700
-93.223,-38.456,-1010.072,0.542,0.113,0.525
-92.837,-41.205,-1012.612,0.236,-0.094,0.362
-93.101,-44.005,-1014.494,0.294,-0.257,0.357
-92.698,-45.142,-1010.692,0.315,-0.473,0.303
-91.381,-42.852,-1012.062,0.179,-0.732,0.149
-91.272,-38.944,-1012.203,0.212,-0.955,0.057
-93.096,-33.613,-1007.866,0.051,-1.135,-0.008
-93.877,-31.007,-1009.824,-0.190,-1.318,-0.132
-96.507,-31.184,-1008.805,-0.573,-1.446,-0.200
-96.694,-30.409,-1007.075,-1.141,-1.530,-0.253
-95.898,-33.497,-1008.200,-1.541,-1.535,-0.322
-97.500,-37.441,-1005.564,-1.575,-1.565,-0.364
-94.897,-39.946,-1006.374,-1.298,-1.620,-0.331
-94.276,-43.328,-1003.005,-0.913,-1.605,-0.276
-96.000,-42.000,-999.000,-0.420,-1.540,-0.280
-94.310,-39.240,-1001.049,-0.087,-1.416,-0.223
-93.097,-37.657,-998.027,-0.128,-1.347,-0.153
-92.879,-35.588,-996.759,-0.509,-1.260,-0.104
-93.365,-34.672,-998.814,-1.070,-1.111,-0.031
-94.374,-35.769,-1000.714,-1.442,-1.026,0.010
-95.048,-38.432,-1001.657,-1.654,-0.956,-0.012
-93.845,-37.919,-997.740,-1.750,-0.749,-0.072
-92.914,-39.660,-997.842,-1.685,-0.502,-0.011
-94.819,-43.000,-998.231,-1.636,-0.431,0.124
-93.504,-42.037,-1000.045,-1.383,-0.332,0.144
-89.859,-42.260,-1011.175,-0.857,-0.247,0.161
-88.958,-38.153,-1014.340,-0.520,-0.320,0.254
-90.789,-31.346,-1009.981,-0.519,-0.358,0.272
-93.260,-30.105,-1009.947,-0.746,-0.439,0.195
-94.000,-31.000,-1006.000,-1.120,-0.560,0.070
-95.724,-30.891,-1003.824,-1.502,-0.626,-0.059
-96.244,-34.027,-1003.316,-1.582,-0.596,-0.077
-96.200,-39.592,-999.935,-1.378,-0.467,-0.068
-97.318,-38.950,-1006.309,-0.817,-0.383,-0.053
-94.879,-37.707,-1009.630,0.167,-0.335,0.035
-95.708,-33.291,-1004.732,0.682,-0.366,0.072
-98.000,-25.602,-1000.798,0.695,-0.420,0.069
-96.153,-23.996,-1000.824,0.514,-0.358,0.007
-95.081,-23.912,-1001.125,0.238,-0.246,-0.024
-94.872,-25.078,-994.502,0.144,-0.040,0.140
-95.159,-28.406,-991.813,-0.049,0.254,0.290
-94.880,-35.399,-986.198,0.182,0.583,0.421
-96.911,-37.981,-982.142,0.600,1.090,0.622
-97.745,-39.769,-989.155,1.293,1.694,0.797
-95.000,-43.000,-994.000,2.730,2.100,1.050
-95.750,-31.941,-1000.832,3.407,2.406,1.366
-96.255,-25.550,-1005.218,3.473,2.594,1.440
-95.445,-26.207,-1003.432,2.984,2.534,1.269
-93.884,-24.622,-1002.706,1.871,2.538,1.119
-90.773,-31.424,-1005.221,1.460,2.459,1.013
-88.710,-37.954,-1008.204,1.054,2.291,0.985
-89.092,-40.136,-1006.963,0.535,2.392,1.056
-88.338,-42.696,-1011.332,0.417,2.395,1.118
-81.547,-47.325,-1019.761,0.656,2.061,1.078
-78.046,-46.116,-1022.471,1.117,1.624,0.949
-81.496,-37.987,-1024.679,1.211,1.230,0.852
-82.956,-35.803,-1029.996,1.306,0.704,0.666
-79.937,-33.969,-1026.694,0.900,-0.007,0.415
-79.222,-32.199,-1020.737,0.120,-0.560,0.170
-81.000,-37.000,-1023.000,-0.210,-0.980,-0.070
-80.856,-40.611,-1019.184,-0.639,-1.412,-0.198
-83.671,-44.382,-1012.892,-0.809,-1.700,-0.265
-87.206,-48.303,-1010.250,-0.627,-1.835,-0.315
-88.565,-46.459,-1006.805,-0.253,-1.945,-0.395
-89.055,-44.506,-1004.009,0.245,-1.930,-0.417
-88.999,-42.150,-1004.257,0.547,-1.791,-0.432
-88.998,-37.700,-1004.971,0.701,-1.750,-0.492
-89.837,-35.125,-1004.878,0.515,-1.750,-0.489
-91.896,-34.048,-1006.452,0.123,-1.795,-0.543
-91.248,-34.050,-1000.987,-0.545,-1.890,-0.606
-91.202,-34.280,-999.970,-1.172,-1.831,-0.676
-89.941,-38.635,-1007.880,-1.257,-1.684,-0.688
-89.809,-42.283,-1003.469,-1.415,-1.586,-0.605
-95.751,-39.631,-1001.668,-1.610,-1.533,-0.555
-94.000,-41.000,-1006.000,-1.330,-1.470,-0.560
-89.878,-40.765,-998.411,-1.234,-1.357,-0.629
-92.468,-35.584,-994.118,-1.327,-1.094,-0.542
-92.528,-35.682,-996.893,-1.033,-0.738,-0.418
-92.162,-34.788,-995.764,-1.080,-0.557,-0.437
-93.133,-30.399,-997.152,-1.328,-0.440,-0.381
-91.524,-29.021,-1001.663,-1.437,-0.333,-0.254
-91.072,-30.096,-1000.828,-1.700,-0.274,-0.210
-92.006,-30.964,-1000.813,-1.821,-0.151,-0.211
-91.146,-31.137,-1002.363,-1.720,-0.027,-0.201
-91.842,-29.391,-999.779,-1.596,0.095,-0.265
-94.723,-26.093,-1002.530,-1.654,0.194,-0.256
-93.991,-27.121,-1007.324,-1.503,0.197,-0.191
-91.672,-29.304,-1006.543,-1.417,0.112,-0.221
-93.251,-29.024,-1008.640,-1.445,0.067,-0.205
-91.000,-31.000,-1011.000,-1.050,0.000,-0.210
-87.763,-32.876,-1006.700,-0.908,-0.128,-0.166
-90.818,-34.120,-1005.589,-0.741,-0.184,0.064
-88.295,-37.609,-1010.591,0.034,-0.298,0.275
-85.277,-39.152,-1011.298,0.995,-0.384,0.444
-88.064,-34.925,-1009.367,1.707,-0.462,0.623
-87.604,-31.825,-1010.149,2.202,-0.581,0.710
-87.049,-33.072,-1008.770,2.456,-0.634,0.696
-87.930,-32.131,-1005.254,2.447,-0.699,0.633
-89.481,-31.746,-1002.479,2.523,-0.648,0.628
-90.723,-32.298,-1000.425,2.362,-0.620,0.597
-87.696,-31.921,-999.035,2.064,-0.595,0.528
-85.510,-34.250,-999.277,1.677,-0.381,0.608
-86.122,-34.835,-1003.756,1.232,-0.268,0.612
-84.662,-35.287,-1008.235,1.191,-0.283,0.558
-84.000,-37.000,-1005.000,0.980,-0.280,0.560
-85.876,-35.254,-1004.309,0.716,-0.277,0.499
-85.305,-35.410,-1007.732,0.582,-0.325,0.448
-85.687,-36.493,-1003.251,0.248,-0.401,0.328
-87.910,-35.482,-1005.992,0.081,-0.425,0.269
-85.777,-36.661,-1011.844,-0.098,-0.417,0.269
-85.533,-36.731,-1007.883,-0.413,-0.425,0.198
-89.189,-36.056,-1008.272,-0.484,-0.500,0.212
-88.261,-37.058,-1010.121,-0.297,-0.684,0.150
-85.259,-33.945,-1006.815,-0.141,-0.835,0.020
-85.777,-31.720,-1004.074,-0.248,-0.792,-0.048
-89.165,-31.972,-1004.163,-0.538,-0.789,-0.107
-89.210,-30.462,-1005.095,-0.825,-0.865,-0.170
-86.632,-33.304,-1004.797,-1.036,-0.822,-0.219
-89.591,-36.284,-1005.130,-1.118,-0.853,-0.207
-89.000,-39.000,-1006.000,-0.910,-0.910,-0.210
-84.245,-40.484,-1006.877,-0.431,-0.904,-0.215
-85.169,-35.383,-1007.065,0.041,-0.968,-0.163
-87.765,-32.557,-1007.482,0.260,-0.975,-0.088
-90.068,-31.152,-1010.243,0.273,-1.031,-0.086
-89.378,-31.664,-1008.211,0.112,-1.153,-0.166
-89.238,-33.058,-1004.676,-0.301,-1.096,-0.117
-88.772,-34.290,-1007.259,-0.328,-1.052,-0.073
-85.120,-38.882,-1007.272,0.048,-1.116,-0.138
-86.376,-36.032,-1003.469,0.236,-1.132,-0.092
-87.912,-35.252,-1002.228,0.478,-1.035,-0.015
-88.467,-38.387,-1000.629,0.609,-0.901,0.030
-88.881,-35.532,-999.675,0.707,-0.771,0.104
-87.729,-36.875,-999.817,0.988,-0.571,0.154
-88.100,-36.535,-998.989,1.047,-0.483,0.223
-88.000,-34.000,-1001.000,1.120,-0.350,0.280
-87.113,-34.182,-1002.187,1.262,-0.150,0.280
-87.314,-31.782,-1000.768,1.087,-0.150,0.283
-89.804,-30.099,-1003.335,0.746,-0.052,0.247
-88.465,-30.223,-1008.040,0.517,-0.006,0.168
-85.186,-31.537,-1008.561,0.209,-0.093,0.135
-86.521,-32.068,-1007.851,-0.128,-0.063,0.143
-88.069,-34.306,-1006.891,-0.211,-0.152,0.138
-88.103,-37.874,-1006.794,-0.214,-0.276,0.076
-85.598,-38.086,-1011.708,-0.020,-0.321,0.007
-84.489,-37.601,-1014.994,0.409,-0.524,-0.003
-85.747,-35.625,-1014.067,0.759,-0.767,0.001
-86.202,-35.094,-1013.690,1.029,-0.889,0.000
-87.305,-34.505,-1012.286,1.259,-1.024,-0.001
-86.798,-32.913,-1009.524,1.509,-1.134,0.001
-86.000,-33.000,-1006.000,1.610,-1.260,0.000
-86.064,-31.968,-1005.510,1.368,-1.390,-0.057
-85.724,-34.023,-1009.304,1.286,-1.442,-0.129
-87.638,-36.059,-1010.194,1.414,-1.558,-0.143
-89.933,-35.891,-1012.534,1.332,-1.662,-0.153
-89.832,-35.989,-1012.806,1.218,-1.828,-0.263
-90.076,-36.140,-1005.066,0.973,-1.977,-0.360
-88.793,-37.042,-1002.088,0.688,-1.956,-0.350
-86.120,-37.826,-1003.963,0.635,-1.897,-0.413
-85.785,-41.340,-1002.692,0.469,-1.782,-0.441
-87.609,-41.835,-998.607,0.342,-1.623,-0.316
-90.966,-40.749,-995.375,0.364,-1.404,-0.268
-89.443,-42.894,-999.416,0.339,-1.308,-0.285
-86.892,-40.964,-1001.477,0.353,-1.204,-0.279
-90.702,-38.921,-996.310,0.254,-0.942,-0.277
-92.000,-39.000,-997.000,0.070,-0.770,-0.210
-89.309,-38.927,-1000.781,-0.109,-0.591,-0.145
-88.656,-39.260,-1000.939,-0.305,-0.402,-0.098
-89.889,-37.730,-1001.810,-0.408,-0.248,-0.008
-89.246,-36.936,-1003.608,-0.419,-0.205,-0.032
-87.558,-38.918,-1003.839,-0.434,-0.193,-0.066
-88.274,-39.911,-1005.655,-0.504,-0.136,0.018
-89.045,-37.816,-1009.229,-0.485,-0.220,-0.007
-89.934,-36.951,-1010.078,-0.423,-0.340,-0.070
-90.082,-37.271,-1009.542,-0.412,-0.512,-0.063
-90.405,-35.500,-1013.100,-0.503,-0.706,-0.120
-91.452,-34.895,-1015.834,-0.602,-0.878,-0.144
-90.531,-34.890,-1013.416,-0.509,-1.063,-0.157
-91.428,-35.408,-1011.283,-0.495,-1.258,-0.227
-90.620,-37.165,-1007.289,-0.390,-1.501,-0.199
-89.000,-37.000,-1006.000,-0.210,-1.540,-0.140
-90.047,-37.853,-1009.759,0.063,-1.469,-0.083
-88.441,-36.990,-1007.746,0.597,-1.520,-0.009
-88.363,-34.584,-1002.190,0.741,-1.557,0.001
-88.780,-35.966,-1000.362,0.665,-1.488,-0.000
-85.561,-35.405,-1001.017,0.596,-1.346,0.008
-84.110,-35.319,-999.255,0.571,-1.233,0.099
-87.325,-37.077,-996.955,0.630,-1.030,0.218
-89.971,-37.864,-997.888,0.624,-0.784,0.338
-89.802,-40.497,-999.470,0.794,-0.655,0.480
-91.473,-40.938,-1001.524,0.942,-0.538,0.447
-91.711,-38.111,-1001.547,1.038,-0.415,0.431
-90.692,-36.900,-1003.065,1.011,-0.303,0.540
-91.233,-38.485,-1006.942,0.864,-0.291,0.547
-92.152,-37.669,-1008.003,0.661,-0.360,0.483
-92.000,-37.000,-1007.000,0.420,-0.420,0.490
-89.307,-39.712,-1005.801,0.247,-0.482,0.501
-88.792,-40.664,-1008.919,0.017,-0.534,0.385
-89.040,-42.082,-1010.392,0.082,-0.641,0.306
-89.344,-40.358,-1009.469,0.144,-0.763,0.221
-90.082,-37.266,-1009.646,0.173,-0.893,0.114
-90.249,-36.678,-1005.711,0.173,-0.992,0.153
-93.241,-33.857,-1001.888,-0.164,-0.976,0.136
-94.075,-35.700,-1002.009,-0.280,-0.916,0.135
-94.298,-37.372,-999.918,-0.332,-0.845,0.205
-98.035,-36.304,-997.002,-0.330,-0.850,0.207
-98.721,-38.308,-1001.421,-0.203,-0.753,0.218
-95.078,-36.677,-1006.235,-0.062,-0.542,0.197
-92.670,-34.704,-1005.575,0.106,-0.487,0.233
-93.017,-33.743,-1006.249,0.151,-0.494,0.278
-91.000,-32.000,-1007.000,0.280,-0.560,0.210
-88.196,-31.881,-1006.122,0.068,-0.566,0.203
-87.370,-33.782,-1005.733,-0.305,-0.587,0.259
-85.758,-38.165,-1007.103,-0.367,-0.711,0.328
-84.359,-41.652,-1007.431,-0.264,-0.631,0.354
-83.916,-43.272,-1005.143,0.246,-0.544,0.360
-83.948,-41.365,-1006.327,0.909,-0.572,0.441
-82.918,-39.971,-1004.712,1.355,-0.633,0.491
-83.769,-38.274,-1002.052,1.537,-0.571,0.490
-86.736,-35.218,-1001.353,1.497,-0.481,0.490
-86.478,-34.608,-1000.613,1.315,-0.522,0.489
-85.441,-33.427,-1004.785,0.939,-0.391,0.490
-84.465,-37.513,-1007.798,0.498,-0.374,0.491
-84.072,-40.163,-1009.034,0.092,-0.418,0.482
-85.233,-41.538,-1005.120,-0.264,-0.434,0.403
-87.000,-45.000,-1004.000,-0.560,-0.560,0.280
-87.251,-44.141,-1009.712,-0.467,-0.555,0.157
-85.769,-43.088,-1007.926,-0.255,-0.666,0.077
-87.860,-38.399,-1006.458,-0.427,-0.681,0.071
-89.060,-37.291,-1007.016,-0.495,-0.620,0.051
-87.435,-37.565,-1008.725,-0.505,-0.762,-0.045
-88.618,-35.800,-1008.205,-0.461,-0.854,-0.163
-92.253,-34.807,-1004.979,-0.349,-0.914,-0.211
-93.126,-32.054,-1007.784,-0.417,-0.973,-0.211
-91.182,-32.938,-1008.281,-0.370,-1.095,-0.161
-91.056,-32.053,-1006.761,-0.335,-1.137,-0.080
-90.690,-33.214,-1003.802,-0.381,-1.108,-0.076
-91.670,-33.693,-1002.747,-0.452,-1.116,-0.045
-91.565,-35.206,-1000.895,-0.354,-1.006,0.010
-89.847,-39.181,-1000.656,-0.016,-0.899,-0.003
-89.000,-37.000,-1007.000,0.280,-0.840,-0.000
-87.844,-36.975,-1005.393,0.371,-0.778,0.055
-89.884,-36.011,-1006.595,0.162,-0.757,0.174
-87.823,-38.195,-1008.502,0.297,-0.821,0.240
-85.702,-40.340,-1004.496,0.658,-0.820,0.142
-89.642,-38.468,-1002.014,0.670,-0.753,0.049
-90.904,-39.221,-1000.992,0.519,-0.775,0.086
-89.943,-40.145,-1002.001,0.339,-0.687,0.142
-89.943,-42.867,-1000.114,0.221,-0.502,0.141
-90.328,-42.994,-1001.887,0.076,-0.373,0.134
-87.402,-43.983,-1005.052,0.219,-0.296,0.185
-85.095,-41.776,-1003.639,0.507,-0.252,0.226
-87.358,-37.826,-1002.404,0.588,-0.168,0.194
-89.210,-37.788,-1003.761,0.615,-0.151,0.232
-87.659,-34.489,-1005.974,0.276,-0.215,0.282
-88.000,-34.000,-1002.000,-0.140,-0.140,0.280
-91.892,-34.764,-1003.746,-0.338,-0.061,0.340
-88.712,-38.466,-1010.712,-0.282,-0.214,0.363
-86.005,-40.735,-1009.147,-0.060,-0.387,0.305
-91.064,-37.182,-1010.048,0.086,-0.444,0.269
-93.036,-39.450,-1009.655,0.425,-0.535,0.289
-91.622,-39.174,-1005.516,0.671,-0.648,0.272
-89.874,-34.806,-1008.251,0.936,-0.623,0.286
-89.833,-34.920,-1006.447,1.066,-0.560,0.411
-92.673,-35.078,-1003.312,0.747,-0.615,0.487
-91.590,-35.845,-1006.907,0.693,-0.640,0.460
-88.327,-38.733,-1004.062,0.635,-0.623,0.335
-90.563,-38.202,-1001.536,0.540,-0.634,0.268
-91.700,-36.994,-1003.417,0.563,-0.635,0.276
-88.514,-38.055,-1004.159,0.560,-0.715,0.195
-88.000,-36.000,-1005.000,0.420,-0.700,0.140
-91.548,-34.750,-1003.904,-0.072,-0.511,0.139
-91.419,-37.295,-1006.847,-0.327,-0.471,0.147
-87.071,-38.812,-1007.707,-0.429,-0.512,0.097
-88.568,-39.058,-1004.001,-0.504,-0.446,0.080
-89.675,-38.933,-1006.633,-0.336,-0.437,0.170
-86.040,-39.009,-1010.256,-0.080,-0.611,0.115
-82.867,-37.823,-1007.685,0.071,-0.775,0.073
-84.617,-35.986,-1005.012,0.002,-0.709,0.139
-88.328,-38.291,-1006.504,0.101,-0.675,0.093
-84.252,-39.233,-1007.323,0.209,-0.811,-0.019
-84.192,-35.700,-1005.368,0.197,-0.821,-0.137
-88.446,-35.564,-1002.406,0.023,-0.732,-0.092
-87.441,-37.417,-1000.755,-0.284,-0.687,0.021
-87.042,-38.118,-1002.391,-0.253,-0.615,-0.007
-87.000,-39.000,-1004.000,-0.000,-0.490,-0.000
-87.784,-38.279,-1004.549,0.313,-0.362,0.004
-88.378,-36.424,-1009.923,0.426,-0.337,-0.008
-86.603,-35.359,-1013.921,0.442,-0.387,0.013
-86.298,-34.478,-1010.445,0.510,-0.489,-0.032
-89.060,-33.897,-1008.477,0.323,-0.738,-0.093
-88.380,-33.977,-1006.009,0.095,-0.933,-0.150
-87.125,-34.094,-1002.994,-0.080,-0.905,-0.136
-89.950,-37.639,-1005.756,-0.023,-0.904,-0.074
-87.038,-40.233,-1007.104,0.388,-0.976,-0.018
-85.472,-38.825,-1005.886,0.781,-0.945,0.057
-89.757,-40.020,-1002.305,1.126,-0.841,0.073
-91.034,-38.686,-1001.215,1.509,-0.708,0.058
-89.185,-35.069,-1004.776,1.827,-0.600,-0.036
-86.893,-32.574,-1002.192,1.774,-0.460,-0.059
-90.000,-31.000,-998.000,1.190,-0.210,0.070
-92.388,-35.142,-998.684,0.608,-0.016,0.077
-88.010,-39.353,-999.184,0.514,0.084,0.059
-87.404,-41.206,-992.573,0.709,0.362,0.107
-90.310,-42.642,-986.616,1.047,0.781,0.196
-89.148,-43.132,-989.485,1.488,1.088,0.340
-87.942,-42.736,-992.515,1.718,1.406,0.550
-87.969,-40.863,-998.803,1.991,1.616,0.863
-87.080,-39.193,-1010.323,2.422,1.612,1.046
-86.126,-35.153,-1014.238,2.688,1.568,1.052
-86.379,-31.358,-1012.352,2.790,1.369,1.049
-87.361,-31.249,-1011.940,2.494,1.100,1.052
-83.731,-33.300,-1016.733,2.077,0.879,1.035
-80.691,-39.160,-1021.540,1.927,0.604,0.951
-82.290,-45.912,-1018.432,1.805,0.214,0.910
-83.000,-51.000,-1019.000,1.890,-0.210,0.910
-83.007,-54.752,-1019.614,2.149,-0.576,0.794
-82.916,-54.520,-1014.823,2.174,-0.902,0.660
-83.543,-53.296,-1013.257,2.240,-1.116,0.556
-84.383,-51.982,-1011.662,2.300,-1.267,0.411
-85.614,-49.044,-1008.198,1.904,-1.356,0.330
-87.201,-49.174,-1002.916,1.328,-1.412,0.250
-85.770,-47.778,-1004.440,0.565,-1.394,0.055
-83.060,-46.007,-1008.097,-0.165,-1.329,-0.066
-85.020,-45.455,-1005.791,-0.752,-1.389,-0.118
-88.071,-44.597,-1008.073,-1.448,-1.397,-0.236
-87.448,-49.372,-1004.121,-2.017,-1.439,-0.325
-89.091,-50.909,-1000.178,-2.509,-1.459,-0.375
-89.899,-51.720,-1000.230,-2.564,-1.379,-0.433
-90.200,-52.712,-994.277,-2.618,-1.311,-0.411
-90.000,-49.000,-996.000,-2.590,-1.050,-0.350
-86.218,-49.027,-998.998,-2.079,-0.740,-0.292
-87.410,-45.898,-999.318,-2.007,-0.491,-0.217
-87.267,-40.784,-1001.387,-2.039,-0.308,-0.240
-85.379,-39.706,-1001.799,-2.328,-0.264,-0.320
-86.287,-38.003,-1001.978,-2.996,-0.145,-0.368
-85.918,-34.161,-1003.375,-3.773,0.032,-0.438
-85.943,-34.240,-1003.900,-4.768,0.069,-0.493
-83.263,-36.985,-1001.998,-5.800,0.068,-0.552
-81.160,-37.065,-1005.022,-6.636,0.078,-0.677
-80.242,-43.901,-1006.470,-6.746,0.051,-0.716
-80.714,-44.759,-1006.555,-6.668,0.127,-0.683
-82.262,-38.974,-1012.530,-6.040,0.095,-0.730
-80.676,-38.691,-1011.974,-5.214,-0.017,-0.785
-83.638,-31.608,-1011.333,-5.006,-0.005,-0.852
-84.000,-27.000,-1013.000,-4.620,-0.210,-0.910
-82.632,-25.595,-1011.083,-4.708,-0.410,-0.912
-85.184,-22.648,-1011.353,-4.834,-0.461,-0.870
-83.281,-25.087,-1008.330,-4.581,-0.552,-0.756
-83.847,-26.522,-1006.799,-4.224,-0.550,-0.624
-82.915,-29.344,-1010.094,-3.003,-0.576,-0.378
-81.216,-29.290,-1008.884,-1.493,-0.536,-0.076
-85.329,-24.727,-1000.279,-0.181,-0.411,0.156
-87.876,-23.069,-994.203,1.035,-0.231,0.339
-89.090,-22.131,-991.194,1.992,0.079,0.503
-87.513,-21.559,-986.507,2.690,0.309,0.825
-87.658,-19.940,-989.819,3.359,0.690,1.216
-89.523,-20.946,-991.382,3.951,1.207,1.537
-88.591,-21.740,-990.583,4.296,1.570,1.713
-86.482,-19.834,-999.771,4.688,1.857,1.757
-82.000,-20.000,-1008.000,5.040,1.960,1.820
-81.624,-19.022,-1010.509,4.966,1.905,1.772
-83.738,-21.365,-1015.354,4.288,1.758,1.601
-84.503,-26.638,-1017.944,3.276,1.447,1.382
-85.111,-32.411,-1016.106,2.254,1.030,1.105
-82.706,-39.145,-1021.491,1.388,0.611,0.781
-79.339,-37.847,-1021.952,0.874,0.176,0.517
-77.981,-32.825,-1017.981,0.129,-0.237,0.411
-78.033,-34.700,-1018.301,-1.158,-0.537,0.166
-77.121,-36.986,-1011.158,-2.313,-0.894,-0.151
-77.518,-37.684,-1010.679,-3.054,-1.169,-0.423
-78.183,-41.585,-1010.692,-3.311,-1.159,-0.783
-78.126,-43.439,-1006.595,-3.052,-1.092,-0.954
-79.256,-44.243,-1008.472,-2.574,-1.030,-0.999
-78.978,-42.381,-1006.630,-2.005,-0.971,-1.051
-81.000,-38.000,-1008.000,-1.330,-0.910,-0.980
-83.053,-34.709,-1010.148,-0.755,-0.955,-0.914
-82.135,-29.868,-1008.395,-0.601,-1.144,-0.907
-81.723,-28.490,-1007.216,-0.724,-1.246,-0.916
-79.727,-26.464,-1006.326,-0.805,-1.266,-0.884
-79.086,-25.127,-1005.427,-0.860,-1.254,-0.813
-78.614,-27.456,-1005.026,-0.934,-1.265,-0.758
-76.996,-28.039,-1006.062,-1.055,-1.256,-0.694
-78.850,-29.793,-1005.196,-0.874,-1.195,-0.572
-79.170,-32.482,-1001.839,-0.380,-1.091,-0.438
-79.426,-33.594,-999.211,0.047,-0.898,-0.379
-79.744,-31.519,-1002.831,0.795,-0.771,-0.277
-76.394,-31.239,-1007.081,1.537,-0.626,-0.172
-76.478,-30.330,-1006.798,1.682,-0.566,-0.124
-76.791,-29.124,-1008.323,1.680,-0.636,-0.065
-75.000,-31.000,-1008.000,1.540,-0.630,-0.140
-74.987,-30.109,-1005.133,1.125,-0.693,-0.327
-74.894,-31.142,-1006.228,0.637,-0.658,-0.414
-75.625,-33.843,-1007.380,0.162,-0.638,-0.446
-76.076,-36.059,-1006.532,-0.356,-0.763,-0.559
-75.857,-35.227,-1011.567,-0.717,-0.763,-0.668
-74.628,-33.960,-1016.075,-0.686,-0.892,-0.812
-75.268,-32.749,-1011.632,-0.866,-1.136,-0.991
-80.640,-29.943,-1010.850,-1.115,-1.315,-1.109
-82.307,-33.425,-1010.820,-1.198,-1.510,-1.290
-81.476,-32.039,-1007.137,-1.534,-1.560,-1.397
-83.262,-28.686,-1007.183,-1.585,-1.520,-1.418
-84.129,-31.299,-1005.743,-1.596,-1.576,-1.520
-83.935,-30.107,-1005.177,-1.918,-1.604,-1.523
-84.071,-27.888,-1004.449,-2.027,-1.527,-1.470
-85.000,-29.000,-998.000,-1.960,-1.470,-1.540
-85.894,-29.288,-995.761,-1.952,-1.359,-1.498
-86.692,-27.159,-997.543,-1.985,-1.130,-1.266
-87.614,-28.007,-999.022,-1.837,-0.872,-1.022
-88.479,-29.731,-999.802,-1.682,-0.686,-0.805
-89.008,-29.802,-998.759,-1.530,-0.595,-0.796
-87.516,-27.168,-1003.289,-1.160,-0.454,-0.825
-85.935,-24.976,-1004.843,-0.743,-0.343,-0.610
-85.935,-25.061,-1003.799,-0.501,-0.222,-0.428
-87.528,-24.577,-1007.612,-0.378,-0.131,-0.316
-88.586,-27.380,-1006.981,-0.262,-0.199,-0.139
-86.238,-27.751,-1008.587,-0.060,-0.200,0.020
-84.632,-29.169,-1011.579,0.298,-0.241,0.096
-85.190,-29.172,-1010.572,0.459,-0.288,0.171
-84.824,-25.938,-1009.804,0.757,-0.372,0.297
-83.000,-30.000,-1008.000,0.840,-0.490,0.350
-81.983,-31.934,-1009.634,0.618,-0.482,0.352
-82.148,-33.994,-1009.715,0.861,-0.630,0.306
-81.342,-35.285,-1008.840,0.864,-0.835,0.232
-80.649,-32.801,-1013.371,0.912,-0.989,0.182
-79.433,-33.340,-1012.419,0.921,-1.061,0.123
-79.200,-32.845,-1006.524,0.546,-1.045,0.151
-81.153,-34.194,-1000.604,0.255,-0.970,0.134
-82.039,-35.937,-997.987,-0.117,-0.844,0.069
-80.490,-36.864,-999.428,-0.272,-0.846,0.126
-79.378,-35.684,-1002.341,-0.321,-0.752,0.148
-81.703,-31.349,-1005.467,-0.436,-0.654,0.135
-83.586,-29.070,-1006.026,-0.902,-0.594,0.144
-84.015,-26.121,-1009.080,-1.472,-0.584,0.132
-82.664,-26.290,-1009.754,-1.799,-0.805,0.054
-81.000,-27.000,-1009.000,-2.030,-0.910,0.000
-79.498,-25.984,-1010.942,-1.858,-0.962,0.119
-76.245,-25.684,-1010.620,-1.665,-1.086,0.203
-77.170,-23.531,-1012.561,-1.480,-1.198,0.243
-77.810,-25.977,-1011.186,-1.591,-1.333,0.305
-76.938,-28.495,-1008.268,-1.741,-1.421,0.248
-78.312,-29.211,-1009.058,-1.245,-1.380,0.210
-79.063,-27.645,-1007.891,-0.503,-1.332,0.208
-79.981,-22.234,-1006.240,-0.004,-1.399,0.205
-79.785,-22.486,-1001.832,-0.358,-1.300,0.322
-82.462,-23.826,-1000.345,-0.716,-1.188,0.376
-84.912,-24.627,-1000.967,-0.643,-1.180,0.301
-82.846,-24.653,-1001.369,-0.614,-1.052,0.277
-81.910,-24.221,-1002.948,-0.563,-0.957,0.289
-82.117,-26.221,-999.488,-0.827,-0.808,0.362
-84.000,-26.000,-1002.000,-1.050,-0.630,0.350
-84.295,-26.828,-1008.500,-0.981,-0.623,0.224
-82.258,-26.072,-1010.326,-1.173,-0.676,0.158
-82.029,-22.979,-1012.593,-1.742,-0.778,0.094
-81.574,-24.515,-1011.368,-2.098,-0.907,0.045
-80.690,-28.113,-1007.729,-2.214,-1.028,-0.035
-79.708,-27.426,-1008.487,-2.196,-1.141,-0.068
-79.035,-24.871,-1011.181,-1.706,-1.193,-0.074
-80.834,-23.219,-1012.083,-1.339,-1.254,-0.139
-81.984,-19.606,-1009.088,-1.319,-1.320,-0.089
-82.429,-19.074,-1004.592,-1.385,-1.371,-0.049
-83.521,-21.459,-1003.991,-1.334,-1.446,-0.139
-82.143,-21.563,-1005.171,-1.082,-1.477,-0.247
-82.620,-17.339,-1004.874,-1.059,-1.458,-0.165
-85.284,-13.839,-1007.823,-0.849,-1.392,-0.066
-85.000,-14.000,-1013.000,-0.560,-1.470,-0.070
-83.135,-11.264,-1010.061,-1.004,-1.667,-0.057
-84.057,-13.141,-1004.936,-1.729,-1.638,-0.223
-86.102,-18.874,-1006.206,-2.069,-1.620,-0.340
-82.480,-23.825,-1003.226,-1.846,-1.730,-0.378
-81.622,-27.699,-1001.520,-1.338,-1.591,-0.421
-84.215,-23.753,-1008.280,-0.767,-1.362,-0.325
-82.961,-20.881,-1006.607,-0.175,-1.333,-0.279
-85.683,-16.552,-1005.662,-0.054,-1.393,-0.276
-87.369,-11.742,-1008.770,-0.436,-1.511,-0.429
-85.925,-14.538,-1002.076,-1.053,-1.574,-0.662
-85.972,-14.405,-999.376,-1.716,-1.435,-0.707
-83.809,-17.249,-1001.954,-1.891,-1.245,-0.701
-83.029,-21.727,-1005.211,-1.683,-1.068,-0.692
-82.952,-20.775,-1008.034,-1.508,-0.975,-0.612
-84.000,-20.000,-1006.000,-1.120,-0.980,-0.490
-85.270,-18.301,-1008.467,-0.564,-0.977,-0.536
-82.369,-16.586,-1007.451,-0.192,-1.029,-0.682
-83.811,-14.501,-999.564,-0.168,-1.066,-0.677
-87.456,-14.480,-1000.776,-0.398,-1.015,-0.561
-86.239,-16.952,-1004.853,-0.203,-0.971,-0.467
-86.336,-18.014,-1004.715,0.202,-0.981,-0.504
-88.090,-16.910,-1002.803,0.204,-0.899,-0.482
-88.094,-17.773,-1000.962,0.263,-0.773,-0.356
-85.752,-20.079,-1004.029,0.513,-0.777,-0.345
-83.480,-18.554,-1005.350,0.613,-0.655,-0.325
-86.526,-17.798,-1001.084,0.393,-0.422,-0.173
-89.809,-18.783,-1002.449,0.314,-0.315,-0.007
-86.520,-23.684,-1007.120,0.823,-0.270,-0.025
-84.046,-23.167,-1009.214,1.311,-0.289,-0.063
-87.000,-18.000,-1009.000,1.470,-0.350,0.070
-88.978,-21.458,-1006.991,1.469,-0.351,0.140
-88.418,-21.772,-1008.595,1.588,-0.388,0.138
-86.737,-19.794,-1007.558,1.868,-0.481,0.142
-85.667,-17.589,-1004.570,1.806,-0.479,0.139
-86.174,-18.010,-1005.159,1.629,-0.518,0.138
-85.904,-21.309,-1004.821,1.502,-0.556,0.148
-86.008,-19.940,-1006.222,1.404,-0.486,0.215
-85.114,-21.828,-1008.033,1.598,-0.488,0.215
-84.702,-21.493,-1006.923,1.537,-0.491,0.145
-85.910,-21.101,-1008.732,1.292,-0.523,0.174
-86.149,-22.644,-1010.051,1.215,-0.612,0.262
-87.844,-21.550,-1007.767,1.017,-0.640,0.269
-87.623,-22.150,-1008.367,0.876,-0.751,0.173
-87.016,-20.752,-1007.649,0.651,-0.931,0.056
-86.000,-22.000,-1007.000,0.350,-0.980,0.000
-83.200,-24.113,-1010.702,0.169,-1.033,-0.060
-82.966,-22.399,-1009.760,0.010,-1.120,-0.082
-82.903,-21.872,-1008.871,0.045,-1.102,-0.055
-82.911,-22.040,-1009.829,0.056,-1.186,-0.090
-81.341,-21.954,-1006.548,-0.048,-1.275,-0.039
-82.624,-22.112,-1007.645,-0.273,-1.261,0.000
-82.788,-23.065,-1008.960,-0.418,-1.337,0.001
-80.873,-23.040,-1009.691,-0.346,-1.396,-0.057
-83.307,-23.494,-1015.682,-0.528,-1.544,-0.252
-78.710,-25.768,-1018.548,-0.488,-1.857,-0.291
-77.952,-25.112,-1015.274,-0.462,-2.079,-0.280
-82.588,-23.610,-1011.356,-0.712,-2.266,-0.267
-81.303,-24.049,-1011.016,-0.447,-2.536,-0.319
-79.782,-21.297,-1009.593,-0.473,-2.754,-0.516
-79.000,-17.000,-1007.000,-0.910,-2.800,-0.560
-83.255,-17.475,-1004.467,-1.212,-2.679,-0.551
-84.862,-21.272,-1002.616,-1.433,-2.638,-0.655
-82.556,-21.867,-1004.079,-1.132,-2.693,-0.772
-84.144,-20.467,-1002.034,-0.698,-2.571,-0.715
-85.342,-21.296,-998.969,-0.350,-2.371,-0.584
-87.698,-19.258,-997.628,0.010,-2.098,-0.452
-88.930,-18.084,-997.023,0.465,-1.799,-0.267
-87.886,-19.077,-995.412,1.025,-1.499,-0.148
-93.147,-17.132,-988.825,1.075,-1.074,-0.027
-98.951,-18.674,-989.487,1.122,-0.729,0.058
-97.711,-21.194,-995.015,1.528,-0.482,0.077
-96.642,-20.155,-998.123,1.921,-0.224,0.059
-93.888,-16.793,-1000.382,2.119,0.101,0.091
-93.354,-13.716,-1001.224,1.913,0.293,0.139
-95.000,-13.000,-1003.000,1.610,0.350,0.070
-91.326,-12.780,-1001.304,1.093,0.478,0.063
-92.229,-16.253,-1001.333,0.370,0.494,0.116
-92.897,-22.102,-1002.573,0.040,0.521,0.221
-91.575,-28.619,-1004.123,0.250,0.598,0.324
-91.975,-32.815,-1007.850,0.922,0.652,0.377
-90.742,-29.974,-1006.510,1.607,0.714,0.531
-89.850,-26.883,-1009.509,2.142,0.773,0.631
-86.247,-25.251,-1014.033,2.577,0.714,0.567
-86.207,-20.279,-1010.799,2.377,0.517,0.497
-89.335,-16.686,-1008.380,1.725,0.452,0.459
-91.034,-18.632,-1006.806,1.021,0.314,0.316
-91.826,-20.920,-1007.894,0.165,0.148,0.135
-87.397,-24.378,-1010.208,-0.417,0.026,0.060
-86.315,-28.414,-1008.825,-0.840,-0.073,0.074
-88.000,-30.000,-1011.000,-1.120,-0.070,0.070
-83.810,-32.739,-1014.820,-0.827,-0.359,0.008
-80.247,-31.520,-1013.825,-0.625,-0.660,-0.046
-80.008,-26.900,-1011.325,-0.635,-0.771,-0.126
-79.686,-25.694,-1010.372,-0.694,-0.938,-0.130
-78.468,-24.264,-1009.469,-1.080,-1.112,-0.181
-78.111,-24.557,-1008.724,-1.375,-1.196,-0.289
-79.026,-28.182,-1006.856,-1.556,-1.192,-0.201
-78.104,-27.213,-1006.845,-1.625,-1.257,-0.202
-77.796,-25.907,-1008.841,-1.226,-1.214,-0.279
-78.238,-24.857,-1008.720,-0.923,-1.167,-0.273
-77.940,-19.932,-1008.939,-0.914,-1.213,-0.292
-80.385,-19.239,-1005.653,-0.935,-1.165,-0.264
-82.369,-18.540,-1002.786,-1.095,-1.226,-0.304
-83.057,-19.447,-1005.380,-1.023,-1.345,-0.348
-82.000,-20.000,-1005.000,-0.980,-1.400,-0.280
-81.578,-15.163,-1004.757,-1.120,-1.347,-0.219
-85.266,-18.436,-1005.487,-1.056,-1.262,-0.154
-86.098,-20.419,-1003.308,-1.059,-1.250,-0.134
-86.620,-18.092,-1002.419,-0.745,-1.059,-0.142
-88.754,-19.666,-998.999,-0.277,-0.851,-0.141
-90.301,-18.407,-995.739,-0.104,-0.733,-0.133
-89.820,-17.016,-998.265,0.163,-0.467,-0.064
-87.104,-17.971,-999.961,0.346,-0.225,-0.004
-87.062,-16.678,-1002.508,0.351,-0.034,0.056
-85.576,-14.622,-1008.901,0.356,0.000,0.086
-85.839,-16.164,-1008.376,0.298,-0.207,0.028
-89.382,-14.774,-1007.492,0.139,-0.302,-0.007
-88.087,-14.890,-1013.861,0.189,-0.396,0.003
-85.918,-19.450,-1014.679,0.367,-0.586,-0.001
-88.000,-19.000,-1013.000,0.420,-0.700,0.000
-90.933,-20.508,-1011.517,0.592,-0.819,0.003
-89.087,-22.187,-1007.815,0.871,-0.950,-0.044
-86.677,-22.121,-1005.517,1.272,-1.004,-0.126
-87.755,-23.751,-1004.567,1.661,-0.934,-0.119
-87.647,-21.884,-1007.010,1.891,-0.926,-0.050
-87.079,-19.632,-1007.654,1.955,-0.988,-0.087
-89.208,-17.835,-1005.937,1.801,-0.981,-0.141
-90.128,-16.906,-1005.138,1.435,-1.044,-0.140
-87.437,-19.400,-1003.725,1.035,-1.063,-0.141
-87.283,-21.296,-1005.762,0.886,-1.029,-0.139
-88.516,-23.969,-1003.361,0.725,-1.104,-0.124
-87.160,-26.981,-1000.696,0.605,-1.088,-0.003
-85.490,-27.067,-1007.373,0.788,-0.926,0.078
-83.788,-29.391,-1011.012,1.182,-0.839,0.074
-84.000,-28.000,-1008.000,1.400,-0.910,0.140
-85.840,-24.083,-1004.298,1.290,-0.918,0.090
-85.599,-24.913,-1002.833,0.963,-0.894,-0.003
-83.518,-24.616,-998.863,0.256,-0.938,0.043
-82.951,-26.408,-999.251,-0.104,-0.823,0.080
-82.692,-28.508,-1004.129,-0.061,-0.628,0.062
-82.073,-29.073,-1004.098,-0.168,-0.449,0.081
-84.182,-27.811,-1009.488,-0.211,-0.349,0.144
-85.017,-26.041,-1009.435,-0.273,-0.413,0.144
-85.614,-24.761,-1006.921,-0.346,-0.477,0.082
-86.472,-21.902,-1010.990,-0.342,-0.569,0.057
-85.120,-22.721,-1006.121,-0.429,-0.742,0.111
-84.781,-20.703,-1011.720,-0.640,-0.919,0.135
-81.960,-22.072,-1021.479,-0.463,-1.125,0.030
-82.604,-21.099,-1019.593,-0.382,-1.455,-0.087
-87.000,-16.000,-1018.000,-0.770,-1.750,-0.210
-88.600,-21.321,-1011.983,-0.956,-1.986,-0.333
-92.170,-22.050,-1008.299,-1.124,-2.260,-0.454
-93.240,-24.489,-1005.958,-0.900,-2.334,-0.521
-93.081,-24.620,-1001.704,-0.592,-2.249,-0.424
-92.328,-20.360,-1000.809,-0.633,-1.966,-0.308
-91.117,-25.123,-1000.880,-0.320,-1.728,-0.181
-94.245,-23.636,-999.944,0.106,-1.748,-0.143
-94.232,-21.023,-1000.848,0.836,-1.559,-0.147
-91.234,-19.167,-1000.275,1.663,-1.414,0.023
-92.018,-14.041,-994.156,1.745,-1.256,0.212
-93.466,-12.907,-996.850,1.664,-0.920,0.378
-89.892,-15.423,-1000.127,1.826,-0.811,0.419
-88.125,-16.987,-997.127,1.769,-0.617,0.445
-90.266,-16.148,-997.135,1.593,-0.400,0.575
-90.000,-22.000,-999.000,1.610,-0.280,0.560
-87.399,-26.978,-1003.563,1.784,-0.033,0.491
-86.892,-25.560,-1003.958,1.995,0.111,0.534
-90.827,-23.793,-1006.364,2.044,0.207,0.588
-88.841,-22.788,-1009.706,2.000,0.132,0.490
-85.330,-24.917,-1006.547,1.749,-0.041,0.404
-86.112,-24.642,-1007.629,1.195,0.015,0.425
-84.876,-25.261,-1010.167,0.747,-0.085,0.418
-84.033,-29.748,-1012.804,0.627,-0.207,0.358
-83.835,-30.465,-1013.969,0.697,-0.296,0.236
-84.911,-27.921,-1014.888,0.625,-0.557,0.126
-84.263,-26.176,-1015.956,0.441,-0.720,-0.047
-84.827,-25.744,-1011.205,0.051,-0.977,-0.196
-87.623,-24.999,-1008.720,-0.631,-1.133,-0.335
-88.061,-28.890,-1007.599,-1.100,-1.130,-0.505
-89.000,-32.000,-1004.000,-1.330,-1.260,-0.490
-87.453,-29.264,-1003.644,-1.303,-1.208,-0.543
-85.169,-29.102,-1006.345,-0.936,-1.167,-0.583
-85.667,-27.000,-1007.804,-0.777,-1.237,-0.528
-89.084,-23.235,-1010.776,-0.963,-1.320,-0.631
-91.364,-21.027,-1012.785,-1.238,-1.585,-0.735
-90.974,-17.071,-1007.363,-1.771,-1.769,-0.880
-92.097,-16.181,-1004.034,-2.662,-1.747,-0.980
-92.089,-21.499,-1005.934,-3.397,-1.747,-0.916
-91.029,-26.442,-1004.657,-3.541,-1.764,-0.852
-91.995,-28.341,-1002.463,-3.247,-1.658,-0.796
-94.027,-29.252,-1005.064,-2.770,-1.580,-0.708
-90.614,-26.430,-1007.409,-2.142,-1.653,-0.569
-86.186,-24.509,-1007.003,-1.509,-1.667,-0.593
-86.020,-18.585,-1008.125,-1.254,-1.608,-0.710
-86.000,-11.000,-1005.000,-1.470,-1.680,-0.700
-88.572,-11.798,-1001.650,-2.008,-1.689,-0.699
-89.469,-11.792,-1006.091,-2.537,-1.703,-0.697
-88.060,-14.585,-1004.712,-2.913,-1.817,-0.738
-88.335,-19.120,-1000.925,-3.225,-1.574,-0.772
-89.367,-22.430,-1003.298,-3.102,-1.359,-0.627
-88.456,-25.260,-997.622,-2.488,-1.299,-0.464
-85.920,-23.837,-1000.601,-1.609,-1.028,-0.417
-86.911,-21.310,-1001.470,-0.875,-0.848,-0.296
-85.766,-16.073,-999.304,-0.603,-0.733,-0.096
-83.560,-13.313,-1005.101,-0.403,-0.599,-0.056
-85.365,-11.991,-1001.973,-0.340,-0.514,-0.084
-85.930,-10.884,-1007.917,-0.328,-0.483,-0.031
-86.347,-12.652,-1002.173,-0.285,-0.501,0.120
-86.842,-15.638,-1004.348,-0.346,-0.572,0.218
-84.000,-20.000,-1004.000,-0.000,-0.560,0.280
-84.460,-19.421,-1005.755,0.723,-0.428,0.406
-87.621,-17.335,-1011.847,1.433,-0.465,0.470
-88.083,-15.901,-1003.532,1.879,-0.502,0.543
-87.795,-14.513,-1015.537,1.997,-0.486,0.540
-88.918,-15.495,-997.934,2.064,-0.479,0.461
-92.552,-16.016,-1009.002,2.210,-0.401,0.411
-90.788,-16.015,-999.799,2.391,-0.347,0.425
-91.724,-16.871,-998.627,2.393,-0.286,0.488
-92.608,-18.709,-1009.852,2.150,-0.175,0.488
-92.128,-19.198,-991.035,2.030,-0.031,0.504
-95.803,-18.514,-1019.375,2.024,0.008,0.421
-92.173,-17.571,-990.727,2.080,-0.001,0.311
-95.745,-16.629,-1022.222,2.148,-0.002,0.264
-95.507,-14.759,-992.813,1.649,0.002,0.202
-98.000,-16.000,-1002.000,1.260,-0.000,0.140
-97.603,-19.648,-1020.023,1.217,-0.005,0.015
-91.610,-21.471,-976.102,1.010,0.012,-0.013
-97.892,-22.113,-1055.587,0.940,-0.023,0.016
-85.979,-20.128,-931.490,0.678,0.041,-0.049
-100.755,-23.654,-1117.074,0.698,-0.085,-0.196
-74.567,-16.341,-844.021,0.599,-0.198,-0.178
