acc_x[mg],acc_y[mg],acc_z[mg],gyro_x[dps],gyro_y[dps],gyro_z[dps]
-22.000,-70.000,999.000,-0.210,-0.630,-0.140
-21.195,-72.053,1041.058,-0.046,-0.720,-0.146
-19.129,-65.056,947.452,0.152,-0.671,-0.133
-23.762,-69.560,1046.125,0.024,-0.755,-0.146
-21.558,-64.684,961.288,-0.157,-0.796,-0.137
-23.252,-73.093,1024.239,-0.219,-0.845,-0.129
-26.783,-71.088,983.224,-0.205,-0.737,-0.054
-28.985,-74.489,1004.562,-0.126,-0.622,-0.077
-24.519,-73.625,1002.140,0.241,-0.500,-0.139
-20.670,-67.228,987.960,0.706,-0.423,-0.136
-23.720,-67.232,1011.032,0.816,-0.418,-0.153
-26.358,-67.301,984.090,0.662,-0.446,-0.095
-27.138,-70.431,1008.357,0.470,-0.516,-0.071
-27.102,-71.030,990.171,0.323,-0.455,-0.054
-28.059,-72.120,1000.566,0.466,-0.338,0.001
-26.000,-70.000,996.000,0.840,-0.350,-0.070
-24.665,-66.437,992.007,1.049,-0.415,-0.079
-28.122,-63.599,1001.307,0.890,-0.458,-0.052
-29.161,-63.212,992.128,0.457,-0.609,-0.126
-26.192,-64.268,1003.242,0.147,-0.787,-0.132
-25.210,-64.431,993.644,0.038,-0.840,-0.168
-27.416,-67.625,1000.804,0.001,-0.741,-0.200
-26.885,-66.811,999.215,0.078,-0.704,-0.060
-26.875,-65.937,997.476,0.140,-0.769,-0.063
-28.085,-66.236,1000.194,0.053,-0.716,-0.092
-27.271,-65.561,997.844,-0.264,-0.687,0.004
-26.310,-67.199,1001.484,-0.623,-0.734,-0.048
-23.863,-68.233,996.970,-0.681,-0.791,-0.062
-24.855,-67.723,1000.269,-0.495,-0.743,-0.093
-27.071,-66.970,998.264,-0.332,-0.705,-0.136
-26.000,-68.000,998.000,-0.280,-0.770,-0.070
-25.961,-68.995,998.481,-0.283,-0.770,-0.127
-25.965,-68.903,996.694,-0.230,-0.778,-0.154
-26.216,-69.573,997.406,-0.221,-0.721,-0.100
-25.118,-70.204,996.665,-0.365,-0.720,-0.029
-23.594,-69.716,998.843,-0.420,-0.785,-0.008
-22.711,-68.694,998.609,-0.309,-0.765,-0.090
-22.068,-66.866,998.008,-0.050,-0.771,-0.142
-24.770,-66.846,998.080,0.012,-0.770,-0.143
-26.119,-69.474,997.111,-0.188,-0.774,-0.082
-25.772,-71.335,997.436,-0.178,-0.728,-0.064
-26.337,-72.907,998.496,-0.082,-0.644,-0.072
-25.185,-72.502,999.207,0.107,-0.460,-0.074
-23.856,-72.115,999.855,0.353,-0.346,-0.056
-25.303,-71.618,997.659,0.699,-0.427,0.004
-26.000,-66.000,998.000,1.050,-0.350,-0.070
-26.583,-61.942,998.375,0.671,-0.441,-0.253
-29.615,-65.193,995.426,0.029,-0.777,-0.364
-29.446,-70.594,995.111,-0.071,-0.848,-0.233
-29.094,-72.503,996.957,0.324,-0.649,-0.089
-28.112,-71.022,999.759,0.766,-0.568,-0.218
-24.175,-65.368,997.955,0.691,-0.740,-0.477
-23.029,-61.009,995.072,0.092,-0.766,-0.550
-23.933,-66.412,999.642,-0.160,-0.765,-0.238
-23.613,-71.093,1000.627,0.443,-0.790,-0.051
-20.426,-68.676,998.483,1.154,-0.698,-0.212
-21.578,-63.869,999.765,1.486,-0.746,-0.364
-25.364,-59.021,999.248,1.314,-0.765,-0.436
-26.327,-58.310,999.218,0.564,-0.790,-0.279
-28.176,-61.733,999.936,-0.327,-0.842,-0.138
-27.000,-67.000,998.000,-0.700,-0.840,-0.210
-27.623,-67.535,997.755,-0.526,-0.850,-0.152
-28.080,-63.678,998.993,-0.362,-0.733,-0.136
-24.505,-62.670,998.642,-0.420,-0.685,-0.077
-23.937,-64.100,998.863,-0.780,-0.708,0.041
-22.310,-69.354,996.636,-1.034,-0.696,-0.018
-25.416,-73.596,994.824,-1.055,-0.706,0.107
-30.058,-76.309,995.018,-1.039,-0.777,0.054
-27.269,-79.938,995.852,-0.613,-0.780,-0.013
-24.696,-77.796,997.823,0.205,-0.591,0.157
-20.499,-75.577,997.295,1.144,-0.545,-0.068
-18.851,-72.470,996.223,1.867,-0.563,-0.095
-23.522,-66.583,995.704,2.001,-0.579,0.012
-28.169,-66.807,997.867,1.478,-0.649,-0.092
-28.672,-71.995,998.796,1.020,-0.713,-0.074
-25.000,-78.000,997.000,1.190,-0.770,-0.280
-24.074,-74.555,999.469,1.775,-0.650,-0.476
-21.911,-64.185,1001.706,2.442,-0.578,-0.557
-21.799,-59.441,1002.500,2.336,-0.448,-0.414
-29.188,-59.838,1002.565,1.683,-0.299,-0.008
-30.129,-65.359,1001.443,1.452,-0.391,-0.109
-26.274,-66.281,1000.689,1.687,-0.302,-0.390
-23.805,-60.603,998.873,1.972,-0.052,-0.418
-24.447,-57.195,998.014,1.910,0.131,-0.299
-37.558,-55.656,998.569,1.523,0.118,-0.028
-45.220,-59.305,1000.097,0.984,-0.165,-0.128
-33.088,-61.304,997.755,0.778,-0.397,-0.494
-25.289,-56.237,995.221,0.872,-0.396,-0.522
-28.216,-52.239,996.176,0.513,-0.346,-0.238
-31.417,-53.664,996.062,-0.443,-0.442,0.204
-32.000,-61.000,998.000,-1.260,-0.560,0.350
-26.096,-66.015,997.402,-1.200,-0.617,0.048
-21.724,-62.754,995.758,-0.579,-0.732,-0.137
-24.295,-58.152,996.604,-0.322,-0.824,-0.108
-27.370,-59.648,997.045,-0.833,-0.863,-0.007
-28.021,-65.223,998.245,-1.305,-0.942,0.097
-28.110,-69.836,997.625,-1.191,-0.984,0.045
-29.065,-70.904,997.041,-0.645,-0.978,-0.078
-29.067,-67.371,997.929,0.095,-0.917,-0.139
-27.550,-62.838,999.458,0.370,-0.842,-0.138
-24.887,-60.130,1000.583,0.179,-0.879,-0.180
-23.213,-61.110,997.765,-0.101,-0.954,-0.234
-22.879,-64.557,997.079,-0.245,-0.988,-0.171
-23.349,-66.253,997.889,-0.183,-0.976,-0.144
-25.262,-65.812,996.987,-0.140,-0.979,-0.128
-26.000,-64.000,999.000,-0.210,-0.910,-0.000
-26.924,-63.033,1000.939,-0.339,-0.838,0.008
-25.352,-62.921,1000.396,-0.355,-0.855,-0.010
-21.713,-63.872,999.038,-0.357,-0.780,-0.015
-23.855,-66.246,998.588,-0.285,-0.819,-0.133
-26.674,-67.093,997.023,-0.045,-0.951,-0.119
-27.031,-66.895,995.953,0.082,-0.983,-0.172
-26.977,-65.922,997.120,0.067,-0.978,-0.281
-26.960,-65.930,998.843,0.006,-0.916,-0.213
-27.196,-66.239,1000.747,-0.062,-0.852,-0.262
-26.095,-65.437,1000.922,-0.044,-0.796,-0.260
-26.275,-67.852,1000.789,0.083,-0.709,-0.143
-25.069,-68.738,1000.773,0.182,-0.557,-0.168
-24.184,-66.253,1000.981,0.337,-0.478,-0.220
-26.263,-64.817,999.636,0.411,-0.399,-0.203
-27.000,-64.000,998.000,0.210,-0.280,-0.140
-28.854,-65.679,998.966,0.076,-0.338,-0.136
-27.225,-66.380,997.642,0.059,-0.360,-0.144
-24.921,-65.220,996.388,0.161,-0.345,-0.160
-27.592,-64.414,997.157,0.451,-0.346,-0.287
-27.698,-62.153,996.371,0.703,-0.380,-0.363
-28.342,-62.198,996.030,0.663,-0.519,-0.345
-27.780,-60.681,997.103,0.481,-0.561,-0.352
-25.031,-56.169,997.971,0.428,-0.621,-0.353
-26.608,-57.748,998.671,0.159,-0.741,-0.287
-26.302,-63.379,999.355,-0.100,-0.901,-0.345
-22.877,-65.984,997.323,0.079,-1.067,-0.530
-22.267,-63.047,997.449,0.286,-0.973,-0.540
-24.869,-59.183,999.106,0.358,-0.802,-0.472
-25.986,-59.115,997.793,0.253,-0.769,-0.408
-26.000,-59.000,998.000,0.140,-0.770,-0.350
-26.981,-58.043,998.960,0.158,-0.882,-0.297
-26.313,-58.537,998.415,-0.139,-1.035,-0.170
-25.450,-59.954,997.284,-0.533,-1.024,-0.100
-24.514,-59.282,999.037,-0.729,-0.916,-0.011
-26.041,-60.180,999.474,-1.055,-0.808,0.111
-28.058,-67.931,997.600,-1.262,-0.873,0.130
-25.811,-70.850,996.981,-0.859,-0.981,-0.015
-25.821,-67.199,996.969,-0.180,-0.914,-0.141
-28.482,-66.141,997.171,0.080,-0.951,-0.031
-30.401,-65.119,995.890,-0.027,-1.048,0.027
-31.727,-65.853,996.709,-0.114,-1.021,-0.053
-31.753,-67.409,998.393,-0.152,-0.931,-0.053
-28.592,-66.776,999.144,-0.124,-0.803,0.017
-23.317,-67.134,998.809,-0.059,-0.775,-0.009
-22.000,-68.000,998.000,0.070,-0.840,0.000
-24.542,-68.921,999.809,0.258,-0.847,0.072
-26.839,-68.524,999.427,0.377,-0.786,0.013
-26.141,-66.411,998.602,0.549,-0.760,0.006
-23.767,-62.761,998.591,0.670,-0.778,-0.038
-22.821,-58.806,997.533,0.580,-0.762,-0.057
-23.224,-59.609,998.119,0.474,-0.781,0.004
-25.182,-62.087,997.970,0.499,-0.844,-0.078
-26.939,-61.177,997.986,0.685,-0.846,-0.138
-27.072,-59.137,997.947,0.741,-0.726,-0.150
-26.896,-59.980,998.507,0.470,-0.680,-0.051
-27.181,-62.129,998.529,0.212,-0.719,0.028
-26.496,-61.329,997.655,0.091,-0.680,-0.021
-26.234,-61.380,999.641,-0.051,-0.725,0.023
-28.246,-63.172,999.825,-0.238,-0.772,0.074
-27.000,-63.000,999.000,-0.350,-0.770,0.070
-24.141,-64.444,999.116,-0.298,-0.714,0.009
-24.541,-68.256,997.530,-0.175,-0.676,-0.006
-26.183,-69.308,996.398,-0.063,-0.740,-0.022
-27.498,-68.829,997.516,0.106,-0.609,-0.123
-26.359,-68.839,997.550,0.405,-0.582,-0.133
-26.246,-66.121,996.996,0.679,-0.623,-0.152
-26.948,-62.836,998.062,0.770,-0.560,-0.214
-25.124,-62.004,997.151,0.708,-0.625,-0.274
-24.791,-62.036,996.547,0.630,-0.679,-0.340
-25.720,-61.461,998.578,0.700,-0.806,-0.389
-26.216,-60.310,998.241,0.897,-0.821,-0.473
-25.516,-59.725,998.017,0.997,-0.751,-0.473
-25.070,-58.697,999.186,0.839,-0.779,-0.398
-26.166,-59.198,998.919,0.598,-0.767,-0.341
-26.000,-59.000,999.000,0.420,-0.770,-0.280
-23.423,-56.194,999.909,0.186,-0.826,-0.220
-22.321,-56.628,999.509,-0.127,-0.906,-0.157
-25.510,-57.016,997.820,-0.322,-0.897,-0.102
-28.088,-57.915,998.336,-0.388,-0.954,-0.029
-29.543,-61.100,998.743,-0.569,-0.961,0.004
-29.872,-62.109,997.594,-0.606,-0.907,0.001
-28.957,-63.079,995.917,-0.406,-0.907,-0.001
-28.968,-63.061,996.800,-0.347,-0.841,-0.003
-29.779,-62.835,998.889,-0.404,-0.899,0.063
-29.418,-63.263,999.069,-0.473,-0.873,0.031
-25.208,-62.339,1001.508,-0.496,-0.826,-0.012
-24.101,-61.739,1000.543,-0.469,-0.841,-0.022
-23.346,-60.580,997.242,-0.255,-0.856,-0.196
-22.218,-60.019,997.060,0.019,-0.906,-0.187
-26.000,-61.000,998.000,-0.140,-0.770,0.000
-25.503,-64.376,999.979,-0.295,-0.811,0.014
-23.045,-66.556,997.909,-0.079,-0.931,-0.108
-23.900,-63.800,996.624,0.095,-0.812,-0.137
-26.366,-63.207,999.148,-0.041,-0.778,0.026
-26.436,-64.318,1000.086,-0.291,-0.882,0.052
-23.384,-65.339,1001.076,-0.353,-0.896,0.001
-23.069,-67.132,999.877,-0.344,-0.758,0.076
-23.116,-68.876,999.896,-0.041,-0.638,0.076
-21.163,-68.792,1000.312,0.524,-0.519,-0.039
-22.870,-64.271,998.801,0.888,-0.426,-0.139
-28.145,-62.886,999.152,1.051,-0.426,-0.105
-28.310,-64.905,997.930,0.833,-0.399,-0.047
-26.818,-66.556,996.843,0.599,-0.328,0.028
-27.033,-68.107,996.998,0.736,-0.272,0.065
-28.000,-67.000,997.000,1.050,-0.210,-0.000
-29.179,-63.684,997.847,1.488,-0.145,0.056
-27.193,-59.071,998.718,1.605,-0.137,0.087
-27.835,-56.933,999.147,1.302,-0.162,0.025
-26.743,-57.326,997.833,0.921,-0.306,-0.033
-24.924,-58.513,996.625,0.745,-0.463,-0.079
-27.662,-58.816,996.952,0.887,-0.500,-0.072
-29.087,-56.822,995.931,1.060,-0.645,-0.147
-30.883,-54.244,996.809,1.065,-0.769,-0.147
-30.575,-51.271,998.896,0.643,-0.756,-0.068
-27.877,-51.960,998.174,-0.014,-0.901,-0.119
-26.051,-54.060,997.982,-0.435,-1.049,-0.143
-26.515,-53.361,999.526,-0.620,-1.051,-0.157
-26.608,-51.420,999.773,-0.625,-1.169,-0.228
-23.530,-51.172,998.922,-0.736,-1.264,-0.198
-22.000,-53.000,999.000,-1.050,-1.260,-0.140
-21.850,-54.601,998.983,-1.298,-1.265,-0.143
-24.088,-58.022,999.584,-1.496,-1.209,-0.089
-26.020,-59.960,1000.607,-1.566,-1.153,-0.060
-26.133,-60.062,1000.598,-1.519,-1.075,-0.075
-27.566,-59.499,999.120,-1.567,-1.061,-0.079
-28.057,-57.829,997.744,-1.628,-1.138,-0.158
-29.105,-60.342,996.900,-1.846,-1.194,-0.133
-29.136,-64.724,995.099,-2.216,-1.254,-0.069
-26.604,-67.555,995.503,-2.434,-1.323,-0.125
-24.444,-68.833,996.876,-2.370,-1.300,-0.184
-23.803,-69.338,996.836,-1.960,-1.204,-0.238
-24.109,-70.750,999.015,-1.646,-1.184,-0.147
-24.018,-72.572,999.773,-1.459,-1.072,-0.069
-25.272,-74.154,998.978,-0.958,-0.974,-0.153
-26.000,-73.000,999.000,-0.420,-0.910,-0.210
-25.023,-68.626,998.046,-0.045,-0.774,-0.332
-26.190,-66.115,998.146,0.143,-0.826,-0.368
-28.614,-65.968,996.589,0.037,-0.801,-0.333
-28.460,-66.507,995.812,-0.175,-0.786,-0.365
-26.076,-68.899,997.410,-0.170,-0.845,-0.339
-24.824,-68.580,998.051,0.054,-0.745,-0.353
-23.917,-66.931,999.130,0.220,-0.696,-0.269
-23.062,-65.272,1000.893,0.402,-0.573,-0.206
-21.550,-60.861,1001.253,0.610,-0.482,-0.279
-19.794,-58.358,999.819,0.579,-0.542,-0.233
-21.102,-58.119,1000.612,0.267,-0.570,-0.186
-22.452,-63.350,999.664,-0.246,-0.526,-0.065
-23.144,-72.806,996.239,-0.488,-0.357,0.124
-21.496,-79.980,997.217,0.159,-0.089,0.315
-18.000,-86.000,995.000,1.470,0.350,0.560
-16.980,-90.507,991.818,2.965,0.790,0.688
-18.062,-91.842,994.963,4.790,1.054,0.760
-21.638,-87.024,997.112,6.579,1.237,0.724
-23.906,-81.301,998.867,7.556,1.218,0.462
-25.946,-77.271,999.973,7.967,1.070,0.034
-26.780,-71.838,1000.002,8.134,1.063,-0.348
-24.953,-68.838,999.953,8.121,1.122,-0.496
-26.787,-66.226,999.041,8.243,1.120,-0.557
-28.109,-63.674,998.986,8.517,1.166,-0.565
-27.744,-58.619,998.699,9.048,1.282,-0.556
-28.884,-48.353,999.437,9.644,1.409,-0.543
-31.003,-39.034,999.547,9.625,1.500,-0.429
-32.169,-32.181,998.968,9.013,1.428,-0.325
-33.361,-28.634,1000.139,8.105,1.226,-0.275
-36.000,-26.000,999.000,7.070,0.980,-0.280
-34.457,-22.522,997.072,6.209,0.678,-0.342
-33.322,-19.052,997.062,5.360,0.373,-0.360
-35.739,-16.079,996.190,4.244,0.064,-0.314
-35.376,-13.368,996.066,3.096,-0.189,-0.212
-35.598,-12.965,999.465,1.728,-0.340,0.045
-38.452,-25.929,1002.000,0.175,-0.654,0.214
-35.515,-37.241,998.690,-0.421,-0.993,-0.026
-30.121,-33.453,997.789,-0.219,-0.866,-0.213
-32.116,-29.525,1001.400,-0.337,-0.581,-0.050
-34.289,-27.288,1002.229,-0.763,-0.625,0.115
-33.324,-28.122,1000.849,-1.406,-0.820,0.149
-32.670,-31.319,998.849,-2.155,-0.975,0.133
-31.890,-34.098,997.809,-2.770,-1.074,0.146
-33.353,-40.100,998.073,-3.389,-1.126,0.135
-35.000,-48.000,999.000,-3.990,-1.120,0.140
-34.324,-56.047,1000.807,-4.224,-0.949,0.259
-31.204,-60.288,1000.642,-3.731,-0.693,0.353
-28.117,-62.159,997.974,-2.585,-0.532,0.282
-28.786,-60.019,995.641,-1.249,-0.450,0.132
-30.556,-53.330,994.781,-0.239,-0.421,0.033
-30.952,-47.985,996.403,0.070,-0.526,-0.105
-29.888,-46.057,996.963,-0.325,-0.715,-0.216
-28.991,-49.637,996.897,-0.879,-0.899,-0.337
-29.789,-52.826,999.340,-1.074,-0.980,-0.480
-29.819,-52.286,1001.014,-0.755,-0.972,-0.484
-26.837,-47.177,999.495,-0.014,-0.994,-0.512
-24.389,-40.220,996.535,0.344,-0.957,-0.419
-27.425,-39.263,996.136,-0.014,-1.027,-0.231
-31.347,-40.015,997.117,-0.582,-1.210,-0.125
-31.000,-40.000,998.000,-1.260,-1.260,-0.070
-29.175,-40.755,999.765,-1.889,-1.379,-0.133
-28.383,-43.590,1000.728,-2.204,-1.394,-0.104
-26.289,-48.181,1001.895,-2.239,-1.142,0.012
-24.516,-51.960,1003.392,-2.005,-1.001,0.144
-27.521,-54.511,1001.769,-1.409,-0.961,0.219
-30.526,-50.393,998.118,-0.578,-0.898,0.094
-33.235,-43.655,995.946,-0.061,-0.916,-0.158
-34.175,-42.827,996.013,-0.611,-1.038,-0.221
-30.646,-47.293,995.157,-1.916,-1.216,-0.023
-29.174,-55.375,995.647,-2.636,-1.379,-0.041
-28.402,-60.316,998.776,-2.510,-1.354,-0.029
-28.002,-61.379,1000.207,-1.930,-1.183,0.132
-27.758,-62.045,1001.365,-1.179,-1.100,0.132
-26.988,-60.708,1001.953,-0.629,-0.947,0.140
-28.000,-59.000,1001.000,-0.210,-0.770,0.070
-29.753,-56.505,1000.181,0.052,-0.715,0.005
-29.886,-53.545,998.472,0.120,-0.585,-0.081
-26.840,-52.606,997.561,0.194,-0.587,-0.260
-29.245,-54.128,997.713,0.198,-0.631,-0.247
-32.450,-56.974,996.303,0.282,-0.515,-0.217
-30.557,-56.336,997.515,0.773,-0.488,-0.300
-29.954,-50.415,998.999,1.367,-0.412,-0.352
-28.975,-42.534,998.059,1.613,-0.411,-0.353
-31.959,-38.122,997.933,1.277,-0.541,-0.293
-34.078,-39.214,997.848,0.536,-0.631,-0.269
-30.810,-40.420,997.822,-0.024,-0.835,-0.292
-30.047,-39.592,997.757,-0.334,-0.920,-0.256
-29.735,-40.635,998.049,-0.560,-0.920,-0.183
-28.940,-43.430,997.966,-0.908,-0.990,-0.046
-29.000,-46.000,999.000,-1.330,-1.050,0.070
-29.854,-47.165,1001.772,-1.469,-1.120,0.074
-29.706,-44.750,1001.512,-1.495,-1.066,0.027
-27.224,-43.947,1000.017,-1.772,-1.076,-0.062
-28.151,-46.356,999.469,-2.371,-1.144,-0.023
-30.417,-49.664,998.416,-2.731,-1.100,0.117
-28.388,-56.607,997.820,-2.608,-1.140,0.132
-28.123,-58.889,996.941,-2.277,-1.188,0.064
-29.078,-57.029,996.940,-1.784,-1.063,0.002
-27.237,-57.187,997.847,-1.496,-0.972,0.000
-27.499,-55.963,997.894,-1.386,-1.037,-0.035
-28.237,-57.067,998.043,-1.263,-1.043,-0.121
-27.850,-58.305,999.554,-1.280,-1.083,-0.141
-28.101,-59.670,999.686,-1.215,-1.106,-0.141
-27.871,-60.880,999.053,-0.924,-0.954,-0.139
-26.000,-58.000,1000.000,-0.490,-0.840,-0.140
-25.553,-56.921,998.389,-0.107,-0.775,-0.144
-29.916,-57.655,996.863,0.007,-0.770,-0.090
-31.091,-58.894,997.439,-0.017,-0.735,-0.052
-29.059,-57.988,998.244,0.054,-0.686,-0.107
-28.971,-54.952,999.030,0.194,-0.697,-0.146
-27.670,-53.886,998.875,0.295,-0.608,-0.140
-28.133,-54.083,999.043,0.273,-0.640,-0.138
-29.050,-55.892,999.063,0.208,-0.765,-0.076
-28.058,-55.544,998.093,0.358,-0.775,-0.055
-28.175,-52.939,997.846,0.623,-0.737,-0.131
-27.219,-50.649,997.642,0.770,-0.617,-0.109
-27.795,-50.106,998.455,0.717,-0.542,-0.056
-30.691,-51.261,1000.361,0.476,-0.575,-0.077
-29.546,-50.913,999.794,0.256,-0.642,-0.066
-27.000,-51.000,999.000,0.210,-0.700,-0.070
-27.670,-50.209,998.253,0.275,-0.697,-0.076
-30.214,-50.197,996.861,0.210,-0.751,-0.017
-32.076,-52.858,998.078,-0.047,-0.776,0.013
-31.203,-51.780,998.721,-0.191,-0.788,-0.031
-29.291,-49.440,997.423,-0.238,-0.859,-0.083
-27.637,-50.412,998.299,-0.385,-0.834,-0.062
-27.035,-52.110,998.996,-0.414,-0.921,-0.075
-27.977,-53.001,998.960,-0.289,-0.985,-0.138
-26.673,-51.656,999.824,-0.212,-0.910,-0.138
-24.162,-49.121,999.907,-0.273,-0.958,-0.181
-25.045,-50.226,999.816,-0.506,-0.987,-0.232
-28.922,-53.215,999.517,-0.693,-0.965,-0.173
-31.251,-54.070,998.831,-0.672,-0.878,-0.148
-29.664,-53.936,998.975,-0.544,-0.843,-0.217
-29.000,-53.000,998.000,-0.560,-0.840,-0.140
-30.013,-53.599,999.522,-0.689,-0.772,-0.007
-28.716,-56.481,1000.753,-0.673,-0.784,0.000
-26.873,-57.085,997.921,-0.499,-0.683,0.005
-28.303,-57.532,998.519,-0.369,-0.615,-0.012
-32.788,-59.919,998.612,-0.317,-0.624,0.025
-35.179,-61.161,999.246,-0.070,-0.530,0.074
-35.018,-62.097,998.870,0.152,-0.330,0.070
-36.762,-63.000,998.801,0.393,-0.082,0.072
-40.257,-62.250,1001.097,0.724,-0.015,0.058
-41.952,-61.706,999.657,0.889,0.127,0.160
-37.521,-62.895,1000.966,1.128,0.303,0.277
-31.958,-65.117,999.360,0.978,0.401,0.441
-30.811,-67.697,998.205,0.779,0.516,0.574
-28.526,-67.739,998.787,1.300,0.579,0.472
-27.000,-65.000,997.000,2.030,0.840,0.490
-26.540,-63.273,998.152,2.762,0.877,0.569
-19.988,-59.872,994.867,3.398,0.610,0.382
-10.427,-53.442,994.185,3.934,0.492,0.025
-4.718,-49.080,994.131,4.259,0.291,-0.300
-6.579,-47.958,992.990,4.228,0.058,-0.459
-12.173,-51.107,995.152,4.123,-0.219,-0.501
-15.135,-55.117,992.805,4.464,-0.585,-0.648
-16.842,-52.447,992.881,5.448,-0.824,-0.895
-19.274,-45.772,993.754,6.357,-1.061,-1.026
-23.463,-36.942,996.200,6.896,-1.282,-1.176
-30.674,-27.390,999.384,6.971,-1.371,-1.386
-35.144,-21.981,1000.386,6.362,-1.441,-1.520
-33.208,-19.802,1002.313,5.335,-1.589,-1.519
-34.740,-24.027,1002.041,4.354,-1.684,-1.380
-41.000,-28.000,1005.000,3.850,-1.610,-1.330
-44.697,-23.021,1006.999,3.520,-1.375,-1.223
-45.880,-16.961,1007.486,2.604,-1.075,-0.990
-46.741,-10.311,1008.297,1.011,-0.759,-0.657
-49.480,-11.850,1007.154,-0.931,-0.563,-0.154
-46.915,-25.074,1006.241,-2.696,-0.702,0.005
-39.598,-28.606,1001.631,-3.564,-0.642,0.033
-38.068,-28.354,997.870,-4.273,-0.335,0.298
-38.148,-37.313,996.218,-5.206,-0.340,0.355
-34.882,-41.443,993.308,-5.276,-0.462,0.332
-31.729,-38.280,992.833,-4.829,-0.619,0.443
-29.940,-35.209,992.251,-4.546,-0.838,0.544
-28.519,-33.753,991.945,-4.692,-1.132,0.546
-29.433,-38.006,993.357,-5.327,-1.520,0.459
-28.543,-46.294,994.093,-5.864,-1.869,0.325
-25.000,-54.000,995.000,-5.880,-2.100,0.140
-23.321,-60.247,996.607,-5.463,-2.164,0.015
-20.615,-64.110,999.844,-4.992,-2.191,-0.102
-19.868,-67.169,1002.909,-4.411,-2.026,-0.174
-19.320,-71.416,1004.448,-3.839,-1.747,-0.065
-17.715,-75.033,1004.890,-3.238,-1.512,0.004
-19.505,-74.455,1004.933,-2.381,-1.181,-0.103
-19.951,-70.671,1003.840,-1.468,-0.890,-0.216
-19.918,-66.316,1001.176,-0.550,-0.645,-0.275
-21.519,-63.286,1000.039,-0.001,-0.553,-0.338
-23.951,-62.478,998.916,0.321,-0.577,-0.392
-26.264,-60.784,995.836,0.774,-0.516,-0.470
-27.826,-59.743,994.769,1.133,-0.472,-0.474
-31.108,-58.056,996.625,1.541,-0.389,-0.404
-33.092,-53.284,998.108,1.933,-0.354,-0.427
-33.000,-50.000,998.000,2.030,-0.420,-0.420
-33.783,-45.788,997.986,1.924,-0.478,-0.354
-35.461,-42.120,997.424,1.568,-0.589,-0.353
-36.584,-42.694,995.993,0.996,-0.717,-0.312
-34.103,-42.734,995.767,0.589,-0.818,-0.266
-29.158,-41.421,996.121,0.472,-0.837,-0.279
-26.759,-39.523,998.632,0.494,-0.851,-0.181
-25.863,-37.914,1000.014,0.406,-0.912,-0.144
-23.172,-37.055,1000.824,0.162,-0.909,-0.209
-23.271,-36.834,1002.988,-0.179,-1.009,-0.158
-26.858,-38.105,1001.006,-0.654,-1.162,-0.093
-29.481,-41.205,998.823,-1.132,-1.222,-0.027
-32.438,-46.463,998.892,-1.639,-1.284,0.016
-34.322,-49.658,998.947,-2.079,-1.225,0.118
-35.199,-52.668,999.024,-2.434,-1.104,0.303
-36.000,-57.000,1000.000,-2.660,-0.980,0.350
-33.478,-57.172,1001.929,-2.439,-0.791,0.295
-31.819,-56.821,1000.667,-2.102,-0.715,0.176
-32.401,-57.104,999.383,-1.875,-0.624,0.089
-30.748,-57.201,999.919,-1.586,-0.527,0.041
-28.152,-58.468,997.841,-1.292,-0.585,-0.013
-28.417,-59.204,996.994,-1.084,-0.536,0.007
-31.171,-61.166,996.946,-0.970,-0.493,-0.002
-31.151,-61.203,996.038,-0.728,-0.557,-0.002
-29.200,-57.697,995.977,-0.347,-0.562,0.007
-29.326,-55.530,995.751,-0.187,-0.558,-0.014
-31.581,-54.174,996.298,-0.268,-0.579,0.045
-33.605,-54.560,996.955,-0.250,-0.693,0.060
-32.386,-56.384,997.047,-0.212,-0.784,-0.029
-30.790,-55.842,998.169,-0.191,-0.763,-0.070
-28.000,-56.000,998.000,0.140,-0.700,-0.070
-23.475,-56.233,998.550,0.517,-0.638,-0.131
-21.977,-54.303,1001.617,0.769,-0.581,-0.150
-22.100,-54.086,1001.260,0.954,-0.540,-0.129
-21.414,-52.962,1001.050,0.996,-0.585,-0.153
-19.078,-49.913,1001.927,1.098,-0.518,-0.118
-19.553,-48.972,1000.503,1.096,-0.510,-0.056
-22.083,-48.982,998.916,0.978,-0.635,0.004
-21.951,-48.130,998.063,1.103,-0.631,0.003
-24.895,-45.680,997.171,1.258,-0.677,-0.008
-28.628,-43.267,996.646,1.160,-0.784,0.015
-28.702,-43.538,997.066,0.790,-0.954,-0.025
-27.157,-46.823,996.255,0.200,-1.109,0.058
-25.847,-51.308,996.215,-0.353,-1.239,0.161
-27.321,-54.354,998.374,-0.571,-1.423,0.222
-28.000,-56.000,1000.000,-0.560,-1.470,0.280
-26.287,-56.148,999.973,-0.451,-1.415,0.277
-24.529,-54.630,1001.224,-0.211,-1.296,0.293
-23.069,-52.606,1002.605,-0.012,-1.211,0.227
-23.629,-51.973,1000.129,0.188,-1.158,0.220
-25.965,-53.986,998.522,0.458,-1.111,0.168
-28.649,-56.519,997.630,0.783,-1.119,0.058
-31.125,-58.056,997.059,1.145,-1.041,0.070
-31.090,-57.185,997.994,1.387,-0.919,0.005
-30.681,-54.502,998.380,1.479,-0.798,-0.005
-32.550,-52.717,1001.900,1.375,-0.677,-0.032
-32.764,-50.227,1002.479,1.332,-0.551,-0.118
-31.229,-45.662,1002.083,1.457,-0.452,-0.162
-29.521,-40.626,1002.548,1.450,-0.413,-0.224
-30.533,-39.082,998.403,1.291,-0.427,-0.204
-36.000,-41.000,998.000,0.840,-0.490,-0.210
-38.160,-42.791,998.247,0.327,-0.497,-0.270
-36.952,-43.386,996.906,0.168,-0.438,-0.338
-37.761,-41.189,997.462,-0.016,-0.405,-0.327
-37.409,-39.444,998.168,-0.494,-0.451,-0.230
-35.145,-40.532,999.165,-1.044,-0.521,-0.212
-33.702,-40.950,998.603,-1.492,-0.674,-0.208
-31.829,-41.084,996.924,-1.846,-0.851,-0.210
-30.078,-43.714,996.961,-2.210,-0.971,-0.150
-29.252,-47.306,997.064,-2.595,-1.052,-0.018
-27.784,-50.058,997.101,-2.721,-1.000,0.009
-25.472,-51.973,999.537,-2.519,-0.978,-0.004
-22.917,-51.545,1001.212,-2.459,-0.971,-0.008
-21.756,-50.933,1000.664,-2.533,-1.008,-0.115
-20.898,-51.073,999.927,-2.521,-1.134,-0.211
-22.000,-54.000,1000.000,-2.660,-1.120,-0.070
-24.039,-61.782,1000.124,-2.809,-1.001,0.066
-22.435,-68.376,998.562,-2.539,-0.873,0.063
-22.625,-73.740,996.966,-1.998,-0.767,0.113
-25.532,-77.447,997.008,-1.438,-0.600,0.155
-25.175,-75.653,998.554,-0.630,-0.437,0.102
-19.406,-69.144,1000.218,0.366,-0.325,-0.138
-14.887,-60.382,1001.104,1.167,-0.283,-0.359
-15.872,-55.174,1002.899,1.529,-0.408,-0.414
-16.843,-54.698,1002.553,1.641,-0.537,-0.534
-18.094,-56.434,999.622,1.860,-0.619,-0.581
-21.067,-57.156,998.432,2.129,-0.609,-0.520
-27.323,-57.215,999.114,2.479,-0.498,-0.453
-33.260,-57.952,998.675,2.689,-0.261,-0.284
-33.962,-54.130,999.345,2.649,0.041,-0.032
-35.000,-49.000,1002.000,2.520,0.210,0.140
-37.588,-45.505,1001.297,2.164,0.221,0.203
-40.314,-43.147,1000.021,1.783,0.143,0.225
-41.230,-42.765,999.530,1.452,0.182,0.135
-37.549,-40.697,997.484,1.261,0.200,-0.016
-34.282,-40.113,994.908,1.258,0.095,-0.227
-35.425,-39.613,993.893,1.162,-0.034,-0.363
-35.969,-37.976,994.005,1.037,-0.227,-0.349
-35.965,-38.946,993.978,0.732,-0.471,-0.351
-34.925,-38.318,994.744,0.353,-0.671,-0.297
-30.616,-37.738,995.473,-0.033,-0.810,-0.236
-30.923,-38.200,996.754,-0.790,-1.117,-0.140
-31.968,-37.801,998.466,-1.625,-1.310,-0.029
-30.798,-38.300,999.090,-2.294,-1.356,0.014
-30.936,-40.489,1000.220,-2.887,-1.483,0.078
-29.000,-45.000,1001.000,-3.360,-1.470,0.070
-27.999,-49.541,1000.929,-3.509,-1.529,0.010
-27.485,-51.023,1001.705,-3.431,-1.474,-0.057
-25.766,-51.518,1002.375,-3.475,-1.243,-0.071
-24.052,-55.722,1003.363,-3.502,-1.145,-0.095
-22.512,-60.628,1003.909,-3.500,-0.971,-0.145
-21.859,-63.561,1003.931,-3.376,-0.809,-0.040
-20.929,-65.048,1002.839,-2.971,-0.609,-0.002
-20.915,-65.034,1000.175,-2.304,-0.361,-0.003
-22.583,-63.685,999.044,-1.475,-0.292,0.014
-24.225,-60.552,997.899,-1.084,-0.219,-0.061
-26.951,-60.382,994.901,-0.974,-0.285,-0.058
-29.996,-60.896,993.356,-0.709,-0.531,-0.118
-27.971,-59.726,992.655,-0.509,-0.657,-0.240
-27.344,-60.134,991.996,-0.315,-0.800,-0.284
-31.000,-61.000,993.000,-0.070,-0.980,-0.280
-32.023,-61.929,994.723,0.124,-1.045,-0.217
-31.506,-61.981,996.453,0.151,-1.096,-0.205
-29.456,-62.199,998.049,0.156,-1.171,-0.212
-29.641,-60.901,999.405,0.298,-1.181,-0.211
-31.439,-57.881,1000.217,0.519,-1.056,-0.205
-30.684,-55.345,1002.530,0.842,-0.871,-0.220
-28.820,-51.717,1002.885,0.980,-0.765,-0.284
-27.003,-49.108,1001.066,0.916,-0.705,-0.283
-29.119,-48.714,1001.010,0.767,-0.642,-0.228
-32.408,-50.926,1000.181,0.411,-0.588,-0.150
-32.731,-52.701,999.672,0.157,-0.494,-0.169
-28.677,-50.773,999.839,0.156,-0.355,-0.217
-25.835,-48.445,1000.027,0.085,-0.263,-0.082
-28.434,-48.107,999.903,-0.372,-0.292,0.089
-29.000,-50.000,999.000,-0.910,-0.420,0.140
-28.147,-51.887,998.217,-1.055,-0.549,0.142
-26.518,-51.989,996.359,-0.994,-0.567,0.096
-26.427,-52.795,996.129,-0.995,-0.578,0.042
-29.747,-55.604,997.173,-1.139,-0.709,0.125
-29.293,-57.477,996.565,-1.159,-0.779,0.104
-27.890,-58.140,997.219,-0.920,-0.773,-0.018
-27.999,-59.116,998.050,-0.764,-0.848,0.004
-27.980,-61.737,998.928,-0.706,-0.910,0.004
-28.125,-64.092,999.159,-0.599,-0.857,-0.060
-27.254,-62.106,998.486,-0.383,-0.795,-0.076
-26.942,-60.019,999.965,-0.140,-0.700,-0.064
-26.949,-60.286,1000.835,-0.032,-0.601,-0.075
-27.188,-61.299,999.464,0.155,-0.643,-0.071
-28.108,-60.681,999.048,0.553,-0.530,-0.163
-28.000,-58.000,999.000,0.840,-0.420,-0.280
-27.853,-57.154,998.012,0.961,-0.489,-0.278
-29.506,-54.459,998.730,1.091,-0.433,-0.327
-29.949,-50.122,998.476,1.140,-0.451,-0.393
-27.720,-48.083,997.399,1.060,-0.522,-0.443
-26.848,-46.348,998.163,0.765,-0.601,-0.373
-25.551,-46.202,997.658,0.322,-0.726,-0.269
-25.143,-48.196,997.043,-0.024,-0.853,-0.280
-28.735,-50.829,997.982,-0.329,-1.041,-0.217
-30.192,-52.020,997.240,-0.532,-1.060,-0.152
-29.141,-51.847,996.650,-0.651,-1.072,-0.089
-29.554,-52.476,996.918,-0.771,-1.204,-0.067
-32.741,-53.579,996.904,-0.942,-1.295,-0.050
-35.398,-55.723,998.568,-1.308,-1.332,0.005
-33.412,-57.087,1000.218,-1.464,-1.236,-0.089
-28.000,-58.000,1002.000,-1.260,-1.050,-0.140
-22.466,-60.676,1003.069,-0.912,-0.925,-0.135
-22.176,-61.317,1002.121,-0.377,-0.775,-0.153
-24.596,-60.301,1001.974,0.086,-0.540,-0.092
-25.204,-59.545,1000.734,0.284,-0.489,-0.067
-26.900,-58.935,997.798,0.232,-0.466,-0.060
-29.558,-60.503,996.861,0.016,-0.424,0.027
-31.045,-62.057,995.898,-0.145,-0.494,0.147
-30.170,-62.055,995.011,-0.023,-0.490,0.148
-28.097,-60.519,995.038,0.337,-0.540,0.021
-29.520,-58.912,994.629,0.659,-0.607,-0.008
-33.119,-59.151,995.783,0.954,-0.696,-0.037
-33.973,-55.738,997.208,1.264,-0.815,-0.247
-32.274,-50.916,996.729,1.540,-0.850,-0.362
-29.709,-49.940,997.179,1.502,-0.922,-0.350
-30.000,-49.000,998.000,1.120,-0.980,-0.350
-29.567,-48.990,997.947,0.865,-1.096,-0.288
-25.472,-47.292,998.632,0.658,-1.194,-0.278
-26.057,-43.787,999.906,0.286,-1.170,-0.227
-26.904,-45.709,1001.616,-0.213,-1.239,-0.024
-26.005,-49.078,1001.707,-0.772,-1.230,0.100
-28.728,-51.645,1002.125,-1.192,-1.094,0.155
-29.989,-54.133,1001.920,-1.249,-1.047,0.211
-29.128,-54.976,1001.025,-1.000,-0.925,0.149
-26.590,-55.022,1000.369,-0.845,-0.731,0.068
-25.874,-55.746,998.745,-0.873,-0.639,0.119
-29.100,-59.815,999.330,-0.989,-0.651,0.125
-30.028,-63.207,997.383,-1.064,-0.732,0.024
-30.116,-66.142,996.186,-0.900,-0.657,0.005
-29.848,-69.132,998.086,-0.482,-0.555,-0.008
-29.000,-66.000,996.000,0.070,-0.560,-0.070
-29.108,-61.537,996.493,0.512,-0.497,-0.068
-27.543,-57.533,999.010,0.736,-0.524,-0.155
-26.630,-53.314,998.002,0.795,-0.648,-0.317
-27.578,-54.054,998.243,0.694,-0.748,-0.355
-27.988,-57.109,998.750,0.476,-0.759,-0.350
-26.423,-59.476,997.812,0.451,-0.682,-0.350
-23.886,-59.885,999.203,0.804,-0.626,-0.349
-24.791,-56.347,1000.989,1.173,-0.565,-0.289
-26.971,-52.578,1000.802,1.226,-0.502,-0.162
-25.758,-50.501,1001.862,0.977,-0.474,-0.092
-24.799,-49.955,1000.400,0.610,-0.537,-0.029
-27.517,-52.348,998.051,0.288,-0.544,0.009
-29.031,-54.323,997.834,0.238,-0.477,-0.011
-27.838,-53.775,996.894,0.551,-0.494,-0.084
-28.000,-51.000,997.000,0.910,-0.490,-0.140
-28.886,-48.144,996.187,1.054,-0.598,-0.135
-29.278,-48.104,995.727,0.883,-0.798,-0.198
-27.305,-47.112,996.484,0.472,-0.917,-0.179
-25.553,-48.337,997.201,0.091,-1.060,-0.122
-28.257,-52.122,998.199,-0.141,-1.130,-0.150
-28.624,-51.696,999.189,-0.211,-1.117,-0.137
-26.995,-52.129,1000.042,-0.132,-1.121,-0.138
-28.819,-53.021,1000.022,-0.129,-1.121,-0.014
-30.053,-53.433,999.947,-0.364,-1.074,0.082
-29.427,-56.349,999.867,-0.504,-0.951,0.007
-28.019,-56.787,999.790,-0.446,-0.868,0.014
-26.276,-55.368,999.765,-0.399,-0.810,-0.038
-26.261,-55.181,1000.177,-0.332,-0.764,-0.057
-28.393,-57.432,1001.063,-0.359,-0.768,0.002
-30.000,-59.000,1000.000,-0.280,-0.700,-0.070
-29.136,-58.978,998.170,0.084,-0.636,-0.135
-29.429,-58.083,997.245,0.367,-0.583,-0.148
-31.051,-54.082,996.524,0.494,-0.537,-0.098
-29.988,-52.711,997.440,0.416,-0.602,-0.060
-26.649,-50.837,997.612,0.200,-0.638,-0.075
-24.998,-49.113,996.922,0.026,-0.739,-0.068
-27.221,-52.251,998.138,-0.230,-0.920,-0.070
-28.953,-53.932,999.032,-0.355,-0.979,-0.069
-29.715,-54.956,998.120,-0.189,-0.986,-0.119
-30.392,-53.429,998.220,-0.022,-0.932,-0.200
-29.126,-50.230,999.970,-0.014,-0.906,-0.188
-29.295,-50.574,1001.131,-0.145,-0.879,-0.098
-28.297,-52.643,1000.652,-0.332,-0.724,-0.072
-25.770,-54.159,999.968,-0.327,-0.708,-0.063
-26.000,-55.000,1000.000,-0.070,-0.700,-0.000
-26.080,-55.939,999.172,0.011,-0.573,-0.000
-25.851,-55.950,998.181,-0.063,-0.548,0.045
-26.577,-56.548,997.619,-0.093,-0.600,0.092
-27.282,-57.189,998.334,-0.204,-0.651,0.030
-26.424,-56.728,998.724,-0.160,-0.598,-0.005
-24.706,-55.794,997.777,0.047,-0.565,0.002
-25.123,-56.104,998.056,0.224,-0.636,-0.002
-26.913,-57.047,998.053,0.407,-0.695,-0.063
-27.084,-55.358,997.822,0.540,-0.760,-0.133
-27.404,-54.814,998.156,0.581,-0.775,-0.142
-28.761,-55.024,996.973,0.506,-0.767,-0.139
-29.369,-55.133,997.226,0.526,-0.771,-0.140
-31.812,-54.479,997.980,0.670,-0.769,-0.140
-31.705,-51.572,998.153,0.693,-0.774,-0.140
-31.000,-50.000,1000.000,0.560,-0.840,-0.140
-33.032,-49.832,1000.132,0.261,-0.854,-0.141
-30.825,-51.659,999.735,0.016,-0.730,-0.135
-29.302,-50.832,1000.583,0.062,-0.659,-0.177
-27.982,-47.270,1000.537,0.211,-0.585,-0.230
-27.263,-47.407,999.385,0.151,-0.573,-0.182
-29.241,-48.057,998.847,-0.148,-0.645,-0.137
-27.880,-49.156,997.928,-0.437,-0.706,-0.139
-28.797,-50.950,997.932,-0.616,-0.768,-0.077
-30.198,-50.902,998.252,-0.843,-0.766,-0.008
-29.115,-52.657,996.780,-1.121,-0.817,0.005
-29.044,-55.633,997.869,-1.225,-0.848,-0.005
-28.977,-55.816,998.988,-1.126,-0.840,0.008
-28.770,-56.363,999.132,-0.902,-0.829,-0.017
-26.674,-56.926,1000.032,-0.670,-0.759,-0.075
-27.000,-56.000,999.000,-0.490,-0.700,-0.070
-28.238,-56.862,999.666,-0.243,-0.639,-0.128
-25.566,-56.517,1001.104,-0.131,-0.582,-0.156
-25.287,-55.464,1000.097,-0.158,-0.509,-0.120
-26.331,-57.068,999.779,-0.102,-0.473,-0.167
-25.794,-58.195,999.698,-0.055,-0.363,-0.090
-26.119,-57.846,998.560,0.025,-0.280,0.010
-25.950,-56.922,996.954,0.150,-0.354,-0.001
-25.905,-56.050,997.897,0.273,-0.351,0.000
-28.286,-55.834,997.550,0.296,-0.397,-0.004
-30.734,-57.250,995.530,0.247,-0.477,0.016
-30.675,-58.501,997.086,0.411,-0.498,-0.074
-29.279,-57.166,997.806,0.681,-0.465,-0.158
-27.379,-55.458,998.332,0.904,-0.411,-0.142
-25.860,-52.393,1000.266,1.072,-0.422,-0.222
-26.000,-49.000,1001.000,1.190,-0.420,-0.210
-27.677,-48.087,1000.195,1.155,-0.479,-0.200
-29.128,-47.234,999.124,0.820,-0.503,-0.235
-27.763,-46.906,998.419,0.474,-0.472,-0.114
-27.158,-46.941,997.007,0.213,-0.529,-0.061
-30.585,-47.400,997.161,-0.005,-0.562,-0.061
-33.270,-49.406,998.024,-0.180,-0.567,0.022
-31.756,-48.815,998.023,-0.281,-0.635,0.069
-28.210,-46.128,998.067,-0.273,-0.633,0.006
-27.522,-46.375,996.973,-0.577,-0.662,-0.016
-30.214,-50.107,998.088,-1.107,-0.859,0.062
-31.021,-54.943,999.144,-1.401,-0.923,0.041
-28.921,-58.002,998.618,-1.292,-0.912,-0.030
-27.932,-57.522,999.081,-0.828,-0.888,-0.083
-27.944,-55.838,998.962,-0.543,-0.749,-0.059
-27.000,-56.000,999.000,-0.560,-0.700,-0.000
-26.133,-56.122,998.999,-0.566,-0.758,-0.060
-25.170,-55.151,999.006,-0.508,-0.828,-0.077
-25.350,-55.316,998.733,-0.476,-0.845,-0.066
-26.625,-56.979,998.973,-0.495,-0.837,-0.068
-27.334,-58.442,998.430,-0.319,-0.843,-0.086
-29.684,-59.103,998.057,-0.006,-0.834,-0.151
-32.130,-58.929,999.053,0.146,-0.763,-0.138
-33.006,-57.164,999.006,0.205,-0.702,-0.138
-31.640,-55.348,999.678,0.269,-0.656,-0.144
-29.247,-53.655,1000.615,0.293,-0.527,-0.135
-29.105,-52.540,1000.995,0.240,-0.456,-0.145
-28.732,-53.620,1000.169,0.213,-0.377,-0.138
-29.496,-53.852,998.528,0.323,-0.366,-0.132
-31.184,-52.803,997.913,0.429,-0.419,-0.059
-32.000,-51.000,997.000,0.420,-0.350,-0.070
-31.398,-49.926,996.939,0.308,-0.404,-0.082
-28.903,-50.818,996.966,0.083,-0.476,-0.005
-31.325,-51.328,997.724,-0.179,-0.561,-0.009
-33.167,-53.165,999.491,-0.370,-0.685,0.018
-29.274,-53.865,998.080,-0.417,-0.709,-0.035
-26.693,-52.859,998.275,-0.326,-0.788,-0.059
-27.144,-53.013,998.971,-0.280,-0.764,0.000
-29.840,-52.978,998.898,-0.281,-0.762,-0.065
-29.637,-53.803,1000.773,-0.274,-0.848,-0.076
-27.168,-54.073,1000.295,-0.323,-0.744,-0.067
-27.521,-54.291,999.629,-0.393,-0.686,-0.066
-28.097,-55.560,999.668,-0.418,-0.692,-0.095
-27.978,-56.077,998.578,-0.305,-0.598,-0.142
-27.997,-55.885,997.957,-0.200,-0.561,-0.052
-28.000,-54.000,998.000,-0.140,-0.560,0.000
-28.031,-52.062,998.095,-0.070,-0.552,-0.058
-27.866,-53.148,997.075,-0.119,-0.661,-0.128
-28.710,-55.667,997.781,-0.154,-0.726,-0.145
-28.459,-55.554,999.320,-0.111,-0.674,-0.137
-26.343,-55.083,998.475,-0.044,-0.736,-0.141
-27.549,-56.205,999.216,0.015,-0.763,-0.140
-29.033,-55.938,998.911,0.155,-0.695,-0.140
-29.860,-55.089,998.880,0.341,-0.634,-0.139
-31.175,-53.396,1000.137,0.369,-0.621,-0.147
-29.516,-52.652,998.381,0.225,-0.646,-0.092
-28.674,-53.341,997.696,0.045,-0.603,-0.063
-27.014,-52.587,997.690,0.160,-0.682,-0.059
-28.102,-53.606,998.432,0.294,-0.665,0.032
-32.265,-55.018,1000.074,0.286,-0.560,0.064
-29.000,-53.000,998.000,0.420,-0.700,-0.070
-26.720,-50.148,995.932,0.443,-0.713,-0.209
-29.876,-51.625,997.944,0.184,-0.681,-0.115
-32.910,-55.655,1000.616,-0.129,-0.724,-0.037
-31.038,-54.849,999.968,-0.010,-0.654,-0.117
-24.978,-52.245,998.695,0.310,-0.631,-0.142
-25.821,-52.076,1000.332,0.331,-0.625,-0.134
-27.977,-51.944,999.881,0.199,-0.634,-0.064
-26.979,-51.025,999.002,0.077,-0.697,-0.065
-28.578,-52.277,998.409,-0.028,-0.700,-0.086
-29.707,-55.312,996.699,-0.234,-0.738,-0.008
-30.924,-56.567,997.616,-0.245,-0.795,-0.010
-32.705,-57.112,997.306,-0.049,-0.732,0.020
-32.767,-55.047,997.306,0.129,-0.700,-0.039
-30.584,-52.905,999.176,0.290,-0.698,-0.144
-29.000,-54.000,999.000,0.140,-0.700,-0.070
-29.137,-56.539,999.823,-0.011,-0.707,-0.060
-27.418,-58.404,999.576,0.192,-0.645,-0.128
-27.288,-55.623,998.195,0.435,-0.597,-0.145
-28.400,-52.787,999.774,0.523,-0.509,-0.139
-27.561,-51.638,999.271,0.585,-0.501,-0.124
-26.927,-52.496,999.300,0.517,-0.464,0.056
-27.030,-55.159,1001.036,0.269,-0.347,0.211
-27.067,-56.022,999.229,0.453,-0.414,0.084
-25.929,-54.022,997.118,0.922,-0.381,-0.054
-28.663,-50.012,996.822,0.977,-0.306,-0.085
-34.109,-52.125,996.786,0.810,-0.493,-0.045
-34.671,-54.189,996.794,0.756,-0.705,-0.134
-33.804,-52.624,997.185,0.648,-0.661,-0.206
-31.312,-51.686,999.480,0.476,-0.553,-0.139
-26.000,-48.000,1002.000,0.560,-0.560,-0.280
-25.571,-46.908,1002.030,0.639,-0.499,-0.302
-28.444,-47.069,1002.561,0.564,-0.490,-0.159
-29.732,-47.468,1003.279,0.574,-0.426,-0.136
-29.832,-47.906,1001.539,0.507,-0.290,-0.146
-28.637,-46.715,998.906,0.350,-0.275,-0.113
-30.922,-48.632,997.867,0.066,-0.187,0.033
-34.084,-49.996,998.029,-0.146,-0.220,0.067
-33.125,-49.102,998.044,-0.199,-0.345,0.065
-32.104,-47.969,997.177,-0.471,-0.399,0.130
-31.807,-50.009,996.278,-0.857,-0.514,0.182
-32.924,-55.215,994.672,-1.073,-0.632,0.214
-34.552,-57.509,993.736,-0.777,-0.737,0.051
-33.158,-56.381,995.532,-0.301,-0.659,0.021
-29.520,-53.598,995.968,-0.126,-0.650,0.062
-29.000,-53.000,997.000,-0.070,-0.840,-0.070
-30.072,-54.821,999.704,-0.075,-0.844,-0.131
-29.117,-55.102,1000.820,0.027,-0.883,-0.203
-29.123,-54.976,1001.005,0.124,-0.903,-0.169
-28.663,-54.697,1000.285,0.184,-0.756,-0.156
-29.734,-53.572,999.743,0.341,-0.683,-0.217
-31.036,-52.778,1000.016,0.435,-0.603,-0.111
-29.883,-50.810,999.976,0.493,-0.484,-0.071
-28.145,-49.059,999.090,0.493,-0.484,-0.072
-27.521,-48.295,998.754,0.439,-0.555,-0.065
-30.362,-47.425,999.310,0.304,-0.551,-0.078
-30.659,-50.132,997.400,0.038,-0.621,-0.058
-29.699,-52.604,997.154,-0.090,-0.750,-0.097
-28.416,-51.668,997.870,0.057,-0.767,-0.151
-28.364,-52.211,996.962,0.141,-0.775,-0.132
-32.000,-53.000,998.000,0.140,-0.840,-0.070
-31.309,-52.171,998.837,0.148,-0.907,-0.066
-30.715,-51.190,1000.471,0.081,-0.870,-0.076
-30.837,-50.869,1001.090,0.070,-0.784,-0.060
-29.109,-51.132,1000.637,0.078,-0.771,-0.099
-29.295,-50.706,1000.893,0.209,-0.756,-0.166
-30.143,-49.812,1001.013,0.383,-0.681,-0.219
-29.928,-48.902,1000.932,0.498,-0.628,-0.206
-29.009,-47.131,999.125,0.501,-0.629,-0.143
-29.739,-46.644,998.826,0.274,-0.632,-0.140
-30.644,-48.958,998.513,-0.019,-0.623,-0.101
-31.680,-51.280,996.911,-0.280,-0.665,-0.048
-31.902,-52.262,996.880,-0.207,-0.710,-0.091
-32.424,-51.682,997.127,-0.161,-0.705,-0.043
-34.128,-50.991,999.455,-0.294,-0.779,-0.001
-33.000,-52.000,1001.000,-0.350,-0.700,0.000
-31.201,-54.515,1000.956,-0.477,-0.566,0.067
-30.155,-57.451,1000.521,-0.469,-0.523,0.027
-29.946,-58.289,999.187,-0.188,-0.423,-0.048
-30.198,-57.496,1000.465,0.385,-0.423,-0.086
-31.596,-56.797,996.645,0.536,-0.275,-0.034
-30.100,-57.246,995.950,0.419,-0.218,0.101
-25.840,-59.200,1003.403,0.489,-0.117,0.218
-26.881,-62.689,1002.334,0.471,0.199,0.282
-25.778,-65.292,1001.172,1.113,0.197,0.177
-24.094,-60.945,1003.732,1.889,0.426,0.036
-26.905,-54.204,999.628,2.155,0.655,-0.046
-28.844,-53.260,998.072,2.310,0.609,-0.074
-32.039,-53.878,1000.235,2.548,0.633,-0.077
-32.849,-51.608,997.363,2.914,0.541,-0.156
-32.000,-51.000,995.000,3.010,0.420,-0.280
-32.847,-51.378,995.042,3.234,0.233,-0.410
-34.280,-46.706,994.794,3.463,0.192,-0.385
-36.191,-42.951,995.554,3.235,0.175,-0.291
-34.980,-43.335,995.742,2.888,-0.080,-0.279
-33.702,-42.401,996.120,2.558,-0.263,-0.290
-32.670,-40.475,997.147,2.654,-0.377,-0.371
-32.035,-36.619,998.103,2.873,-0.500,-0.423
-32.937,-32.216,999.009,2.685,-0.622,-0.484
-34.351,-30.955,998.768,2.290,-0.690,-0.507
-36.968,-31.547,1000.374,1.698,-0.745,-0.427
-35.519,-32.697,1000.115,1.198,-0.787,-0.433
-33.306,-32.975,998.223,0.934,-0.741,-0.373
-32.894,-33.179,999.452,0.572,-0.690,-0.242
-33.115,-34.137,999.979,0.145,-0.708,-0.119
-33.000,-35.000,1000.000,-0.350,-0.770,-0.000
-31.061,-37.445,1000.066,-0.966,-0.829,0.061
-32.315,-41.091,999.266,-1.354,-0.899,0.126
-34.161,-43.392,998.548,-1.426,-0.910,0.147
-36.041,-44.560,999.387,-1.322,-0.917,0.119
-34.841,-45.056,999.709,-1.114,-0.888,0.034
-31.655,-45.115,998.700,-1.050,-0.834,0.002
-33.165,-47.236,997.976,-1.047,-0.840,-0.004
-33.998,-49.873,997.988,-0.987,-0.838,-0.068
-34.112,-50.890,997.996,-0.831,-0.899,-0.065
-32.669,-50.691,998.271,-0.562,-0.881,-0.121
-32.072,-48.584,999.652,-0.417,-0.787,-0.121
-33.463,-48.249,999.611,-0.278,-0.756,-0.031
-32.648,-49.036,1000.384,-0.208,-0.669,0.008
-31.839,-47.750,1000.855,-0.198,-0.632,-0.008
-30.000,-47.000,999.000,-0.070,-0.630,-0.070
-30.579,-48.581,998.930,-0.067,-0.508,-0.013
-32.888,-50.897,998.469,0.005,-0.468,0.018
-32.424,-49.940,996.941,0.238,-0.545,-0.049
-31.798,-48.371,997.080,0.471,-0.560,-0.078
-32.309,-47.482,998.353,0.566,-0.561,-0.062
-33.098,-45.749,998.873,0.469,-0.564,-0.083
-33.003,-47.228,997.973,0.498,-0.637,-0.141
-33.902,-49.864,998.881,0.560,-0.639,-0.078
-34.246,-51.511,999.900,0.553,-0.507,-0.005
-33.145,-53.628,1000.341,0.627,-0.460,0.003
-32.776,-53.419,1001.573,0.908,-0.304,-0.023
-30.943,-50.591,1001.541,1.455,-0.173,-0.116
-30.173,-48.576,1000.857,1.812,-0.101,-0.120
-32.344,-47.926,1002.353,1.813,0.096,0.020
-33.000,-47.000,1003.000,1.820,0.140,-0.000
-31.299,-45.219,1000.230,1.826,0.186,-0.141
-30.436,-44.759,1000.611,1.801,0.370,0.003
-33.514,-45.350,1000.088,1.924,0.487,0.124
-35.064,-43.755,998.075,2.180,0.460,-0.035
-31.550,-38.376,999.257,2.498,0.414,-0.183
-31.481,-30.342,997.120,2.556,0.408,-0.202
-34.176,-28.089,994.985,2.130,0.185,-0.137
-36.737,-29.071,995.066,1.704,-0.122,-0.200
-39.797,-27.851,993.992,1.364,-0.311,-0.286
-38.882,-29.626,994.550,0.870,-0.490,-0.225
-37.423,-29.041,994.791,0.500,-0.671,-0.213
-38.881,-28.195,995.108,0.186,-0.856,-0.185
-40.163,-30.592,996.350,-0.296,-1.034,-0.132
-38.570,-29.717,998.384,-0.773,-1.217,-0.139
-36.000,-30.000,1000.000,-1.330,-1.330,-0.070
-35.176,-34.312,999.891,-1.951,-1.332,0.053
-33.426,-38.031,1000.941,-2.329,-1.328,0.135
-33.250,-41.463,1000.065,-2.384,-1.332,0.107
-34.452,-43.714,1000.528,-2.178,-1.313,0.050
-33.505,-42.543,1002.023,-1.962,-1.212,0.087
-32.971,-44.926,1000.609,-1.881,-1.101,0.051
-33.014,-46.967,1001.152,-1.894,-1.045,0.001
-33.063,-46.810,1002.943,-1.957,-0.924,0.066
-30.770,-51.065,1002.423,-1.924,-0.733,0.076
-28.644,-53.978,1000.276,-1.690,-0.645,0.063
-30.208,-57.063,999.739,-1.233,-0.575,0.077
-31.371,-57.285,999.523,-0.614,-0.419,0.062
-32.264,-54.259,998.843,-0.074,-0.322,0.080
-31.788,-52.632,998.974,0.164,-0.191,0.057
-31.000,-49.000,998.000,0.350,-0.210,-0.070
-32.648,-47.943,997.925,0.487,-0.341,-0.080
-35.159,-47.986,997.496,0.513,-0.393,-0.050
-37.211,-48.640,996.235,0.732,-0.454,-0.130
-35.967,-48.420,997.986,0.930,-0.357,-0.111
-34.740,-46.454,998.850,1.168,-0.378,-0.068
-33.587,-45.472,999.199,1.557,-0.305,-0.174
-33.131,-39.442,1001.169,1.835,-0.137,-0.283
-35.893,-35.087,1002.904,1.839,-0.147,-0.219
-34.664,-34.310,1003.869,1.390,0.036,-0.142
-32.958,-33.866,1003.534,0.927,0.074,-0.115
-32.673,-37.905,1001.107,0.779,0.155,0.021
-31.902,-40.681,999.381,0.787,0.345,0.087
-33.390,-39.202,1000.225,0.862,0.350,0.184
-31.456,-35.401,999.847,0.814,0.435,0.284
-30.000,-34.000,999.000,0.420,0.420,0.280
-34.978,-37.399,996.610,-0.145,0.189,0.407
-40.403,-40.465,993.216,-0.365,-0.134,0.348
-40.176,-41.415,993.492,-0.264,-0.307,0.162
-38.629,-40.190,993.405,-0.170,-0.428,0.130
-40.872,-40.457,992.921,-0.112,-0.643,0.002
-39.136,-40.656,994.155,0.041,-0.799,-0.174
-37.042,-37.849,994.002,0.142,-0.922,-0.287
-38.894,-37.970,995.747,0.139,-1.166,-0.350
-39.720,-36.481,999.247,0.067,-1.436,-0.300
-40.705,-37.848,1001.640,-0.312,-1.553,-0.254
-36.918,-45.940,1000.674,-0.404,-1.681,-0.358
-32.767,-45.309,997.584,-0.219,-1.427,-0.443
-33.279,-41.144,998.842,-0.326,-1.034,-0.388
-34.291,-39.791,1002.536,-0.448,-0.881,-0.163
-37.000,-40.000,1005.000,-0.910,-0.630,0.140
-34.032,-45.240,1004.381,-1.280,-0.675,0.159
-28.505,-47.419,1001.635,-0.869,-0.698,0.065
-28.353,-45.996,999.682,-0.433,-0.469,0.115
-30.293,-46.709,997.644,-0.320,-0.412,0.150
-34.893,-48.679,996.753,-0.385,-0.432,0.122
-37.085,-48.888,996.852,-0.414,-0.510,0.059
-37.034,-50.316,995.985,-0.342,-0.563,0.072
-37.084,-56.537,996.930,-0.105,-0.624,0.013
-35.956,-59.405,996.350,0.565,-0.650,-0.180
-36.844,-55.515,996.323,1.487,-0.499,-0.257
-36.445,-48.599,1000.313,2.237,-0.316,-0.349
-36.062,-42.222,1000.048,2.540,-0.296,-0.463
-35.530,-35.934,1000.887,2.583,-0.356,-0.496
-33.974,-30.492,1004.105,2.311,-0.262,-0.483
-36.000,-31.000,1000.000,1.820,-0.280,-0.420
-36.217,-32.974,996.893,1.619,-0.417,-0.420
-36.114,-32.249,998.007,1.566,-0.327,-0.340
-39.363,-32.279,997.152,1.458,-0.239,-0.160
-39.338,-33.414,996.501,1.357,-0.373,-0.174
-37.679,-30.092,995.359,1.268,-0.551,-0.193
-39.666,-26.967,996.598,0.627,-0.645,-0.028
-40.937,-31.431,999.069,-0.340,-0.706,0.073
-38.256,-34.037,998.108,-0.759,-0.828,0.072
-36.031,-33.644,997.811,-0.830,-0.962,0.015
-37.119,-36.461,998.034,-0.938,-0.991,0.017
-38.738,-40.367,997.561,-1.261,-0.968,0.152
-36.433,-42.494,998.236,-1.238,-1.007,0.060
-33.342,-39.711,999.199,-0.901,-1.061,-0.095
-33.067,-36.898,1000.171,-0.931,-1.045,-0.063
-34.000,-39.000,1001.000,-1.050,-1.050,-0.070
-35.817,-41.749,1001.005,-1.173,-1.119,-0.074
-35.612,-42.790,1000.997,-1.210,-1.035,-0.064
-33.575,-43.596,1000.758,-1.122,-0.878,-0.080
-32.767,-44.163,1000.943,-0.911,-0.794,-0.038
-33.306,-43.989,1000.362,-0.576,-0.632,0.011
-34.218,-45.548,998.576,-0.399,-0.559,-0.001
-36.243,-48.202,998.010,-0.429,-0.556,0.080
-38.977,-50.828,998.021,-0.558,-0.492,0.144
-36.120,-51.446,997.920,-0.378,-0.498,0.027
-33.318,-48.855,997.924,0.097,-0.401,-0.052
-35.582,-47.026,997.949,0.552,-0.322,-0.107
-35.734,-44.779,999.719,0.933,-0.380,-0.164
-36.559,-42.385,999.315,1.179,-0.448,-0.235
-38.097,-40.775,996.766,1.262,-0.576,-0.281
-38.000,-40.000,997.000,1.260,-0.560,-0.280
-37.244,-38.588,997.005,1.379,-0.547,-0.342
-35.944,-33.541,998.120,1.397,-0.628,-0.357
-36.437,-29.705,1000.493,1.091,-0.613,-0.319
-34.464,-28.712,1000.422,0.711,-0.691,-0.230
-33.059,-29.330,999.666,0.341,-0.804,-0.221
-35.619,-30.332,1000.055,-0.112,-0.845,-0.181
-37.072,-34.463,999.982,-0.594,-0.838,0.012
-37.973,-38.936,999.992,-0.901,-0.838,0.070
-37.289,-37.425,999.386,-0.826,-0.852,0.074
-37.126,-36.845,997.706,-0.627,-0.781,0.022
-39.623,-36.841,998.974,-0.747,-0.797,0.017
-38.854,-37.919,999.505,-1.060,-0.869,0.097
-33.053,-40.731,997.424,-1.323,-0.933,0.045
-30.003,-42.210,998.298,-1.303,-0.981,-0.006
-33.000,-43.000,999.000,-1.050,-0.980,-0.070
-35.826,-42.024,997.998,-0.867,-1.100,-0.133
-36.109,-42.849,998.713,-0.674,-1.144,-0.193
-35.913,-41.977,998.948,-0.632,-1.062,-0.195
-35.847,-40.841,998.692,-0.789,-1.054,-0.076
-34.318,-42.722,999.049,-0.836,-1.033,-0.099
-34.248,-42.845,1000.264,-0.741,-0.963,-0.135
-34.951,-41.928,1001.018,-0.624,-0.906,-0.065
-33.139,-41.870,1000.999,-0.625,-0.846,-0.006
-32.116,-45.122,1001.037,-0.695,-0.776,0.065
-31.719,-47.722,1000.276,-0.641,-0.777,0.031
-33.401,-48.425,999.120,-0.380,-0.710,-0.017
-35.867,-49.280,998.785,-0.073,-0.578,0.014
-35.867,-48.655,998.847,0.248,-0.564,-0.016
-36.102,-46.540,997.857,0.610,-0.557,-0.084
-36.000,-43.000,998.000,0.840,-0.560,-0.210
-33.370,-41.177,998.132,0.967,-0.617,-0.279
-33.562,-39.530,997.601,0.995,-0.729,-0.315
-38.754,-39.029,999.316,0.938,-0.832,-0.422
-39.541,-40.857,999.195,0.874,-0.835,-0.375
-37.315,-38.457,997.336,0.842,-0.847,-0.371
-37.061,-34.184,998.318,0.930,-0.834,-0.412
-38.130,-31.853,998.998,0.816,-0.844,-0.268
-39.071,-30.098,998.969,0.325,-0.906,-0.208
-36.676,-29.773,999.767,-0.235,-0.961,-0.218
-34.445,-31.241,1000.094,-0.690,-1.040,-0.164
-33.627,-33.362,999.100,-1.068,-1.042,-0.104
-34.833,-36.844,999.052,-1.403,-1.081,-0.041
-36.178,-41.226,1000.197,-1.565,-1.114,0.018
-35.953,-43.043,999.875,-1.522,-1.041,0.077
-35.000,-42.000,999.000,-1.330,-1.050,0.070
-33.057,-40.952,998.093,-1.241,-1.051,0.003
-34.306,-42.808,997.890,-1.468,-1.089,0.047
-35.863,-46.758,997.917,-1.591,-1.176,0.058
-36.051,-48.447,997.655,-1.442,-1.193,-0.064
-35.884,-47.542,998.145,-1.265,-1.178,-0.051
-36.112,-46.929,999.075,-1.066,-1.101,-0.099
-34.717,-45.818,999.022,-0.741,-1.046,-0.212
-30.219,-42.263,1000.788,-0.432,-0.924,-0.147
-30.398,-41.322,1002.281,-0.454,-0.777,-0.079
-32.143,-45.465,999.758,-0.539,-0.812,-0.056
-31.604,-48.169,998.063,-0.339,-0.856,-0.116
-33.044,-47.297,997.634,-0.147,-0.813,-0.124
-35.538,-45.526,998.311,-0.151,-0.759,-0.057
-34.698,-44.979,998.947,-0.127,-0.775,-0.074
-34.000,-44.000,998.000,-0.000,-0.770,-0.070
-35.019,-42.067,998.790,0.067,-0.760,-0.066
-34.718,-43.240,999.256,0.070,-0.833,-0.116
-36.033,-45.044,998.096,0.092,-0.830,-0.192
-34.944,-44.494,997.680,0.220,-0.881,-0.212
-34.140,-43.892,998.085,0.273,-0.894,-0.213
-35.059,-43.981,999.157,0.207,-0.840,-0.205
-35.056,-42.857,998.929,0.367,-0.915,-0.214
-36.007,-41.090,998.023,0.430,-0.912,-0.279
-35.104,-40.241,998.639,0.245,-0.956,-0.226
-35.243,-38.745,999.737,0.122,-1.008,-0.200
-33.659,-36.844,999.698,-0.039,-0.926,-0.214
-33.783,-35.542,1000.016,-0.233,-0.914,-0.214
-36.501,-36.763,999.627,-0.522,-0.904,-0.186
-35.889,-40.606,999.062,-0.798,-0.914,-0.054
-36.000,-43.000,1000.000,-0.840,-0.910,-0.070
-33.514,-41.484,999.167,-0.773,-0.905,-0.082
-32.265,-38.977,998.854,-0.879,-0.919,-0.006
-35.147,-40.592,998.522,-1.254,-0.916,-0.001
-35.984,-42.956,997.009,-1.494,-1.098,-0.014
-34.263,-42.787,997.064,-1.561,-1.191,-0.104
-34.355,-43.405,998.222,-1.627,-1.104,-0.032
-36.034,-47.395,999.039,-1.678,-1.124,0.067
-35.063,-50.973,999.029,-1.375,-1.125,-0.063
-35.681,-48.762,998.875,-0.782,-1.011,-0.029
-35.807,-46.884,999.516,-0.656,-0.912,0.030
-33.676,-46.852,999.956,-0.748,-0.925,-0.055
-32.459,-45.198,999.702,-0.800,-0.860,-0.066
-30.118,-45.338,999.999,-0.831,-0.748,-0.076
-27.774,-47.353,998.638,-0.664,-0.781,-0.066
-28.000,-49.000,997.000,-0.350,-0.840,-0.070
-30.540,-47.429,998.688,0.031,-0.843,-0.134
-32.879,-45.313,999.335,0.108,-0.835,-0.144
-31.961,-43.974,998.035,-0.025,-0.848,-0.138
-30.964,-42.542,997.710,-0.108,-0.827,-0.140
-34.643,-45.501,998.109,-0.150,-0.866,-0.141
-35.798,-46.782,999.019,-0.125,-0.913,-0.138
-35.029,-44.908,997.917,0.013,-0.911,-0.141
-35.129,-44.126,998.812,0.077,-0.913,-0.143
-32.462,-41.540,1000.195,-0.098,-0.851,-0.083
-31.766,-40.572,998.831,-0.239,-0.836,-0.061
-32.357,-41.949,999.426,-0.339,-0.838,-0.076
-33.860,-43.999,999.826,-0.324,-0.848,-0.068
-35.307,-45.056,999.887,-0.270,-0.820,-0.062
-36.065,-45.122,997.397,-0.191,-0.771,0.011
-34.000,-46.000,995.000,-0.140,-0.840,-0.000
-30.884,-44.146,997.586,-0.325,-0.844,-0.016
-33.473,-46.354,998.889,-0.441,-0.872,0.122
-33.413,-49.908,999.425,-0.651,-1.007,0.082
-33.517,-47.079,999.608,-0.599,-1.066,-0.085
-33.406,-45.974,998.501,-0.221,-1.030,-0.154
-32.194,-46.041,999.242,-0.139,-0.963,-0.126
-35.137,-48.259,1000.012,-0.058,-0.909,-0.069
-33.259,-49.204,999.132,0.124,-0.972,-0.132
-32.434,-46.125,997.905,0.324,-1.001,-0.209
-34.737,-47.408,998.701,0.297,-0.907,-0.169
-34.752,-47.655,998.205,0.094,-0.961,-0.118
-32.817,-46.898,998.263,0.082,-0.952,-0.177
-30.725,-46.782,1000.528,0.048,-0.918,-0.202
-32.295,-45.987,1001.009,-0.000,-0.983,-0.131
-32.000,-46.000,1001.000,0.070,-0.910,-0.140
-30.141,-43.398,1000.068,0.196,-0.846,-0.203
-29.823,-42.098,1000.630,0.227,-0.788,-0.221
-31.038,-41.316,1000.635,0.165,-0.760,-0.165
-32.759,-41.746,998.961,0.098,-0.775,-0.134
-33.140,-45.408,998.947,-0.090,-0.769,-0.130
-34.218,-47.237,998.878,-0.323,-0.764,-0.054
-32.732,-48.032,999.064,-0.341,-0.694,-0.077
-29.152,-47.153,999.961,-0.154,-0.633,-0.141
-29.448,-45.277,1000.027,-0.065,-0.621,-0.083
-31.634,-44.333,999.818,-0.085,-0.680,-0.063
-32.056,-43.382,999.534,-0.023,-0.704,-0.071
-31.989,-43.017,997.917,-0.016,-0.715,-0.088
-32.058,-44.686,996.774,-0.086,-0.795,-0.156
-33.304,-46.037,997.099,-0.063,-0.844,-0.133
-35.000,-46.000,998.000,-0.070,-0.840,-0.140
-34.984,-48.554,998.947,-0.134,-0.777,-0.150
-35.747,-49.611,998.888,-0.149,-0.769,-0.078
-35.390,-47.070,999.836,-0.074,-0.739,-0.074
-32.134,-45.002,1001.391,0.073,-0.661,-0.060
-31.061,-43.561,1000.028,0.022,-0.606,-0.084
-32.181,-44.510,998.889,-0.075,-0.558,-0.051
-31.980,-47.158,998.983,0.009,-0.637,-0.002
-32.875,-47.991,998.080,0.129,-0.637,-0.067
-33.339,-48.079,997.810,0.308,-0.562,-0.066
-32.266,-46.849,998.535,0.427,-0.568,-0.122
-35.429,-45.346,999.330,0.357,-0.543,-0.116
-36.861,-46.853,999.835,0.225,-0.598,-0.054
-34.210,-46.511,998.381,0.234,-0.619,-0.075
-32.825,-44.810,998.160,0.370,-0.554,-0.074
-32.000,-43.000,999.000,0.420,-0.560,-0.140
-33.733,-40.169,998.091,0.360,-0.559,-0.088
-33.629,-40.641,997.965,0.337,-0.603,-0.044
-32.458,-40.795,997.745,0.372,-0.680,-0.132
-33.455,-38.943,997.958,0.287,-0.722,-0.131
-32.744,-37.545,997.495,0.171,-0.813,-0.152
-34.615,-36.918,996.833,0.021,-0.938,-0.125
-34.873,-37.065,995.931,-0.311,-1.060,-0.067
-34.778,-39.673,996.768,-0.797,-1.182,-0.006
-37.389,-43.538,999.769,-1.321,-1.251,0.023
-32.052,-44.606,999.123,-1.458,-1.273,-0.113
-26.077,-46.067,999.484,-1.315,-1.194,-0.095
-27.039,-47.772,1001.826,-1.401,-1.090,0.077
-29.595,-51.434,1003.231,-1.438,-1.134,0.143
-28.538,-53.930,1002.808,-1.042,-1.017,0.047
-26.000,-51.000,1002.000,-0.630,-0.840,-0.070
-27.715,-50.805,1002.157,-0.395,-0.727,-0.069
-28.098,-51.211,1000.377,-0.041,-0.571,-0.119
-29.253,-50.858,999.787,0.257,-0.579,-0.150
-32.415,-50.796,999.349,0.467,-0.487,-0.151
-30.924,-49.415,998.805,0.736,-0.417,-0.252
-28.769,-47.335,998.813,0.949,-0.404,-0.271
-30.255,-43.776,997.992,1.055,-0.355,-0.207
-34.664,-42.958,998.074,1.058,-0.545,-0.208
-37.699,-43.089,996.246,0.842,-0.627,-0.214
-38.317,-43.013,996.391,0.591,-0.705,-0.205
-36.560,-41.913,996.523,0.544,-0.836,-0.215
-34.341,-38.707,995.770,0.407,-0.844,-0.207
-35.425,-39.734,997.427,0.227,-0.954,-0.205
-34.721,-40.996,998.135,-0.057,-1.062,-0.126
-34.000,-41.000,1000.000,-0.350,-1.120,-0.140
-34.222,-41.954,1000.169,-0.400,-1.125,-0.217
-32.288,-42.369,999.691,-0.669,-1.075,-0.106
-32.408,-45.458,1000.567,-0.874,-0.971,-0.025
-33.544,-47.667,1000.894,-0.751,-0.843,0.040
-34.063,-46.230,1000.562,-0.550,-0.718,0.072
-32.408,-44.806,999.889,-0.402,-0.618,0.074
-31.039,-45.080,999.969,-0.424,-0.630,0.067
-32.863,-46.810,998.172,-0.484,-0.567,0.064
-33.884,-50.095,997.596,-0.562,-0.548,0.143
-33.852,-53.026,998.933,-0.420,-0.546,0.050
-30.589,-51.851,998.109,-0.019,-0.388,-0.042
-29.113,-50.895,997.858,0.395,-0.353,-0.108
-31.597,-50.711,997.875,0.707,-0.338,-0.125
-30.754,-48.693,998.088,0.858,-0.366,-0.074
-31.000,-47.000,998.000,0.980,-0.490,-0.210
-32.056,-43.596,997.011,1.049,-0.548,-0.221
-31.719,-41.034,997.160,1.010,-0.664,-0.194
-33.230,-41.585,995.971,0.897,-0.748,-0.230
-34.572,-42.212,996.525,0.777,-0.804,-0.172
-35.056,-41.517,998.336,0.650,-0.845,-0.132
-33.349,-39.562,999.245,0.536,-0.846,-0.147
-30.928,-39.046,1001.123,0.407,-0.915,-0.134
-31.889,-39.957,1001.100,0.224,-0.913,-0.008
-31.609,-40.017,1000.041,0.044,-0.904,0.012
-29.102,-40.444,999.861,-0.145,-0.918,-0.013
-30.248,-42.051,999.743,-0.314,-0.903,0.012
-33.253,-43.834,999.866,-0.496,-0.904,-0.011
-33.813,-45.219,999.951,-0.431,-0.796,0.009
-31.582,-43.563,999.981,-0.180,-0.692,-0.006
-30.000,-42.000,999.000,-0.140,-0.700,-0.000
-30.834,-44.515,997.175,-0.312,-0.758,0.067
-31.714,-47.236,996.801,-0.498,-0.828,0.029
-32.735,-49.595,997.394,-0.342,-0.848,-0.052
-32.759,-49.343,998.279,-0.093,-0.816,-0.092
-31.509,-47.460,999.145,0.062,-0.739,-0.175
-31.008,-46.682,1000.219,0.255,-0.696,-0.208
-32.146,-43.771,1001.023,0.432,-0.701,-0.214
-33.926,-42.920,1000.150,0.497,-0.702,-0.279
-34.066,-43.900,998.218,0.276,-0.642,-0.229
-34.003,-44.577,997.794,0.071,-0.657,-0.195
-33.592,-44.755,997.384,0.158,-0.739,-0.223
-32.671,-40.929,996.724,0.353,-0.643,-0.201
-33.437,-38.820,998.727,0.169,-0.662,-0.210
-35.240,-39.007,1000.001,-0.267,-0.782,-0.120
-35.000,-40.000,999.000,-0.490,-0.840,-0.070
-31.489,-42.782,998.083,-0.621,-0.908,-0.140
-30.389,-42.951,997.826,-0.592,-0.899,-0.085
-32.619,-44.169,998.501,-0.511,-0.965,-0.099
-32.398,-44.710,998.564,-0.456,-0.948,-0.159
-30.238,-42.159,997.619,-0.422,-0.920,-0.130
-30.298,-43.791,999.683,-0.518,-0.984,-0.140
-32.086,-47.202,1002.089,-0.639,-0.902,-0.061
-31.194,-48.927,1002.050,-0.703,-0.844,0.001
-29.070,-49.117,1001.238,-0.545,-0.735,-0.007
-30.093,-48.845,1000.022,-0.337,-0.630,0.016
-32.235,-49.155,999.829,-0.180,-0.641,-0.046
-33.502,-48.713,999.490,0.027,-0.605,-0.071
-34.053,-47.373,998.831,0.173,-0.539,-0.074
-34.074,-44.710,999.014,0.209,-0.485,-0.066
-36.000,-46.000,998.000,0.210,-0.490,-0.070
-37.985,-47.297,996.155,0.325,-0.490,-0.136
-36.733,-45.086,995.861,0.464,-0.530,-0.138
-34.572,-45.469,995.942,0.512,-0.616,-0.152
-33.594,-43.384,995.610,0.430,-0.643,-0.100
-32.261,-41.952,996.312,0.314,-0.766,-0.083
-29.280,-41.538,998.461,0.275,-0.941,-0.149
-26.831,-37.726,1000.103,0.283,-0.980,-0.140
-24.199,-36.032,1000.990,0.288,-1.040,-0.204
-23.471,-35.862,1000.272,0.023,-1.174,-0.226
-26.321,-37.599,999.511,-0.337,-1.190,-0.150
-27.120,-41.406,1000.486,-0.487,-1.224,-0.166
-27.016,-43.511,1000.974,-0.458,-1.257,-0.235
-27.055,-42.740,1002.635,-0.446,-1.158,-0.175
-29.702,-44.547,1004.015,-0.759,-1.114,-0.056
-34.000,-48.000,1003.000,-0.980,-0.980,-0.000
-34.054,-49.822,1002.976,-0.872,-0.788,0.006
-35.181,-49.165,1001.846,-0.595,-0.680,-0.055
-37.424,-45.761,999.202,-0.337,-0.492,-0.078
-38.755,-47.277,998.592,-0.422,-0.376,-0.049
-40.786,-45.501,997.044,-0.352,-0.335,0.038
-42.269,-44.735,995.803,-0.321,-0.373,0.061
-43.032,-50.282,994.897,-0.731,-0.496,-0.003
-43.036,-50.121,993.984,-0.912,-0.491,-0.001
-41.669,-49.327,994.826,-0.814,-0.537,-0.003
-38.244,-46.331,994.845,-0.574,-0.610,0.013
-35.402,-44.508,995.191,-0.468,-0.710,-0.068
-32.613,-44.716,996.274,-0.652,-0.954,-0.180
-30.678,-42.374,997.233,-0.686,-1.067,-0.226
-29.684,-41.958,998.125,-0.622,-1.134,-0.286
-26.000,-41.000,999.000,-0.560,-1.190,-0.280
-24.719,-41.784,999.897,-0.547,-1.183,-0.279
-27.368,-42.638,1000.589,-0.702,-1.251,-0.243
-28.003,-45.152,1002.038,-0.936,-1.227,-0.122
-25.422,-48.096,1003.404,-1.170,-1.159,-0.028
-23.473,-48.123,1003.976,-1.275,-1.070,0.017
-22.988,-50.576,1003.804,-1.135,-0.859,0.089
-24.147,-49.772,1002.964,-0.815,-0.690,0.141
-25.069,-47.948,1002.991,-0.573,-0.568,0.141
-23.879,-49.693,1002.428,-0.401,-0.498,0.094
-25.986,-50.059,999.349,-0.158,-0.452,0.003
-27.312,-50.635,996.060,0.046,-0.368,0.018
-27.478,-53.191,996.101,0.227,-0.363,-0.046
-31.318,-53.963,995.414,0.393,-0.454,-0.039
-34.362,-54.120,993.915,0.510,-0.579,0.072
-36.000,-54.000,994.000,0.700,-0.700,-0.070
-34.385,-49.730,993.877,0.892,-0.878,-0.142
-33.518,-46.459,995.406,0.932,-1.038,-0.176
-34.590,-44.825,996.948,0.826,-1.038,-0.270
-33.071,-43.631,998.917,0.739,-1.111,-0.291
-33.295,-43.965,1000.101,0.815,-1.203,-0.406
-32.649,-41.098,1001.330,0.932,-1.082,-0.499
-32.034,-39.000,1001.951,0.980,-0.976,-0.488
-32.066,-39.953,1001.006,0.861,-0.916,-0.428
-32.293,-39.989,1001.782,0.505,-0.848,-0.302
-35.736,-40.186,1001.959,0.213,-0.807,-0.266
-34.424,-38.949,1001.417,-0.009,-0.688,-0.272
-32.988,-37.874,1000.247,-0.415,-0.612,-0.139
-34.055,-39.641,999.792,-0.800,-0.646,-0.055
-32.938,-41.234,997.511,-0.999,-0.711,0.016
-35.000,-43.000,996.000,-1.050,-0.770,0.070
-36.128,-43.079,996.226,-1.105,-0.825,0.006
-35.646,-44.013,994.761,-1.182,-0.947,0.004
-37.330,-46.792,995.920,-1.214,-1.022,-0.044
-38.002,-46.932,995.211,-1.330,-1.112,-0.058
-36.203,-49.202,999.290,-1.447,-1.210,0.038
-36.447,-51.229,1001.058,-1.667,-1.192,0.063
-37.924,-52.056,993.680,-1.657,-1.345,-0.087
-33.433,-50.344,997.406,-1.214,-1.348,-0.217
-30.168,-47.385,1001.967,-1.245,-1.079,0.063
-28.163,-52.982,1001.673,-1.520,-1.086,0.214
-22.355,-54.995,1001.532,-1.188,-1.093,-0.011
-21.448,-51.635,1000.691,-0.550,-0.856,-0.055
-23.455,-50.800,1002.456,-0.103,-0.658,0.014
-24.089,-49.972,1001.709,0.087,-0.634,-0.008
-25.000,-51.000,1000.000,0.140,-0.630,-0.070
-26.680,-51.023,998.219,0.198,-0.566,-0.074
-28.103,-51.730,997.809,0.268,-0.556,-0.064
-27.205,-51.249,997.535,0.310,-0.584,-0.077
-27.564,-48.995,996.253,0.417,-0.705,-0.063
-30.039,-49.041,997.602,0.523,-0.781,-0.076
-32.445,-47.543,999.133,0.565,-0.768,-0.065
-32.981,-47.060,998.970,0.560,-0.769,-0.072
-33.790,-47.955,998.966,0.621,-0.768,-0.072
-37.339,-48.728,999.170,0.704,-0.783,-0.060
-38.556,-49.407,997.512,0.673,-0.675,-0.120
-36.458,-47.546,996.396,0.815,-0.608,-0.168
-34.232,-44.683,997.376,0.929,-0.653,-0.254
-36.047,-42.526,997.870,0.769,-0.740,-0.267
-39.293,-43.370,996.889,0.428,-0.942,-0.205
-39.000,-46.000,998.000,0.070,-1.050,-0.210
-36.546,-45.399,999.933,-0.003,-0.994,-0.209
-32.841,-42.633,999.836,-0.001,-0.919,-0.217
-30.855,-41.225,1000.585,0.037,-0.910,-0.166
-28.298,-40.649,1000.429,0.068,-0.903,-0.136
-24.814,-39.525,999.667,-0.061,-0.932,-0.126
-22.458,-39.024,1000.109,-0.271,-0.985,-0.059
-21.013,-40.134,1001.083,-0.665,-0.981,-0.071
-22.862,-42.724,1001.091,-1.092,-1.045,-0.011
-22.543,-46.978,1000.609,-1.410,-1.060,0.122
-21.258,-50.843,1002.206,-1.601,-1.034,0.154
-23.679,-53.740,999.504,-1.536,-1.094,0.101
-22.966,-55.407,997.906,-1.256,-1.115,0.069
-20.798,-54.929,1000.683,-0.973,-1.006,0.191
-23.554,-57.647,1000.913,-0.724,-0.903,0.275
-25.000,-60.000,1000.000,-0.280,-0.910,0.070
-25.573,-58.179,998.130,0.329,-0.799,-0.133
-28.597,-58.075,998.620,0.850,-0.646,-0.127
-28.865,-56.545,998.593,1.266,-0.629,-0.254
-29.890,-53.387,997.053,1.702,-0.626,-0.415
-31.334,-51.106,996.819,1.951,-0.636,-0.421
-32.403,-48.305,997.019,2.066,-0.623,-0.520
-34.049,-44.665,996.968,2.248,-0.636,-0.556
-33.962,-40.255,996.914,2.124,-0.760,-0.491
-35.553,-38.869,998.716,1.811,-0.834,-0.496
-36.801,-39.275,998.361,1.533,-0.877,-0.437
-37.270,-38.028,997.829,1.206,-0.961,-0.444
-36.144,-36.121,999.611,1.095,-0.980,-0.498
-35.024,-34.618,999.834,0.856,-0.984,-0.368
-36.017,-33.923,1000.154,0.257,-0.973,-0.277
-34.000,-33.000,1001.000,-0.210,-0.910,-0.280
-33.696,-31.917,1000.156,-0.680,-0.904,-0.224
-35.654,-34.515,999.831,-1.257,-0.958,-0.114
-36.604,-38.861,999.613,-1.657,-1.031,0.028
-37.004,-41.118,997.834,-2.027,-1.038,0.083
-34.972,-44.204,998.328,-2.325,-0.939,0.062
-32.550,-44.806,998.863,-2.387,-0.919,0.080
-32.081,-45.196,999.140,-2.540,-0.983,0.145
-34.768,-48.787,1001.012,-2.790,-0.980,0.146
-35.064,-49.995,998.663,-2.770,-1.032,0.025
-28.503,-49.628,997.333,-2.586,-1.038,-0.021
-24.249,-47.783,998.255,-2.411,-0.871,0.047
-26.215,-49.695,997.050,-2.235,-0.890,0.062
-26.847,-53.839,995.482,-2.154,-1.125,-0.035
-27.329,-54.010,995.133,-2.087,-1.270,-0.059
-30.000,-56.000,997.000,-2.030,-1.260,0.070
-27.679,-57.876,997.879,-2.036,-1.257,0.079
-24.884,-58.747,999.370,-1.905,-1.228,0.059
-25.443,-59.045,1000.591,-1.578,-1.094,0.080
-24.098,-59.596,1001.443,-1.196,-1.003,0.080
-24.540,-61.532,1003.561,-0.847,-0.832,0.175
-24.581,-60.711,1003.829,-0.466,-0.670,0.105
-20.693,-61.086,1002.913,-0.035,-0.467,-0.002
-18.938,-60.248,1001.156,0.450,-0.156,0.003
-21.224,-57.226,999.962,0.949,-0.072,-0.060
-24.632,-57.157,999.997,1.342,-0.031,-0.072
-28.306,-55.934,999.264,1.645,0.037,-0.073
-30.582,-54.703,998.425,1.807,0.119,-0.064
-29.731,-55.167,997.812,1.945,0.239,-0.078
-31.448,-54.782,998.068,2.220,0.289,-0.063
-32.000,-51.000,998.000,2.590,0.420,-0.070
-28.397,-44.861,998.720,2.964,0.553,-0.195
-27.102,-39.599,999.563,3.156,0.492,-0.262
-27.440,-35.181,996.704,2.977,0.204,-0.305
-31.816,-36.858,995.717,2.358,-0.040,-0.208
-33.886,-41.256,995.503,1.779,-0.220,-0.132
-31.716,-40.422,995.107,1.472,-0.471,-0.132
-33.153,-37.849,997.165,1.087,-0.562,-0.067
-33.143,-36.982,998.015,0.722,-0.620,-0.070
-31.243,-37.770,997.899,0.474,-0.793,-0.064
-31.205,-38.637,998.420,0.235,-0.994,-0.121
-33.820,-39.657,999.456,-0.013,-1.077,-0.137
-35.178,-39.829,999.863,-0.233,-1.027,-0.181
-35.329,-38.600,1000.007,-0.402,-1.076,-0.314
-38.577,-37.995,999.924,-0.589,-1.119,-0.353
-41.000,-39.000,999.000,-0.770,-1.120,-0.350
-41.148,-40.843,998.100,-1.059,-1.185,-0.285
-39.559,-41.065,997.805,-1.482,-1.153,-0.287
-37.947,-41.326,998.491,-1.895,-1.059,-0.202
-35.202,-43.155,998.860,-2.350,-1.072,-0.117
-32.198,-46.262,998.851,-2.682,-1.150,-0.139
-31.923,-48.143,998.930,-2.725,-1.194,-0.051
-29.778,-48.034,999.054,-2.734,-1.189,-0.075
-28.047,-49.818,999.961,-2.798,-1.190,-0.075
-26.711,-51.666,999.996,-2.762,-1.146,-0.053
-23.169,-53.359,999.930,-2.531,-1.017,-0.131
-20.907,-54.272,999.260,-2.104,-0.963,-0.135
-22.078,-54.151,998.713,-1.756,-0.993,-0.149
-26.206,-57.157,998.966,-1.545,-0.963,-0.131
-26.753,-58.965,999.085,-1.289,-0.902,-0.147
-25.000,-57.000,1000.000,-1.050,-0.840,-0.140
-24.972,-55.907,1000.017,-0.807,-0.720,-0.071
-25.502,-57.385,1000.048,-0.604,-0.633,-0.085
-27.385,-58.899,999.220,-0.453,-0.638,0.020
-28.344,-58.676,998.711,-0.197,-0.598,0.064
-29.694,-57.494,998.640,0.126,-0.552,-0.027
-31.275,-57.146,997.843,0.399,-0.558,0.019
-33.235,-59.164,998.005,0.494,-0.482,0.072
-35.947,-59.187,997.098,0.673,-0.420,0.073
-34.549,-55.811,996.787,1.097,-0.425,-0.034
-33.105,-52.407,997.113,1.410,-0.405,-0.142
-32.528,-48.637,996.422,1.504,-0.489,-0.124
-31.889,-46.073,997.448,1.408,-0.601,-0.173
-31.731,-44.369,997.847,1.314,-0.642,-0.221
-29.780,-41.554,998.229,1.235,-0.712,-0.294
-31.000,-40.000,1000.000,0.910,-0.770,-0.280
-32.217,-41.676,999.184,0.533,-0.831,-0.086
-29.817,-41.958,999.339,0.327,-0.853,-0.107
-27.510,-38.488,1000.931,0.117,-0.817,-0.137
-27.361,-39.081,1000.109,-0.358,-0.907,0.018
-29.986,-41.767,1000.160,-0.887,-0.996,0.078
-29.520,-43.689,1000.864,-1.267,-0.980,0.062
-27.990,-48.346,998.849,-1.475,-1.058,-0.005
-28.912,-50.898,998.869,-1.409,-1.059,-0.004
-29.868,-52.609,1000.098,-1.340,-0.927,0.014
-29.614,-53.193,998.558,-1.249,-0.904,-0.059
-28.633,-53.842,997.006,-1.130,-0.910,-0.063
-31.889,-57.667,997.026,-1.100,-0.915,-0.096
-32.273,-57.560,998.276,-0.902,-0.896,-0.155
-28.681,-56.994,997.790,-0.667,-0.833,-0.224
-30.000,-55.000,997.000,-0.420,-0.840,-0.280
-31.912,-52.799,997.897,-0.275,-0.844,-0.219
-32.068,-54.928,998.015,-0.352,-0.829,-0.201
-31.558,-53.422,997.870,-0.247,-0.889,-0.244
-30.085,-50.370,997.605,-0.023,-0.894,-0.330
-28.598,-46.462,998.403,0.085,-0.816,-0.323
-29.275,-46.746,1000.218,-0.165,-0.859,-0.180
-28.844,-50.089,999.959,-0.581,-0.912,-0.141
-27.018,-49.905,999.990,-0.635,-0.973,-0.142
-27.833,-53.205,999.309,-0.621,-1.003,-0.088
-27.972,-54.883,998.437,-0.611,-0.869,-0.011
-28.230,-56.010,999.641,-0.452,-0.844,-0.026
-27.353,-56.764,999.411,-0.249,-0.797,-0.091
-27.424,-54.457,999.029,0.005,-0.668,-0.054
-29.081,-55.209,1000.162,0.157,-0.627,-0.085
-28.000,-55.000,1000.000,0.350,-0.630,-0.210
-27.130,-53.302,999.034,0.717,-0.640,-0.275
-26.567,-51.266,999.057,0.960,-0.523,-0.288
-29.407,-51.900,998.249,0.951,-0.476,-0.240
-31.551,-53.313,997.572,0.883,-0.493,-0.195
-30.792,-50.836,998.156,0.954,-0.505,-0.222
-30.931,-48.474,999.109,1.066,-0.569,-0.197
-29.989,-45.836,998.964,0.960,-0.560,-0.136
-31.827,-45.877,998.947,0.590,-0.624,-0.075
-31.682,-46.381,999.838,0.310,-0.638,-0.056
-29.529,-44.787,999.945,0.198,-0.656,-0.131
-31.770,-46.467,999.395,0.041,-0.739,-0.108
-33.314,-48.996,998.262,0.013,-0.645,-0.058
-32.749,-50.191,997.963,0.093,-0.653,-0.074
-31.888,-48.475,997.970,0.146,-0.698,-0.069
-32.000,-45.000,998.000,0.070,-0.700,-0.070
-32.980,-46.373,998.851,-0.340,-0.825,-0.014
-31.844,-50.274,999.724,-0.780,-0.851,0.063
-29.004,-51.760,1000.095,-0.812,-0.835,0.043
-27.276,-52.150,999.153,-0.532,-0.824,-0.051
-27.117,-51.668,999.055,-0.256,-0.734,-0.054
-28.325,-50.904,1000.097,-0.130,-0.699,0.010
-29.001,-51.015,999.994,-0.222,-0.700,-0.002
-28.978,-50.999,1000.029,-0.346,-0.701,-0.003
-29.113,-51.615,999.155,-0.398,-0.652,0.058
-28.670,-53.835,998.844,-0.492,-0.569,0.080
-30.421,-57.081,998.014,-0.406,-0.565,0.058
-33.083,-60.230,996.039,-0.147,-0.537,0.086
-34.095,-58.759,996.031,0.309,-0.476,0.040
-32.613,-51.965,996.019,0.826,-0.502,-0.086
-31.000,-49.000,997.000,0.840,-0.630,-0.140
-33.559,-50.728,997.137,0.531,-0.758,-0.141
-34.068,-52.400,996.708,0.388,-0.820,-0.172
-29.749,-53.790,997.551,0.633,-0.892,-0.314
-27.006,-50.470,998.296,1.069,-0.894,-0.330
-27.167,-45.410,1000.984,1.340,-0.806,-0.269
-26.792,-43.740,1001.747,1.379,-0.766,-0.272
-25.967,-41.825,1001.073,1.008,-0.772,-0.127
-25.974,-40.913,1002.938,0.455,-0.835,-0.067
-26.716,-43.324,1001.608,0.122,-0.851,-0.088
-27.779,-45.574,999.761,-0.081,-0.793,0.032
-28.634,-46.543,999.951,-0.197,-0.713,0.082
-31.378,-47.022,999.703,-0.197,-0.552,0.067
-31.478,-45.281,999.963,-0.106,-0.493,0.062
-30.085,-43.975,998.702,-0.084,-0.576,-0.011
-33.000,-45.000,997.000,-0.350,-0.700,0.000
-33.304,-47.536,996.089,-0.615,-0.827,0.072
-31.887,-49.345,995.849,-0.599,-0.892,-0.023
-32.685,-47.410,996.356,-0.463,-0.954,-0.138
-33.107,-47.736,997.347,-0.434,-1.008,-0.110
-32.664,-49.272,997.913,-0.674,-1.078,-0.058
-30.295,-49.019,998.034,-0.854,-1.129,-0.077
-27.920,-50.084,999.110,-0.844,-1.197,-0.066
-28.833,-50.883,999.987,-1.090,-1.259,-0.004
-30.195,-54.051,999.971,-1.394,-1.258,0.010
-28.076,-56.132,999.853,-1.181,-1.238,-0.082
-26.025,-51.868,1000.052,-0.683,-1.071,-0.210
-26.288,-50.199,1001.567,-0.566,-0.936,-0.175
-27.382,-54.312,1001.596,-0.624,-0.905,-0.148
-27.950,-54.608,999.772,-0.362,-0.912,-0.220
-27.000,-51.000,999.000,-0.000,-0.840,-0.280
-28.525,-49.894,998.098,0.146,-0.703,-0.351
-30.917,-51.382,997.952,-0.000,-0.753,-0.255
-30.100,-52.592,997.373,-0.182,-0.767,-0.177
-27.463,-50.745,996.450,-0.226,-0.804,-0.245
-25.709,-50.184,997.247,-0.342,-0.838,-0.153
-27.622,-51.096,998.108,-0.526,-0.860,-0.070
-29.009,-50.992,999.104,-0.553,-0.985,-0.145
-28.972,-50.174,1000.003,-0.368,-0.918,-0.142
-29.116,-47.372,999.257,-0.167,-0.896,-0.179
-29.125,-47.772,998.066,-0.118,-0.925,-0.291
-32.040,-50.923,997.696,-0.192,-0.895,-0.200
-32.568,-52.337,997.868,-0.178,-0.924,-0.142
-30.521,-51.653,998.045,-0.026,-0.891,-0.235
-29.882,-50.957,999.236,-0.009,-0.834,-0.192
-29.000,-50.000,1000.000,-0.070,-0.840,-0.070
-29.941,-47.331,999.916,-0.123,-0.904,-0.063
-28.170,-46.070,1000.265,-0.284,-0.911,-0.086
-25.902,-46.593,998.516,-0.515,-0.940,-0.014
-28.811,-50.302,997.615,-0.738,-1.022,-0.026
-27.649,-51.832,997.849,-0.735,-1.059,-0.080
-23.319,-49.648,998.097,-0.615,-1.037,-0.069
-24.232,-51.275,999.074,-0.715,-0.979,-0.066
-26.911,-55.649,999.921,-0.902,-1.043,0.059
-26.446,-58.961,1000.927,-0.840,-1.065,0.097
-24.499,-56.748,1000.240,-0.441,-0.997,-0.040
-23.703,-52.840,999.628,-0.112,-0.948,-0.076
-24.627,-51.746,999.701,-0.085,-0.891,-0.071
-26.630,-52.414,998.528,-0.165,-0.925,-0.066
-28.183,-54.201,997.999,-0.211,-0.898,-0.076
-29.000,-54.000,998.000,-0.140,-0.840,-0.140
-29.033,-53.079,997.961,0.038,-0.841,-0.202
-29.413,-52.864,998.068,0.204,-0.835,-0.223
-31.922,-53.667,997.634,0.110,-0.850,-0.161
-33.231,-53.593,998.340,-0.085,-0.825,-0.154
-30.795,-50.734,998.706,-0.024,-0.868,-0.248
-28.850,-48.856,997.847,-0.031,-0.911,-0.275
-30.159,-50.174,999.172,-0.301,-0.912,-0.204
-31.081,-51.956,1000.079,-0.366,-0.915,-0.203
-28.655,-51.374,998.899,-0.015,-0.798,-0.330
-26.899,-49.607,1000.238,0.186,-0.713,-0.328
-27.482,-48.526,1000.644,0.011,-0.688,-0.216
-28.652,-49.893,999.219,-0.102,-0.732,-0.226
-30.439,-51.062,998.799,-0.167,-0.765,-0.177
-29.697,-49.714,997.874,-0.306,-0.689,-0.059
-28.000,-48.000,998.000,-0.490,-0.700,-0.070
-27.936,-47.790,998.130,-0.562,-0.765,-0.074
-28.694,-49.616,997.071,-0.586,-0.771,-0.063
-28.929,-50.077,997.354,-0.742,-0.796,-0.078
-26.611,-50.262,997.882,-0.759,-0.893,-0.062
-26.295,-51.540,998.213,-0.805,-0.891,-0.077
-26.961,-53.492,1000.270,-0.822,-0.832,-0.066
-25.914,-53.871,998.823,-0.694,-0.843,-0.070
-25.045,-51.969,998.841,-0.698,-0.904,-0.010
-25.489,-55.148,999.466,-0.703,-0.927,0.076
-27.779,-55.648,997.989,-0.675,-0.845,0.014
-27.341,-52.205,1000.132,-0.509,-0.858,0.006
-27.526,-54.446,996.257,-0.393,-0.780,-0.030
-29.538,-54.390,995.956,-0.271,-0.703,-0.071
-31.358,-51.570,997.496,0.318,-0.878,-0.079
-33.000,-48.000,990.000,0.770,-1.190,-0.210
-32.673,-46.578,989.419,0.400,-1.564,-0.282
-37.465,-50.362,992.491,-0.459,-1.810,-0.264
-38.705,-50.838,993.996,-1.120,-2.114,-0.391
-33.029,-52.746,995.492,-1.524,-2.288,-0.536
-31.919,-57.689,998.512,-1.538,-2.205,-0.291
-29.015,-58.847,1003.956,-0.964,-2.152,-0.150
-27.043,-55.631,1004.969,-0.468,-1.939,-0.284
-27.194,-51.201,1004.965,-0.351,-1.695,-0.215
-22.907,-50.120,1005.641,-0.385,-1.467,-0.256
-20.886,-49.499,1007.426,-0.662,-1.165,-0.272
-20.833,-52.978,1007.081,-1.101,-0.862,-0.089
-19.041,-59.947,1005.137,-1.121,-0.578,0.064
-17.893,-62.118,1004.679,-0.694,-0.342,0.162
-19.350,-60.564,1002.691,-0.302,-0.021,0.224
-21.000,-56.000,1001.000,-0.140,0.140,0.350
-20.943,-52.933,997.516,-0.356,0.079,0.358
-22.280,-55.587,995.871,-0.800,0.028,0.341
-24.437,-59.831,995.568,-1.004,-0.089,0.336
-25.145,-61.442,994.014,-0.644,-0.174,0.187
-25.151,-60.297,993.860,0.074,-0.248,-0.014
-27.850,-57.115,994.053,0.675,-0.380,-0.262
-30.001,-53.850,995.077,0.993,-0.501,-0.349
-29.012,-53.897,995.045,0.991,-0.685,-0.346
-29.946,-54.965,995.499,0.809,-0.829,-0.412
-27.860,-54.501,997.444,0.698,-0.839,-0.423
-24.203,-52.959,998.117,0.739,-0.869,-0.402
-26.948,-51.180,999.769,0.766,-0.930,-0.284
-30.962,-49.528,1000.986,0.655,-0.888,-0.201
-31.908,-49.068,999.831,0.451,-0.835,-0.208
-29.000,-50.000,1000.000,0.140,-0.770,-0.140
-25.247,-50.022,1000.156,-0.063,-0.639,-0.075
-25.452,-50.529,999.023,-0.062,-0.669,-0.064
-26.896,-52.223,999.423,-0.144,-0.724,-0.082
-26.684,-53.689,999.647,-0.263,-0.676,-0.032
-25.509,-53.805,998.291,-0.279,-0.734,-0.010
-25.113,-52.861,997.986,-0.282,-0.763,-0.078
-27.215,-54.215,997.988,-0.279,-0.696,0.011
-29.000,-56.909,997.978,-0.280,-0.697,0.073
-27.553,-55.789,998.122,-0.240,-0.754,0.011
-25.821,-52.583,996.991,-0.068,-0.823,-0.039
-27.399,-51.840,997.855,0.062,-0.843,-0.122
-29.748,-52.227,999.035,0.065,-0.855,-0.136
-28.215,-53.445,997.564,0.075,-0.931,-0.156
-27.071,-53.958,998.381,0.064,-0.896,-0.216
-28.000,-54.000,1000.000,0.000,-0.840,-0.210
-26.344,-55.780,998.174,-0.119,-0.903,-0.153
-25.038,-56.195,999.587,-0.215,-0.877,-0.078
-24.635,-55.453,1002.136,-0.137,-0.746,-0.074
-23.254,-54.363,999.418,-0.011,-0.681,-0.041
-23.196,-54.256,1000.515,-0.021,-0.714,0.011
-24.266,-56.711,998.206,-0.069,-0.685,-0.004
-25.020,-59.083,999.331,0.091,-0.627,-0.000
-24.971,-58.160,999.332,0.396,-0.568,-0.061
-26.460,-56.953,997.852,0.700,-0.488,-0.186
-27.688,-56.390,1000.703,0.975,-0.541,-0.266
-25.107,-51.889,996.711,1.153,-0.557,-0.285
-24.134,-49.594,1000.738,1.356,-0.600,-0.276
-27.151,-50.179,994.680,1.351,-0.737,-0.284
-30.351,-51.262,999.560,0.990,-0.769,-0.274
-31.000,-52.000,997.000,0.770,-0.770,-0.210
-30.946,-48.661,996.628,0.826,-0.772,-0.203
-30.638,-44.841,1003.953,0.832,-0.764,-0.229
-28.011,-43.230,994.478,0.509,-0.809,-0.122
-26.625,-45.889,1008.412,0.022,-0.856,-0.051
-27.297,-48.748,995.103,-0.312,-0.829,-0.081
-26.542,-48.851,1005.870,-0.430,-0.844,-0.064
-23.861,-47.983,999.093,-0.419,-0.757,-0.073
-24.782,-49.756,998.854,-0.480,-0.631,-0.075
-26.836,-51.885,1006.387,-0.612,-0.683,0.042
-28.035,-52.954,985.968,-0.640,-0.747,0.097
-29.816,-54.880,1011.090,-0.625,-0.791,0.014
-28.002,-53.267,980.134,-0.630,-0.732,0.022
-28.306,-56.452,1012.981,-0.641,-0.700,0.082
-26.440,-57.868,987.387,-0.703,-0.699,0.063
-25.000,-59.000,997.000,-0.560,-0.770,-0.000
-26.177,-59.617,1012.146,-0.259,-0.846,-0.060
-24.888,-56.598,968.823,0.133,-0.818,-0.164
-24.659,-56.488,1048.743,0.525,-0.884,-0.280
-21.943,-49.903,923.267,0.531,-0.755,-0.261
-29.979,-60.348,1102.455,0.615,-0.838,-0.309
-23.315,-43.662,832.360,0.466,-0.645,-0.233
