acc_x[mg],acc_y[mg],acc_z[mg],gyro_x[dps],gyro_y[dps],gyro_z[dps]
-999.000,-109.000,51.000,-0.210,-0.490,-0.070
-1041.125,-114.758,55.151,-0.091,-0.692,-0.019
-946.171,-103.038,49.551,-0.057,-0.786,0.110
-1043.013,-112.501,55.405,-0.026,-0.944,0.168
-959.147,-102.111,52.675,0.209,-1.011,0.054
-1023.665,-109.428,56.769,0.416,-1.063,-0.124
-981.723,-106.551,55.116,0.501,-1.048,-0.132
-1000.435,-108.480,55.238,0.567,-1.130,-0.144
-998.943,-108.479,57.023,0.631,-1.193,-0.145
-986.123,-105.321,57.509,0.573,-1.130,-0.120
-1008.668,-107.637,58.680,0.528,-1.089,-0.247
-982.596,-106.152,56.798,0.383,-0.944,-0.280
-1005.737,-107.505,57.905,0.213,-0.770,-0.320
-988.982,-105.191,59.103,0.117,-0.670,-0.455
-1000.527,-106.480,57.555,0.161,-0.539,-0.492
-997.000,-109.000,54.000,0.280,-0.490,-0.490
-995.241,-112.523,53.002,0.161,-0.662,-0.322
-1001.117,-112.350,52.300,0.117,-0.908,-0.059
-991.050,-108.604,52.651,0.213,-1.147,0.095
-1001.615,-107.026,55.336,0.383,-1.377,0.168
-992.115,-104.005,56.414,0.529,-1.507,0.085
-999.367,-104.143,58.387,0.568,-1.534,-0.117
-995.143,-102.822,57.900,0.552,-1.382,-0.293
-994.439,-101.948,58.759,0.365,-1.136,-0.475
-995.621,-102.784,61.108,0.229,-0.958,-0.660
-993.630,-104.658,59.567,0.153,-0.690,-0.840
-999.669,-107.902,58.298,0.150,-0.377,-0.985
-994.488,-109.806,55.365,0.077,-0.251,-0.930
-997.112,-111.186,54.272,-0.113,-0.310,-0.812
-995.459,-109.679,56.076,-0.043,-0.446,-0.763
-997.000,-110.000,54.000,0.140,-0.700,-0.700
-998.354,-113.652,53.687,0.267,-1.012,-0.587
-997.060,-113.252,55.178,0.295,-1.207,-0.363
-995.866,-109.006,54.412,0.235,-1.395,-0.100
-995.234,-107.973,56.872,0.197,-1.503,0.072
-997.134,-107.293,59.493,0.233,-1.437,0.028
-994.340,-104.556,58.904,0.287,-1.395,-0.088
-995.130,-105.094,60.119,0.278,-1.318,-0.147
-995.126,-105.057,60.103,0.217,-1.073,-0.273
-994.776,-106.127,59.139,0.140,-0.809,-0.289
-995.677,-109.661,57.431,0.165,-0.709,-0.279
-996.447,-109.379,54.439,0.003,-0.691,-0.214
-996.648,-109.113,56.249,-0.192,-0.739,0.068
-995.695,-108.501,56.697,-0.117,-0.880,0.247
-996.181,-106.938,56.029,-0.243,-0.907,0.370
-997.000,-108.000,56.000,-0.350,-0.980,0.420
-996.151,-107.338,56.602,-0.282,-1.233,0.409
-995.813,-105.318,58.908,-0.326,-1.245,0.495
-995.991,-104.805,59.026,-0.395,-1.059,0.380
-995.657,-105.402,61.578,-0.446,-0.855,0.207
-995.771,-106.201,61.415,-0.542,-0.460,0.239
-994.758,-105.830,61.295,-0.744,-0.055,0.276
-996.199,-106.120,61.945,-0.846,0.309,0.206
-996.245,-107.961,61.055,-1.029,0.675,0.267
-993.708,-106.504,58.852,-1.241,0.947,0.411
-996.248,-106.152,57.927,-1.330,0.965,0.414
-996.230,-106.995,62.046,-1.489,0.866,0.438
-996.070,-103.455,54.983,-1.425,0.952,0.366
-995.324,-106.738,59.438,-1.519,0.880,0.254
-995.497,-107.283,61.379,-1.321,1.129,0.203
-999.000,-102.000,47.000,-0.910,1.540,0.210
-995.493,-105.332,54.448,-1.385,1.302,0.224
-995.916,-107.121,55.466,-1.562,1.265,0.129
-997.491,-107.477,50.440,-1.291,1.397,0.263
-996.648,-107.758,50.447,-1.236,1.170,0.395
-998.385,-106.983,47.476,-1.006,0.711,0.457
-997.701,-108.145,50.630,-0.705,0.163,0.580
-998.087,-106.859,48.790,-0.477,-0.237,0.638
-998.089,-106.002,50.598,-0.418,-0.544,0.824
-997.095,-105.983,53.980,-0.471,-0.589,0.963
-996.270,-106.106,53.873,-0.552,-0.452,1.032
-995.436,-105.391,53.412,-0.525,-0.406,1.050
-996.388,-104.992,51.003,-0.498,-0.433,1.084
-996.848,-104.740,51.314,-0.580,-0.404,1.232
-995.906,-104.030,52.087,-0.550,-0.441,1.252
-997.000,-105.000,52.000,-0.490,-0.630,1.190
-998.170,-104.203,50.152,-0.323,-0.694,1.190
-996.261,-103.734,50.628,-0.048,-0.790,1.180
-996.390,-104.725,51.019,-0.010,-0.936,1.315
-996.494,-104.597,51.919,-0.111,-1.023,1.628
-995.859,-101.752,55.202,-0.032,-1.042,1.662
-997.196,-101.380,57.467,-0.111,-0.957,1.707
-996.966,-102.997,57.857,-0.209,-0.825,1.746
-997.008,-101.983,54.246,-0.318,-0.577,1.798
-996.165,-104.259,53.002,-0.962,-0.478,2.178
-996.701,-106.466,52.328,-1.483,-0.543,2.348
-999.127,-108.232,52.356,-1.843,-0.603,2.805
-997.605,-108.435,52.872,-2.082,-0.820,3.526
-995.622,-105.010,51.957,-1.890,-1.013,3.976
-996.156,-103.950,53.055,-1.818,-0.965,4.401
-997.000,-103.000,51.000,-1.680,-0.910,4.690
-997.900,-102.896,50.761,-1.484,-0.860,4.927
-997.475,-102.641,50.806,-1.389,-0.721,5.229
-996.614,-100.428,48.684,-1.158,-0.720,5.474
-999.796,-100.087,49.622,-0.932,-0.864,5.594
-1000.369,-99.222,47.891,-0.657,-1.209,5.857
-998.801,-94.923,45.650,-0.471,-1.626,6.048
-998.990,-93.057,43.831,-0.578,-1.994,6.338
-998.069,-94.079,43.741,-0.887,-2.545,6.837
-997.898,-90.313,48.876,-1.056,-3.013,6.968
-997.930,-85.325,52.226,-0.968,-3.236,7.178
-997.399,-81.921,54.614,-0.763,-3.328,7.062
-996.415,-78.460,56.427,-0.384,-3.212,6.769
-997.475,-76.805,55.896,-0.309,-3.040,6.641
-997.838,-78.418,57.298,-0.418,-3.009,6.068
-997.000,-80.000,58.000,-0.210,-2.940,5.810
-998.818,-78.150,57.882,0.034,-2.917,5.712
-998.414,-79.255,58.814,0.313,-3.151,5.441
-997.582,-79.771,59.417,0.675,-3.312,5.286
-997.887,-75.749,60.753,0.994,-3.437,5.033
-997.877,-75.539,60.663,1.001,-3.471,4.834
-997.796,-77.190,60.076,0.687,-3.115,4.645
-997.009,-76.975,62.227,0.322,-2.703,4.550
-997.964,-76.992,64.850,0.015,-2.342,4.553
-997.220,-76.429,66.027,-0.069,-1.868,4.491
-997.243,-73.546,64.902,-0.077,-1.394,4.447
-998.142,-70.068,62.890,-0.030,-1.121,4.306
-997.634,-71.269,63.820,-0.011,-0.989,4.123
-997.924,-74.823,64.980,-0.090,-0.743,4.055
-996.878,-74.849,62.523,-0.161,-0.364,4.156
-998.000,-74.000,61.000,-0.420,-0.140,4.340
-999.025,-72.296,61.186,-0.458,-0.139,4.462
-999.430,-72.102,58.358,-0.147,-0.129,4.619
-1000.524,-74.964,54.208,0.027,-0.259,4.866
-998.328,-73.668,52.431,0.132,-0.666,5.053
-998.585,-71.327,53.869,0.245,-1.171,5.143
-1001.356,-69.385,56.544,0.293,-1.526,5.292
-1000.916,-66.892,58.087,0.435,-1.612,5.472
-1000.081,-66.121,58.960,0.562,-1.671,5.595
-998.361,-62.954,59.596,0.402,-1.761,5.566
-998.008,-59.595,62.535,0.240,-1.563,5.382
-999.890,-58.659,65.202,0.126,-1.118,5.229
-999.234,-59.575,64.794,-0.102,-0.767,4.956
-999.081,-59.707,66.850,-0.109,-0.456,4.587
-998.797,-57.737,66.497,0.010,-0.084,4.393
-997.000,-57.000,62.000,-0.000,0.210,4.270
-997.607,-56.872,60.925,-0.002,0.342,3.872
-1000.419,-58.535,61.127,-0.002,0.361,3.275
-1000.685,-58.714,60.522,0.032,0.282,3.048
-998.904,-57.849,59.075,0.108,0.130,3.145
-999.127,-59.751,57.520,0.171,0.039,3.272
-1000.262,-59.873,56.846,0.315,-0.115,3.496
-1002.126,-60.037,55.923,0.343,-0.290,3.883
-1001.255,-59.158,55.052,0.214,-0.410,4.251
-998.799,-58.462,54.867,0.340,-0.531,4.434
-1000.943,-61.413,55.318,0.722,-0.738,4.726
-1002.393,-61.657,53.752,0.924,-1.276,5.203
-1003.109,-60.367,53.438,0.884,-1.881,5.653
-1000.527,-56.065,57.367,0.959,-2.512,5.957
-996.861,-49.176,60.247,1.241,-2.980,6.096
-999.000,-47.000,61.000,1.540,-3.010,5.880
-999.150,-45.380,61.824,1.562,-2.956,5.433
-998.909,-43.362,62.839,1.453,-2.785,5.357
-998.258,-41.954,63.341,1.571,-2.656,5.403
-998.258,-40.111,65.177,1.564,-2.398,5.128
-1000.457,-40.204,65.655,1.257,-1.782,4.635
-999.587,-39.607,63.795,0.797,-1.318,4.286
-999.003,-36.782,66.302,0.399,-1.029,4.113
-998.139,-35.871,68.087,0.283,-0.728,3.746
-996.923,-38.591,66.237,0.230,-0.306,3.306
-997.514,-38.105,65.963,0.152,0.010,2.948
-998.289,-36.497,65.893,0.157,0.184,2.517
-999.079,-39.564,66.186,0.268,0.513,2.023
-998.766,-39.506,65.669,0.392,0.755,1.781
-999.173,-39.221,64.961,0.697,0.944,1.749
-1000.000,-41.000,63.000,1.120,1.120,1.820
-1000.656,-42.496,56.728,1.039,1.067,1.958
-1003.460,-45.866,55.882,0.607,0.991,1.895
-1003.164,-43.518,58.897,0.313,0.921,2.014
-1000.432,-38.913,58.905,0.337,0.727,2.336
-999.755,-37.683,61.073,0.595,0.606,2.479
-1000.110,-36.877,61.817,0.818,0.646,2.416
-1001.043,-37.021,61.007,1.072,0.703,2.229
-1000.134,-36.999,61.082,1.258,0.762,2.173
-999.624,-37.103,59.293,1.158,0.885,2.068
-1000.949,-35.790,58.960,1.052,0.960,1.956
-1000.009,-34.194,58.236,1.035,1.043,1.957
-1000.214,-33.893,56.027,0.926,1.159,1.782
-1001.081,-34.427,54.521,0.926,1.073,1.549
-1002.351,-37.525,52.795,0.886,0.874,1.471
-1004.000,-39.000,53.000,0.700,0.560,1.610
-1001.469,-37.309,54.730,0.803,0.298,1.914
-999.816,-35.945,56.468,1.014,0.228,2.142
-1000.831,-37.007,58.133,1.101,0.210,2.175
-1002.819,-38.835,60.307,1.109,0.416,2.208
-1001.957,-38.677,62.751,1.014,0.635,2.565
-999.690,-36.160,62.874,1.096,0.929,3.122
-1000.019,-31.708,63.070,1.344,1.361,3.285
-999.081,-30.852,63.134,1.340,1.724,3.155
-999.537,-32.853,60.494,1.251,1.997,3.188
-1000.763,-32.830,59.372,1.323,2.109,3.358
-1001.357,-34.015,56.918,1.261,2.283,3.498
-1004.173,-35.329,52.060,0.939,2.260,3.500
-1004.624,-34.761,52.695,0.364,2.156,3.775
-1002.721,-33.771,52.593,-0.216,2.070,4.360
-1001.000,-31.000,50.000,-0.630,1.820,4.830
-999.944,-27.499,53.327,-0.950,1.812,4.982
-1000.827,-24.117,55.386,-1.017,1.784,4.816
-1000.364,-20.815,54.066,-0.806,1.701,4.649
-999.514,-19.761,54.117,-0.420,1.636,4.397
-1000.060,-20.140,53.784,-0.273,1.669,4.253
-999.729,-19.826,52.484,-0.369,2.180,4.246
-999.024,-18.977,48.716,-0.428,2.764,3.883
-1000.804,-20.696,47.875,-0.614,3.063,3.454
-1002.761,-25.191,47.937,-0.759,3.310,3.279
-1003.457,-27.079,42.904,-0.781,3.354,3.509
-1004.140,-26.891,42.953,-0.711,2.937,4.084
-1003.210,-26.885,43.198,-0.573,2.804,4.663
-1003.184,-25.528,39.088,-0.580,2.713,5.070
-1004.017,-24.988,41.792,-0.628,2.153,5.275
-1003.000,-23.000,45.000,-0.490,1.820,5.460
-1002.087,-16.853,44.871,-0.253,1.645,5.648
-1001.265,-13.855,46.510,0.151,1.404,5.771
-1000.613,-14.420,47.280,0.849,1.202,5.927
-1000.973,-12.933,46.669,1.318,1.280,6.108
-1000.678,-11.871,47.607,1.579,1.593,6.182
-1001.107,-11.880,47.350,1.871,1.892,6.360
-1000.942,-9.776,40.414,1.883,2.186,6.589
-1000.894,-7.149,37.779,1.820,2.184,6.523
-1002.778,-5.448,40.990,1.866,1.950,6.383
-1001.865,-3.064,38.955,2.017,1.692,6.343
-999.702,-0.609,37.475,2.208,1.526,6.111
-1000.290,-0.018,35.870,2.223,1.392,5.499
-1001.213,-1.756,33.633,2.149,1.075,5.003
-1003.483,-4.291,34.097,2.090,0.620,4.901
-1005.000,-4.000,34.000,2.030,0.000,5.040
-1001.530,-1.339,33.194,2.085,-0.615,5.299
-1000.370,-0.044,32.483,2.094,-1.128,5.291
-1002.307,-0.026,35.751,1.807,-1.468,5.193
-1002.969,0.036,40.123,1.615,-1.600,5.151
-1002.396,0.034,42.999,1.594,-1.727,5.109
-1000.586,1.642,43.927,1.416,-1.739,5.197
-1001.170,5.231,44.179,1.171,-1.760,5.093
-1002.986,6.059,48.667,0.868,-1.892,4.906
-1001.603,6.346,50.265,0.493,-1.558,4.900
-998.679,9.974,49.593,0.258,-0.852,4.810
-997.537,11.101,50.766,0.121,-0.341,4.371
-1000.462,8.758,50.840,-0.129,0.208,3.652
-1001.752,6.338,49.282,-0.464,0.783,3.217
-999.809,4.793,46.782,-0.907,1.083,3.233
-1001.000,3.000,48.000,-1.120,1.330,3.290
-1002.934,1.856,47.636,-0.992,1.749,3.456
-1002.335,3.663,42.899,-1.020,2.123,3.727
-1001.564,3.498,41.394,-1.070,2.158,3.857
-1002.007,3.428,39.648,-1.021,2.003,4.020
-1001.771,5.687,37.856,-0.935,1.652,4.178
-1003.497,4.490,40.756,-0.704,1.153,4.315
-1003.880,4.126,40.831,-0.399,0.819,4.652
-1002.060,6.795,39.851,-0.219,0.574,5.021
-1001.455,9.332,42.768,-0.060,0.568,5.124
-998.470,12.626,40.888,0.182,0.949,5.024
-998.513,16.124,36.995,0.151,1.342,4.848
-1000.226,19.547,37.658,0.036,1.533,4.524
-1000.037,21.014,37.581,0.122,1.507,4.158
-1002.431,18.452,34.422,0.496,1.293,3.803
-1003.000,16.000,31.000,0.910,1.050,3.710
-1001.856,16.100,29.117,0.974,0.695,3.896
-1004.226,13.472,28.980,1.086,0.339,4.042
-1004.519,9.714,28.219,1.078,0.161,4.451
-1000.830,12.027,25.696,0.881,-0.316,4.897
-1002.115,16.465,27.390,0.835,-1.047,5.120
-1005.271,18.196,31.730,0.852,-1.680,5.382
-1003.817,19.139,31.913,0.992,-2.285,5.617
-1001.247,23.462,31.861,1.054,-2.772,5.805
-997.636,31.333,35.037,0.985,-3.000,5.639
-996.307,36.914,38.922,1.017,-2.948,5.073
-997.935,39.136,41.166,1.079,-2.683,4.432
-999.352,40.684,42.771,0.979,-2.199,3.713
-1000.147,40.600,44.456,0.782,-1.520,2.890
-1001.158,37.482,44.915,0.596,-0.621,2.147
-1000.000,36.000,42.000,0.280,0.210,1.750
-995.415,36.116,36.587,-0.041,0.493,1.345
-995.780,35.190,35.383,-0.102,0.321,0.779
-999.561,34.241,37.505,0.044,-0.066,0.337
-1001.387,31.189,37.895,0.279,-0.299,-0.089
-1000.074,29.852,36.035,0.639,-0.400,-0.339
-1000.608,28.249,33.635,0.976,-0.603,-0.340
-1005.324,23.663,34.090,1.204,-0.623,-0.273
-1006.183,20.217,33.276,1.268,-0.555,-0.153
-1002.735,18.700,28.759,1.087,-0.807,0.112
-1001.012,21.219,28.254,1.000,-1.285,0.591
-1003.932,21.958,33.641,0.886,-1.750,0.988
-1003.883,23.338,36.714,0.716,-2.085,1.213
-999.853,28.394,37.669,0.827,-2.195,1.367
-999.045,30.108,42.853,1.006,-2.328,1.394
-999.000,31.000,45.000,1.190,-2.170,1.260
-999.733,29.441,44.795,1.218,-1.668,1.116
-1000.533,28.253,45.558,0.941,-1.407,1.299
-997.683,31.585,43.238,0.648,-1.082,1.554
-997.433,33.876,43.567,0.519,-0.760,1.396
-1001.207,33.607,41.171,0.608,-0.536,0.933
-1001.720,31.515,34.706,0.603,-0.319,0.567
-1001.014,31.059,31.880,0.407,-0.444,0.414
-1001.053,31.948,30.160,0.347,-0.873,0.414
-1000.726,33.322,28.214,0.408,-1.353,0.491
-1001.893,36.444,29.174,0.453,-1.954,0.409
-1000.949,36.339,34.339,0.629,-2.630,0.274
-1001.623,34.180,36.013,1.043,-2.853,0.122
-1002.845,34.024,34.595,1.303,-3.145,-0.154
-1000.734,32.614,34.026,1.335,-3.535,-0.282
-1001.000,30.000,37.000,1.400,-3.710,-0.210
-1001.144,29.061,41.731,1.455,-4.257,-0.091
-1000.147,28.345,42.344,1.619,-4.551,0.073
-999.737,27.632,46.111,1.733,-4.550,0.287
-999.847,28.745,48.945,1.569,-4.458,0.365
-999.924,28.497,51.540,1.443,-3.995,0.362
-1001.308,26.848,55.357,1.364,-3.430,0.549
-1000.849,29.323,52.713,1.015,-2.749,0.784
-999.889,32.853,51.001,0.645,-2.263,0.845
-1001.951,33.837,51.029,0.605,-2.012,0.725
-999.950,34.697,50.672,0.731,-1.811,0.686
-998.055,35.385,48.076,0.776,-1.626,0.655
-997.215,36.824,47.591,0.585,-1.311,0.274
-997.648,38.232,50.573,0.377,-0.922,-0.203
-1001.362,37.928,48.494,0.349,-0.505,-0.529
-1000.000,38.000,47.000,0.280,-0.350,-0.700
-999.703,38.050,46.268,0.105,-0.410,-0.923
-1000.463,37.875,44.989,-0.144,-0.508,-1.348
-998.903,38.557,45.181,-0.264,-0.693,-1.688
-998.305,39.335,44.331,-0.081,-0.849,-1.997
-996.336,38.133,41.851,0.122,-1.098,-2.410
-1000.327,33.933,39.916,0.022,-1.494,-2.923
-1002.920,30.897,42.220,-0.143,-1.841,-3.303
-1001.038,30.941,43.069,-0.018,-2.021,-3.235
-1001.171,31.800,42.792,0.222,-2.179,-3.132
-999.787,32.302,42.934,0.482,-2.509,-3.337
-1000.913,30.669,39.998,0.595,-2.902,-3.833
-1001.953,27.724,38.698,0.558,-3.416,-4.324
-1002.020,27.193,37.511,0.798,-4.173,-4.524
-1001.958,27.954,38.612,0.990,-5.028,-4.726
-1003.000,25.000,45.000,1.050,-5.670,-4.830
-1003.524,21.282,48.817,1.347,-5.763,-4.547
-998.759,20.263,49.610,1.627,-5.586,-4.075
-999.063,19.266,51.278,1.750,-5.355,-3.572
-1001.876,18.983,52.034,1.685,-4.966,-3.149
-1001.724,19.028,50.213,1.429,-4.841,-2.807
-1001.933,20.603,50.385,1.116,-5.122,-2.440
-1000.895,23.120,53.244,0.822,-5.403,-2.234
-999.159,23.918,56.720,0.758,-5.399,-2.237
-998.406,25.108,59.636,1.086,-5.319,-2.251
-1001.972,22.194,61.163,1.445,-5.283,-2.130
-1001.820,17.653,62.603,1.381,-4.873,-1.839
-998.563,19.732,58.333,1.172,-4.320,-1.559
-997.778,24.300,56.462,0.982,-4.094,-1.350
-998.302,27.330,58.931,0.738,-4.058,-1.449
-1001.000,28.000,54.000,0.630,-4.130,-1.960
-1000.266,27.896,54.324,0.518,-4.536,-2.355
-999.223,28.797,56.152,0.330,-4.982,-2.394
-997.557,29.395,51.870,0.148,-5.094,-2.432
-997.138,31.085,51.093,-0.252,-5.398,-2.922
-999.705,31.953,53.308,-0.699,-5.942,-3.757
-999.672,30.892,59.308,-0.749,-6.286,-4.373
-996.662,33.306,59.824,-0.536,-6.450,-4.723
-993.010,35.170,61.457,-0.048,-6.516,-5.453
-997.347,29.706,67.313,0.489,-6.214,-6.456
-1001.454,23.102,62.054,0.673,-5.733,-7.131
-999.470,17.323,59.313,0.707,-5.764,-7.379
-1000.869,11.809,57.269,0.492,-6.373,-7.312
-1002.084,9.277,55.699,0.065,-7.529,-7.382
-1003.265,5.353,64.500,-0.406,-8.611,-7.224
-1003.000,4.000,71.000,-0.210,-9.520,-6.860
-1000.089,3.655,77.073,0.679,-10.159,-6.486
-1001.422,-1.938,79.301,0.810,-9.616,-5.485
-1001.608,-2.426,74.529,0.441,-9.157,-4.782
-1000.357,-0.094,75.903,0.065,-9.407,-4.593
-1001.142,0.402,82.536,-0.151,-9.721,-4.278
-1000.722,3.906,86.607,0.389,-10.063,-3.882
-999.969,4.865,89.277,1.173,-9.824,-3.319
-999.116,2.143,92.876,1.661,-8.909,-2.959
-997.925,1.859,91.668,1.667,-7.641,-2.673
-999.097,1.543,90.758,1.374,-6.515,-2.311
-999.989,1.386,94.196,1.110,-5.579,-1.891
-997.246,7.133,94.927,1.095,-4.604,-1.414
-996.201,9.903,95.220,1.465,-3.833,-1.371
-999.535,6.426,94.670,1.776,-2.920,-1.557
-1000.000,4.000,91.000,1.750,-1.890,-1.470
-997.966,3.008,88.219,1.461,-1.138,-1.172
-999.557,3.188,86.811,1.039,-0.666,-0.816
-999.381,1.804,83.094,0.647,-0.363,-0.462
-999.168,0.672,79.552,0.306,-0.274,-0.261
-1001.569,1.407,81.032,-0.081,-0.565,-0.020
-1000.409,3.750,83.328,-0.292,-0.896,0.357
-998.965,7.216,84.058,-0.120,-0.979,0.490
-998.111,8.924,84.953,0.124,-0.915,0.427
-997.659,9.231,85.062,0.276,-0.897,0.313
-998.507,7.982,84.928,0.165,-0.962,0.179
-996.023,9.090,85.042,-0.003,-1.006,0.079
-997.215,9.784,84.928,0.176,-1.102,-0.088
-1000.463,7.163,85.062,0.145,-1.229,-0.238
-999.914,5.964,84.930,-0.182,-1.343,-0.195
-1000.000,7.000,85.000,-0.280,-1.330,-0.140
-997.502,9.715,88.309,-0.230,-1.264,-0.197
-995.752,10.179,91.256,0.021,-1.187,-0.332
-996.553,10.008,89.056,0.363,-0.930,-0.703
-997.108,9.119,87.749,0.402,-0.795,-1.108
-998.300,5.656,87.797,0.327,-0.749,-1.324
-999.095,3.665,87.020,0.256,-0.809,-1.408
-1000.097,1.851,89.192,0.133,-1.068,-1.399
-1000.145,0.967,89.194,0.134,-1.188,-1.343
-997.410,1.830,86.999,0.208,-1.152,-1.013
-997.569,2.139,88.288,0.142,-0.968,-0.663
-1000.241,1.753,89.323,-0.062,-0.905,-0.642
-998.488,2.870,88.696,-0.149,-1.062,-0.577
-996.731,5.897,89.404,-0.015,-1.242,-0.472
-997.085,6.975,89.829,0.164,-1.230,-0.499
-998.000,6.000,87.000,0.210,-0.840,-0.560
-998.969,5.035,86.727,-0.024,-0.582,-0.569
-998.934,5.594,87.443,-0.216,-0.371,-0.463
-998.600,6.711,86.714,-0.131,-0.150,-0.330
-996.718,7.427,89.669,-0.002,-0.092,-0.247
-997.809,8.062,87.034,0.081,0.352,-0.350
-1000.199,6.549,83.984,-0.156,0.640,-0.623
-1000.007,6.067,84.885,-0.509,0.475,-0.773
-1000.098,6.997,80.320,-0.686,0.240,-0.708
-997.524,6.255,80.168,-0.840,-0.297,-0.673
-996.570,5.297,82.478,-0.685,-0.628,-0.852
-996.743,4.541,80.851,-0.390,-0.629,-0.911
-997.868,3.119,82.049,-0.181,-0.774,-0.774
-1002.014,0.126,84.594,0.071,-0.714,-0.657
-1001.668,0.371,84.921,0.133,-0.553,-0.359
-1000.000,3.000,84.000,0.070,-0.700,0.000
-999.888,3.079,83.081,0.125,-0.942,0.079
-1001.428,2.421,83.448,0.199,-1.227,0.007
-1001.488,0.981,85.071,0.263,-1.550,0.052
-997.598,2.126,84.202,0.492,-1.836,0.276
-997.439,4.911,84.835,0.668,-2.131,0.476
-998.953,6.298,88.895,0.602,-2.130,0.477
-996.836,8.179,91.094,0.483,-1.789,0.415
-996.862,10.805,91.959,0.483,-1.364,0.296
-998.106,12.154,92.110,0.566,-0.930,0.054
-996.895,11.092,90.587,0.436,-0.585,-0.172
-997.965,11.303,85.551,0.254,-0.422,-0.520
-1001.187,9.920,81.810,0.166,-0.637,-0.957
-1001.667,7.478,80.433,0.037,-1.018,-1.146
-999.717,6.953,77.610,0.095,-1.303,-1.103
-999.000,7.000,77.000,0.280,-1.610,-0.910
-999.052,7.928,78.606,0.350,-1.917,-0.711
-998.317,8.448,81.888,0.374,-2.141,-0.737
-997.074,10.694,84.941,0.620,-2.174,-0.842
-997.015,9.832,87.368,0.854,-2.182,-1.035
-998.208,7.587,89.620,0.660,-2.113,-1.240
-997.657,7.891,90.142,0.467,-1.812,-1.163
-997.033,4.684,92.195,0.415,-1.520,-1.202
-997.937,2.092,93.082,0.352,-1.277,-1.268
-998.751,0.553,91.961,0.312,-1.129,-1.089
-999.183,-1.624,92.772,0.098,-1.151,-0.931
-997.937,-2.093,92.816,-0.105,-1.248,-0.645
-998.295,-1.948,93.809,-0.148,-1.235,-0.399
-998.817,-2.067,94.799,-0.128,-1.185,-0.211
-997.946,-1.883,91.515,-0.058,-1.184,0.033
-998.000,0.000,92.000,0.000,-1.050,0.210
-997.056,3.425,93.294,0.052,-0.925,0.348
-997.644,6.521,90.612,0.260,-0.774,0.256
-997.950,7.551,88.629,0.491,-0.546,0.155
-998.034,8.673,84.829,0.419,-0.475,0.095
-999.168,8.860,84.487,0.348,-0.507,-0.062
-998.707,9.363,84.557,0.456,-0.582,-0.149
-998.007,11.036,81.893,0.727,-0.712,-0.138
-998.905,10.073,81.995,1.038,-0.896,-0.196
-999.834,10.074,81.751,1.059,-1.069,-0.437
-1000.530,7.795,84.150,1.083,-1.379,-0.605
-1000.345,4.340,84.430,1.146,-1.743,-0.625
-997.533,6.150,82.709,1.074,-1.853,-0.478
-998.891,4.959,86.390,0.928,-2.026,-0.440
-999.640,1.843,87.854,0.743,-2.087,-0.472
-996.000,4.000,87.000,0.560,-1.960,-0.140
-997.562,5.920,91.940,0.369,-1.912,0.014
-997.942,7.080,96.312,0.299,-1.649,-0.110
-994.923,10.260,94.157,0.198,-1.323,-0.230
-995.645,10.796,95.361,0.116,-1.023,-0.544
-997.305,9.519,97.096,0.160,-0.752,-0.884
-998.152,7.238,95.712,0.237,-0.598,-1.089
-999.043,3.838,94.917,0.351,-0.485,-1.192
-998.164,3.927,93.982,0.104,-0.430,-1.128
-996.782,3.484,94.955,-0.253,-0.161,-1.102
-998.383,1.910,93.779,-0.245,0.194,-1.154
-998.440,2.328,92.381,-0.176,0.367,-1.007
-997.638,1.381,91.035,-0.076,0.457,-0.849
-997.997,1.129,88.363,0.137,0.492,-0.736
-998.068,0.771,87.985,0.298,0.393,-0.703
-999.000,-1.000,87.000,0.350,0.140,-0.630
-999.850,-0.234,86.781,0.295,-0.161,-0.267
-1000.314,0.793,89.084,0.214,-0.446,0.015
-998.452,2.004,91.594,0.245,-0.475,0.174
-997.710,3.848,91.931,0.300,-0.373,0.195
-997.718,3.887,92.175,0.254,-0.323,0.120
-998.252,4.100,91.706,0.200,-0.172,0.150
-998.943,3.957,91.038,0.133,-0.064,0.134
-997.101,3.942,91.153,0.069,0.058,0.011
-997.526,4.281,87.663,0.131,0.152,-0.075
-999.275,2.427,86.724,0.074,0.018,-0.019
-1000.266,2.626,86.320,-0.085,-0.221,0.021
-998.804,5.059,84.384,-0.010,-0.446,0.140
-998.218,6.313,85.355,0.088,-0.602,0.204
-1000.205,7.013,84.785,0.155,-0.712,0.138
-1000.000,6.000,84.000,0.210,-0.770,0.210
-1000.035,6.579,84.730,0.086,-1.050,0.164
-998.615,9.478,87.236,0.129,-1.470,-0.012
-997.452,10.220,88.450,0.411,-1.597,-0.225
-997.746,9.630,87.801,0.492,-1.614,-0.511
-996.474,8.457,90.095,0.374,-1.433,-0.806
-998.726,6.401,90.695,0.357,-1.141,-0.903
-999.915,2.684,87.766,0.344,-1.128,-0.758
-998.070,0.037,86.020,0.219,-1.311,-0.640
-998.637,0.722,86.680,0.146,-1.565,-0.421
-999.245,2.087,88.205,0.133,-1.679,-0.139
-997.649,4.853,90.574,0.172,-1.659,-0.009
-996.544,6.198,92.764,0.241,-1.534,-0.028
-997.151,6.202,92.926,0.294,-1.352,-0.212
-996.851,8.384,93.047,0.266,-1.244,-0.451
-996.000,10.000,93.000,0.140,-1.120,-0.560
-996.811,10.135,92.950,0.083,-0.954,-0.721
-997.221,8.555,93.087,-0.112,-0.554,-1.089
-996.486,7.308,92.903,-0.381,-0.242,-1.361
-997.440,6.050,92.646,-0.433,-0.157,-1.619
-997.904,2.644,89.442,-0.545,0.101,-1.762
-999.529,0.782,86.643,-0.520,-0.013,-1.539
-1000.975,-0.088,85.931,-0.266,-0.445,-1.238
-999.141,-0.986,85.012,-0.271,-0.619,-0.934
-998.725,-0.369,85.744,-0.306,-0.846,-0.627
-999.688,1.826,86.566,-0.169,-1.067,-0.357
-999.488,4.814,88.370,-0.141,-1.223,-0.215
-998.208,6.770,90.974,-0.102,-1.382,-0.227
-997.939,8.629,90.522,0.034,-1.272,-0.319
-996.633,10.119,88.829,-0.025,-1.097,-0.528
-995.000,10.000,89.000,-0.210,-0.910,-0.770
-997.528,8.452,89.188,-0.279,-0.767,-0.959
-999.074,4.922,87.410,-0.247,-0.873,-1.046
-998.702,3.108,86.864,-0.081,-0.953,-1.024
-998.789,2.425,86.702,0.035,-1.038,-0.909
-999.246,0.220,85.801,-0.027,-1.165,-0.824
-1001.281,0.146,87.683,0.029,-1.298,-0.839
-999.775,-0.069,90.073,0.145,-1.482,-0.678
-998.006,-0.106,89.130,0.143,-1.600,-0.370
-998.098,1.655,89.235,0.089,-1.777,-0.217
-997.593,3.191,93.172,0.010,-1.893,-0.212
-998.184,5.058,93.332,0.027,-1.878,-0.202
-997.108,4.364,91.610,0.091,-1.905,-0.236
-997.313,4.375,93.861,0.048,-1.859,-0.288
-997.876,6.212,95.001,-0.004,-1.632,-0.281
-996.000,7.000,95.000,0.000,-1.260,-0.350
-995.849,7.912,95.101,0.054,-0.950,-0.464
-996.753,8.110,94.202,0.177,-0.663,-0.726
-997.389,6.836,93.603,0.236,-0.359,-1.051
-998.282,2.451,91.650,0.150,-0.235,-1.155
-999.050,1.358,89.427,0.021,-0.208,-1.201
-998.753,3.169,90.404,-0.090,-0.322,-1.071
-997.986,1.870,90.933,-0.059,-0.499,-0.904
-998.021,1.032,89.969,0.128,-0.557,-0.849
-997.799,0.252,92.200,0.161,-0.617,-0.672
-999.241,-0.731,94.774,0.078,-0.615,-0.507
-999.692,-0.972,94.919,0.056,-0.417,-0.211
-998.123,1.407,95.105,-0.082,-0.194,0.150
-998.008,3.148,94.852,-0.260,-0.129,0.298
-997.977,3.126,95.160,-0.457,-0.057,0.174
-998.000,5.000,96.000,-0.630,-0.070,-0.070
-998.002,5.130,94.368,-0.405,-0.148,-0.190
-997.990,4.345,92.420,-0.183,-0.032,-0.366
-997.775,2.725,90.834,-0.357,0.032,-0.479
-997.885,2.036,89.504,-0.395,0.166,-0.516
-997.671,3.468,90.435,-0.203,0.307,-0.573
-998.295,2.571,89.430,-0.029,0.276,-0.558
-1000.096,0.927,86.875,0.151,0.357,-0.556
-1000.053,0.944,86.069,0.150,0.299,-0.371
-999.875,1.799,85.007,0.055,-0.046,-0.161
-999.998,2.712,86.570,0.240,-0.437,-0.098
-999.322,2.862,89.997,0.484,-0.718,-0.021
-998.306,1.198,91.297,0.632,-0.942,0.001
-998.056,1.215,90.539,0.815,-1.065,0.002
-999.140,0.791,88.861,0.737,-1.054,-0.003
-999.000,1.000,90.000,0.560,-1.190,0.000
-998.944,4.682,91.095,0.672,-1.209,0.060
-998.480,4.511,90.169,0.814,-1.114,0.087
-997.272,3.710,89.568,0.891,-1.144,-0.011
-998.699,4.171,88.428,0.894,-1.065,-0.102
-998.380,3.789,89.915,0.815,-1.078,-0.025
-998.054,2.713,90.782,0.862,-1.110,0.097
-997.917,3.172,88.944,0.907,-1.051,0.219
-996.978,5.048,90.749,0.782,-1.119,0.279
-997.904,2.487,93.523,0.654,-0.978,0.322
-997.210,2.826,95.493,0.537,-0.706,0.459
-996.692,5.053,95.790,0.457,-0.500,0.479
-996.762,4.945,94.617,0.528,-0.218,0.346
-997.232,4.693,95.027,0.424,-0.018,0.152
-997.998,2.860,92.429,0.185,0.170,0.071
-997.000,5.000,91.000,0.140,0.280,0.140
-996.878,6.263,92.939,0.081,0.273,0.199
-997.717,4.281,91.683,0.061,0.376,0.303
-998.453,3.892,90.082,0.028,0.509,0.473
-998.978,4.606,90.243,-0.204,0.606,0.633
-998.532,6.669,91.445,-0.263,0.641,0.582
-997.907,5.399,90.354,-0.100,0.724,0.486
-999.162,4.023,86.786,0.003,0.684,0.566
-1000.086,4.943,85.957,-0.059,0.373,0.505
-998.251,6.295,86.770,-0.199,0.168,0.266
-997.801,9.553,87.757,-0.142,0.043,0.055
-997.620,8.890,88.006,0.030,-0.024,-0.072
-998.376,5.553,88.093,0.076,0.032,-0.196
-998.728,3.468,87.621,0.062,0.081,-0.172
-998.098,3.153,85.785,-0.019,0.056,0.026
-1000.000,5.000,86.000,-0.140,-0.140,0.070
-999.304,5.117,86.948,-0.101,-0.389,0.066
-998.001,4.816,87.045,0.184,-0.572,0.076
-997.852,5.592,86.578,0.411,-0.768,0.063
-997.804,6.482,85.045,0.392,-0.867,0.077
-997.747,7.296,83.571,0.308,-0.839,0.065
-998.189,8.248,84.485,0.080,-1.053,0.070
-998.984,9.036,87.169,0.010,-1.262,-0.011
-997.187,9.875,88.007,0.261,-1.134,-0.195
-995.861,11.183,87.984,0.452,-1.004,-0.424
-997.047,8.509,87.550,0.608,-0.881,-0.705
-998.736,6.069,86.101,0.577,-0.837,-0.771
-998.348,8.065,86.534,0.450,-1.002,-0.643
-998.114,7.222,88.646,0.531,-1.142,-0.643
-999.042,4.863,90.186,0.641,-1.011,-0.614
-998.000,6.000,91.000,0.630,-0.700,-0.490
-997.822,5.437,90.258,0.404,-0.452,-0.488
-998.899,2.983,88.947,0.028,-0.293,-0.449
-998.401,4.574,89.722,-0.174,-0.315,-0.370
-997.102,7.267,89.581,-0.037,-0.366,-0.317
-997.039,8.051,89.190,0.105,-0.325,-0.288
-998.135,6.455,91.503,0.155,-0.155,-0.473
-997.968,5.002,90.785,0.210,0.083,-0.555
-997.973,5.957,88.102,0.146,0.139,-0.427
-998.071,5.321,87.886,0.089,0.190,-0.410
-997.639,4.640,88.518,-0.062,0.259,-0.465
-998.480,6.025,89.805,-0.191,0.342,-0.513
-998.348,7.636,89.452,-0.077,0.472,-0.447
-996.582,7.992,87.370,-0.106,0.483,-0.442
-998.505,8.004,85.755,-0.218,0.496,-0.579
-1000.000,7.000,84.000,-0.210,0.490,-0.630
-998.937,5.071,83.044,-0.268,0.259,-0.581
-999.938,5.709,82.941,-0.261,-0.021,-0.398
-999.117,6.051,83.443,-0.063,-0.144,-0.326
-998.934,6.350,84.593,0.011,-0.320,-0.362
-998.340,7.183,85.147,0.022,-0.430,-0.362
-998.206,6.946,86.455,0.176,-0.323,-0.540
-998.929,6.992,88.005,0.206,-0.279,-0.627
-997.037,6.118,85.333,0.143,-0.217,-0.559
-999.174,4.398,82.722,0.091,-0.232,-0.666
-1000.613,3.063,85.279,0.008,-0.516,-0.737
-998.335,3.438,85.344,0.010,-0.760,-0.592
-997.810,4.416,83.564,-0.033,-0.905,-0.417
-997.915,5.212,85.947,-0.057,-0.986,-0.338
-998.092,4.818,86.853,0.098,-0.893,-0.355
-999.000,4.000,85.000,0.210,-0.910,-0.350
-998.323,4.894,84.797,0.210,-1.097,-0.291
-996.227,5.478,87.010,0.251,-1.186,-0.223
-996.219,8.013,90.096,0.338,-1.145,-0.228
-997.407,8.690,91.284,0.343,-0.872,-0.355
-997.780,6.145,90.685,0.367,-0.490,-0.445
-996.655,6.148,89.744,0.313,-0.237,-0.504
-997.166,5.936,89.003,0.052,-0.136,-0.567
-998.988,5.078,89.934,-0.065,-0.076,-0.750
-998.144,3.447,89.427,-0.224,-0.008,-0.964
-997.854,2.506,88.400,-0.374,0.033,-0.948
-997.620,4.187,90.408,-0.308,0.167,-0.837
-998.130,5.476,90.721,-0.399,0.392,-0.754
-997.568,6.039,89.839,-0.128,0.607,-1.040
-998.438,4.705,90.095,0.407,0.531,-1.344
-1000.000,4.000,91.000,0.420,0.560,-1.190
-996.235,4.284,90.357,0.122,1.167,-1.056
-998.530,0.963,88.188,-0.202,1.529,-1.043
-1000.737,-0.143,88.163,-0.407,1.557,-1.069
-999.133,2.137,87.179,-0.619,1.661,-0.981
-1000.290,1.421,85.190,-0.829,1.507,-0.901
-999.670,1.241,82.262,-0.830,1.203,-0.891
-998.958,3.151,81.061,-0.847,1.120,-0.683
-998.028,4.882,82.018,-0.972,1.121,-0.623
-999.421,5.934,81.673,-0.960,1.158,-0.749
-999.880,6.018,83.848,-0.667,1.308,-0.786
-997.742,5.686,82.114,-0.480,1.297,-0.746
-1000.374,4.513,79.338,-0.528,1.257,-0.838
-1000.199,5.659,80.046,-0.704,1.243,-1.040
-997.903,7.003,77.506,-1.032,1.196,-1.219
-999.000,6.000,76.000,-1.260,1.400,-1.400
-999.857,5.211,75.280,-1.273,1.495,-1.413
-1000.855,2.924,73.345,-1.154,1.186,-1.305
-1000.399,0.408,73.141,-1.075,0.745,-1.113
-999.157,0.211,75.448,-0.984,0.372,-0.809
-998.958,1.474,77.554,-0.724,0.148,-0.540
-1000.162,2.181,78.116,-0.430,0.162,-0.397
-998.803,4.197,79.089,-0.274,0.289,-0.351
-997.872,5.096,79.963,-0.216,0.409,-0.473
-999.929,3.874,80.048,-0.096,0.547,-0.675
-998.519,5.060,80.312,-0.048,0.550,-0.740
-997.590,3.527,82.392,-0.095,0.667,-0.848
-997.783,1.350,82.568,-0.026,0.986,-0.940
-998.325,0.650,80.373,-0.022,1.145,-1.001
-1000.234,-1.242,80.164,-0.156,1.202,-0.951
-1000.000,-1.000,82.000,-0.140,1.330,-0.630
-998.145,1.603,82.157,-0.074,1.505,-0.426
-998.517,3.050,82.219,-0.030,1.821,-0.461
-998.836,3.197,84.479,0.061,2.300,-0.545
-996.657,4.927,82.385,0.062,2.780,-0.572
-997.335,5.067,83.077,0.080,3.433,-0.709
-996.432,9.445,84.860,0.070,4.245,-1.090
-996.178,10.625,84.174,0.316,5.034,-1.652
-998.067,5.009,87.981,0.815,6.004,-2.016
-996.063,10.597,82.566,0.913,7.123,-2.267
-997.276,10.814,81.921,1.062,7.945,-2.838
-997.398,5.330,87.187,1.719,8.632,-3.140
-996.787,6.615,80.196,2.768,9.495,-3.354
-996.911,1.781,77.504,4.018,10.071,-3.765
-999.924,-4.952,66.289,4.922,10.197,-4.212
-1006.000,-13.000,53.000,4.970,9.450,-4.690
-1006.825,-18.383,50.315,4.312,8.114,-4.388
-1008.451,-11.006,37.591,3.673,6.595,-3.578
-1003.578,-4.122,37.763,3.102,4.305,-2.945
-1000.761,-4.818,46.122,2.711,2.651,-2.578
-1005.132,-4.531,41.984,2.632,2.049,-2.492
-1003.168,-4.248,42.828,2.367,1.595,-2.221
-1002.038,-6.064,45.055,2.003,1.385,-1.787
-1002.056,-4.274,46.741,1.637,1.077,-1.361
-1001.261,-1.331,50.246,1.406,0.808,-1.071
-999.345,-0.343,54.106,1.422,0.684,-1.106
-999.427,0.362,58.261,1.281,0.868,-1.373
-1001.230,-0.827,59.416,0.961,1.335,-1.642
-999.197,-2.192,61.770,0.586,1.733,-1.669
-999.210,-2.002,61.806,0.321,2.161,-1.696
-1000.000,-3.000,62.000,0.140,2.450,-1.820
-999.919,-3.873,63.164,-0.160,2.852,-1.879
-1000.664,-5.877,61.829,-0.467,3.457,-1.956
-1001.615,-8.913,63.385,-0.775,4.071,-1.871
-1001.156,-8.345,63.937,-1.048,4.872,-1.603
-999.369,-8.169,64.453,-1.273,5.829,-1.402
-1000.134,-7.634,64.684,-1.422,6.700,-1.218
-998.844,-5.934,60.589,-1.474,7.560,-1.119
-998.831,-5.981,55.336,-1.536,8.358,-1.181
-1000.840,-6.040,52.385,-1.586,8.650,-1.346
-1000.874,-5.108,49.819,-1.724,8.826,-1.594
-1000.083,-2.163,45.254,-1.659,8.851,-1.793
-998.376,-3.292,43.040,-1.313,8.517,-1.993
-1002.799,-6.996,38.586,-1.161,8.245,-2.240
-1004.686,-10.734,41.106,-0.921,7.951,-2.295
-1002.000,-14.000,42.000,-0.420,8.120,-1.960
-1003.787,-10.402,23.447,0.027,7.981,-1.352
-1003.818,-12.715,18.204,0.087,6.715,-0.897
-1005.717,-17.930,21.581,-0.254,5.501,-0.786
-1006.155,-14.681,19.058,-0.306,4.254,-0.448
-1002.944,-12.489,24.715,0.135,3.012,0.276
-1004.448,-10.487,28.579,0.671,2.452,0.688
-1003.818,-10.035,32.269,0.997,2.549,0.933
-1002.050,-8.310,31.309,1.179,3.047,1.240
-1001.291,-6.293,31.384,1.257,3.319,1.442
-1000.356,-10.166,36.745,1.349,3.550,1.462
-1002.129,-6.395,29.074,1.665,3.645,1.332
-1002.597,-2.389,29.887,1.545,3.343,1.526
-1001.929,-6.259,38.761,1.317,3.227,1.570
-1003.206,-6.841,37.608,1.587,3.496,1.390
-1003.000,-7.000,37.000,1.680,4.060,1.540
-1002.040,-8.913,34.606,1.668,4.509,1.781
-1001.384,-7.824,31.574,1.744,4.681,2.010
-1000.731,-5.520,28.976,1.769,4.607,1.916
-1003.367,-4.330,24.983,1.904,4.309,1.538
-1003.324,-2.204,24.035,1.956,4.016,1.239
-1003.234,-2.216,25.409,1.990,3.727,1.210
-1003.935,-1.868,25.882,2.176,3.803,1.338
-1002.105,-0.915,22.288,1.927,4.117,1.396
-1001.821,-2.766,20.772,1.520,4.184,1.454
-1002.968,-2.968,21.371,1.310,4.336,1.577
-1004.564,-3.235,20.253,1.033,4.428,1.881
-1002.735,-2.587,19.827,1.161,4.238,2.139
-1003.682,-3.612,18.461,1.234,4.098,2.376
-1003.589,-3.695,16.712,1.014,4.067,2.356
-1002.000,-2.000,14.000,0.700,4.270,2.310
-1004.931,-3.120,11.329,0.521,4.271,2.348
-1003.201,-0.674,8.853,0.957,3.546,2.037
-1004.430,0.623,6.866,0.981,2.899,2.251
-1002.222,5.706,7.519,0.771,2.743,2.318
-996.884,10.787,8.415,0.909,2.592,1.843
-1002.721,6.890,10.436,1.103,2.643,1.336
-1005.977,3.783,9.839,1.260,3.037,0.823
-1004.188,0.182,8.920,1.124,3.157,1.078
-1001.474,1.740,9.958,1.355,3.078,1.494
-1000.550,5.952,11.098,1.792,3.119,1.621
-1000.621,5.228,16.948,2.046,3.264,1.470
-999.355,5.313,19.263,2.436,3.765,1.120
-1000.391,6.324,21.369,2.871,4.257,1.039
-1000.993,7.033,27.905,3.466,4.808,0.874
-1000.000,7.000,31.000,4.200,5.880,0.700
-997.273,8.777,29.739,4.826,6.997,0.487
-997.842,8.009,23.089,5.225,7.726,-0.117
-1001.220,5.641,17.423,5.464,7.911,-0.843
-1001.447,6.859,11.118,5.360,7.625,-1.414
-1000.926,6.595,3.259,5.239,6.690,-1.951
-1003.807,4.194,-2.180,5.217,5.266,-2.296
-1006.050,-1.462,-6.128,4.873,3.885,-2.543
-1005.993,-4.094,-4.303,4.698,2.542,-2.677
-1005.563,-2.227,-1.279,4.400,1.687,-2.128
-1001.506,-0.793,-0.827,3.854,1.652,-1.562
-998.247,5.183,-1.501,3.499,2.237,-1.417
-997.628,8.716,-2.353,2.898,2.992,-1.658
-998.412,7.677,-3.372,2.159,3.638,-2.584
-1000.185,6.748,-3.929,1.423,4.479,-3.735
-1001.000,4.000,-2.000,0.770,5.320,-4.550
-1002.900,2.196,-0.002,0.404,6.268,-4.770
-1001.130,0.561,-2.415,-0.036,7.287,-4.677
-998.542,-0.808,-7.021,-0.642,7.775,-4.876
-998.926,-0.916,-8.926,-1.460,8.343,-5.463
-996.948,1.196,-12.335,-2.500,9.044,-6.307
-997.391,4.626,-11.055,-3.290,9.268,-7.406
-999.081,6.110,-7.933,-3.661,9.556,-8.474
-999.952,7.907,-6.367,-3.960,10.163,-9.381
-998.900,7.972,-1.211,-4.423,11.152,-10.283
-994.131,9.748,-4.148,-5.060,12.803,-11.352
-992.227,11.230,-6.653,-6.014,14.579,-12.957
-993.603,6.498,-6.043,-7.031,16.274,-14.940
-995.403,3.269,-7.277,-8.030,18.290,-17.000
-996.090,-0.888,-9.746,-9.096,20.306,-18.603
-998.000,-8.000,-15.000,-9.450,21.910,-19.460
-1000.023,-18.266,-15.323,-9.432,23.252,-19.863
-999.035,-27.370,-28.319,-9.540,24.413,-19.796
-999.853,-32.959,-46.730,-9.414,24.738,-19.676
-1001.650,-42.257,-51.282,-9.395,24.053,-19.643
-1003.922,-49.410,-54.421,-9.316,23.218,-19.389
-1006.086,-56.715,-57.919,-9.023,22.533,-18.570
-1003.751,-60.019,-64.565,-8.567,21.931,-17.014
-1001.979,-62.475,-68.862,-7.958,21.199,-15.247
-1004.020,-70.408,-73.077,-7.223,20.526,-13.677
-1008.486,-78.310,-79.950,-6.160,19.559,-11.759
-1010.412,-89.669,-78.995,-5.071,18.059,-9.017
-1009.083,-86.343,-88.610,-3.797,17.300,-6.055
-1007.180,-84.450,-101.221,-2.768,15.893,-3.094
-1004.858,-91.240,-99.608,-2.225,13.347,-0.664
-1007.000,-85.000,-104.000,-1.540,11.270,1.260
-1008.972,-81.531,-110.863,-0.822,8.503,3.405
-1009.514,-73.559,-108.349,0.069,5.090,5.097
-1009.458,-64.517,-105.200,0.861,2.194,6.499
-1001.759,-57.075,-104.831,1.396,-0.144,7.510
-995.715,-45.025,-100.360,1.797,-1.982,7.738
-999.002,-43.093,-90.925,1.776,-3.224,7.881
-999.785,-38.287,-85.766,1.441,-3.651,7.980
-995.290,-29.441,-81.498,1.193,-3.648,7.800
-994.393,-26.273,-75.029,1.255,-3.480,7.197
-997.161,-25.741,-71.975,1.119,-3.211,6.236
-997.988,-26.831,-68.552,0.748,-2.484,5.144
-997.614,-29.328,-64.204,0.403,-1.400,4.463
-996.281,-31.169,-63.064,0.163,-0.490,4.313
-993.722,-29.812,-65.560,0.137,0.597,4.068
-995.000,-32.000,-69.000,0.000,1.540,3.430
-1000.304,-38.949,-69.131,-0.243,2.199,2.770
-1001.874,-43.290,-70.311,-0.455,2.916,2.943
-998.364,-40.072,-76.544,-0.477,3.256,3.607
-998.592,-36.986,-76.795,-0.347,3.377,3.817
-999.921,-36.560,-73.537,-0.244,3.868,3.621
-998.709,-33.273,-78.308,-0.217,4.340,3.487
-999.074,-33.095,-78.766,-0.284,4.410,3.503
-999.082,-32.275,-78.605,-0.338,4.472,3.566
-998.059,-28.500,-85.110,-0.621,4.459,3.498
-997.882,-27.335,-86.590,-0.813,4.145,3.137
-997.605,-26.222,-89.121,-0.645,3.729,2.870
-998.518,-26.404,-91.359,-0.503,3.311,2.575
-1000.120,-26.797,-91.440,-0.393,2.994,2.352
-997.376,-24.707,-95.602,-0.436,2.673,2.373
-996.000,-25.000,-95.000,-0.420,2.240,2.100
-1000.464,-26.852,-90.357,-0.173,1.916,1.726
-1000.360,-27.158,-90.920,-0.029,1.797,1.500
-996.109,-26.031,-93.572,0.084,1.510,1.454
-996.933,-24.006,-90.994,0.185,0.964,1.220
-999.646,-24.470,-88.570,0.225,0.741,0.750
-999.709,-24.854,-89.160,0.305,0.766,0.632
-997.866,-23.995,-90.128,0.427,0.616,0.624
-996.995,-24.913,-91.933,0.427,0.494,0.445
-997.666,-25.729,-91.953,0.349,0.405,-0.060
-999.171,-27.787,-92.777,0.396,0.011,-0.585
-1000.529,-30.492,-92.438,0.464,-0.525,-0.505
-1000.871,-30.977,-92.345,0.698,-0.806,-0.065
-1000.929,-31.256,-92.505,0.966,-1.056,0.289
-1001.060,-33.393,-88.505,0.971,-1.000,0.352
-1001.000,-34.000,-90.000,0.910,-0.560,0.560
-998.438,-29.724,-92.980,0.788,-0.583,1.061
-996.879,-26.494,-92.291,0.747,-0.899,1.225
-996.982,-24.411,-90.634,0.825,-1.150,1.039
-996.888,-21.908,-87.267,0.852,-1.355,0.742
-998.373,-22.286,-87.539,0.977,-1.404,0.461
-997.500,-21.817,-87.709,1.146,-1.393,0.223
-997.129,-23.253,-85.919,1.110,-1.239,-0.015
-998.979,-25.944,-86.784,0.927,-0.868,-0.135
-998.107,-25.863,-90.374,0.687,-0.679,-0.155
-998.472,-26.980,-90.451,0.499,-0.857,-0.016
-998.530,-25.641,-87.621,0.530,-0.895,0.164
-997.462,-23.289,-90.926,0.558,-0.832,0.018
-998.387,-24.754,-89.654,0.585,-0.950,-0.411
-1000.314,-27.336,-87.225,0.713,-0.976,-0.541
-1001.000,-28.000,-91.000,0.630,-1.050,-0.210
-998.395,-26.288,-89.425,0.436,-1.354,-0.001
-996.974,-24.557,-88.672,0.411,-1.569,-0.089
-997.168,-22.973,-88.729,0.401,-1.729,-0.268
-998.962,-23.707,-87.651,0.276,-1.862,-0.430
-999.536,-23.262,-87.847,0.181,-1.620,-0.523
-997.684,-20.774,-85.324,0.140,-1.364,-0.680
-999.221,-24.477,-83.981,0.301,-1.247,-0.924
-1000.993,-29.764,-83.979,0.492,-1.060,-0.866
-1000.273,-31.077,-84.775,0.277,-0.994,-0.397
-998.578,-29.970,-85.111,0.089,-0.888,0.005
-996.914,-26.942,-85.262,0.011,-0.815,0.073
-997.123,-23.625,-86.375,-0.099,-0.871,-0.088
-998.288,-23.440,-85.630,0.077,-0.923,-0.254
-999.070,-26.458,-84.975,0.214,-0.894,-0.363
-999.000,-28.000,-86.000,0.210,-0.700,-0.350
-998.935,-28.838,-90.333,0.226,-0.505,-0.221
-999.617,-29.267,-91.864,0.008,-0.546,-0.208
-1000.699,-27.954,-89.012,-0.126,-0.886,-0.154
-999.846,-25.382,-90.041,0.016,-1.210,0.042
-996.840,-21.715,-91.041,0.094,-1.536,0.161
-997.311,-21.254,-91.114,0.259,-1.775,0.008
-998.014,-23.172,-90.874,0.345,-1.749,-0.299
-999.728,-26.639,-88.187,0.214,-1.874,-0.360
-1002.242,-30.089,-87.000,0.302,-2.021,-0.091
-999.057,-27.355,-87.009,0.498,-2.032,0.305
-997.613,-25.946,-86.970,0.651,-2.007,0.520
-999.915,-29.999,-87.119,0.696,-1.926,0.610
-1001.044,-30.412,-88.595,0.600,-2.017,0.868
-999.608,-26.359,-88.626,0.555,-2.277,1.149
-997.000,-24.000,-83.000,0.490,-2.380,1.120
-997.579,-23.996,-78.273,0.533,-2.325,0.923
-1000.476,-23.933,-77.809,0.728,-2.142,0.950
-1000.262,-24.218,-78.851,0.796,-1.721,0.998
-997.164,-23.132,-81.821,0.713,-1.403,0.959
-997.430,-21.661,-85.014,0.578,-1.311,0.830
-999.228,-22.206,-86.071,0.466,-1.352,0.481
-1000.079,-23.078,-85.980,0.340,-1.479,0.352
-1000.128,-23.999,-85.126,0.276,-1.600,0.416
-998.130,-22.550,-83.274,0.393,-1.690,0.474
-998.496,-21.375,-83.269,0.441,-1.549,0.481
-998.990,-23.382,-85.024,0.381,-1.401,0.303
-1001.311,-24.005,-84.177,0.308,-1.410,0.351
-1002.545,-24.115,-82.964,0.170,-1.386,0.670
-998.456,-23.825,-84.082,0.145,-1.318,1.031
-998.000,-22.000,-82.000,0.140,-1.260,1.190
-997.266,-20.261,-80.764,0.075,-1.212,1.074
-997.127,-18.962,-81.696,0.034,-0.957,0.872
-999.651,-20.059,-78.534,-0.101,-0.576,0.518
-998.981,-21.504,-79.138,-0.125,-0.265,0.424
-997.308,-20.399,-81.514,-0.049,-0.098,0.492
-997.001,-20.286,-82.421,-0.090,-0.065,0.283
-998.141,-23.263,-85.140,-0.222,-0.076,-0.021
-999.911,-25.047,-85.034,-0.347,-0.260,-0.148
-1000.168,-22.753,-86.358,-0.306,-0.508,0.131
-999.048,-20.227,-87.744,-0.189,-0.743,0.323
-999.052,-20.366,-85.138,-0.057,-0.957,0.152
-1000.484,-21.472,-83.621,0.016,-0.940,0.060
-1000.793,-22.242,-84.463,-0.007,-0.803,0.197
-999.924,-23.080,-86.149,0.001,-0.772,0.372
-1000.000,-22.000,-85.000,-0.000,-0.770,0.490
-998.380,-19.269,-83.846,0.111,-0.756,0.509
-997.314,-18.756,-85.118,0.262,-0.959,0.290
-1000.044,-19.626,-83.275,0.308,-1.186,0.092
-1000.311,-20.267,-81.633,0.409,-1.130,0.086
-998.054,-19.413,-84.111,0.380,-1.015,0.173
-998.270,-17.745,-84.821,0.271,-0.976,0.094
-1000.098,-18.078,-84.014,0.359,-0.981,-0.153
-999.201,-18.949,-84.962,0.419,-0.981,-0.148
-997.678,-19.755,-84.297,0.470,-0.976,-0.075
-999.567,-20.745,-83.744,0.485,-0.990,-0.036
-999.130,-21.164,-84.176,0.281,-0.942,0.069
-999.290,-20.601,-83.867,0.205,-0.907,0.220
-999.597,-19.964,-83.953,0.193,-1.044,0.385
-997.972,-21.306,-82.783,0.142,-1.292,0.332
-1000.000,-23.000,-82.000,0.210,-1.330,0.350
-999.384,-23.171,-80.345,0.098,-1.204,0.706
-997.848,-20.983,-79.511,0.029,-1.108,1.025
-998.086,-18.328,-80.678,0.182,-0.869,0.964
-997.459,-18.091,-78.804,0.197,-0.733,0.705
-998.339,-17.669,-79.951,0.263,-0.801,0.624
-998.865,-16.918,-80.752,0.451,-0.849,0.621
-997.972,-17.013,-80.107,0.325,-0.833,0.472
-998.871,-17.018,-82.032,-0.048,-0.645,0.166
-999.979,-16.296,-78.847,-0.159,-0.556,-0.107
-999.710,-15.511,-77.862,-0.050,-0.513,-0.190
-1000.042,-17.685,-80.487,0.104,-0.217,-0.258
-999.280,-19.187,-81.452,0.262,0.003,-0.252
-999.043,-17.372,-83.755,0.155,0.104,-0.092
-998.835,-17.177,-85.126,0.072,0.223,-0.084
-998.000,-19.000,-86.000,0.070,0.210,-0.210
-999.787,-19.976,-86.069,-0.009,0.041,-0.222
-999.428,-19.944,-85.936,0.193,-0.297,-0.107
-999.311,-20.484,-85.631,0.397,-0.641,-0.017
-1002.234,-21.572,-84.482,0.432,-0.682,0.037
-1000.645,-22.101,-85.670,0.365,-0.632,0.233
-998.949,-21.901,-85.536,0.068,-0.836,0.467
-1000.050,-20.867,-81.710,-0.070,-1.059,0.643
-999.127,-18.232,-79.998,-0.064,-1.054,0.767
-998.658,-16.111,-79.502,-0.189,-1.047,0.724
-999.926,-16.090,-77.141,-0.188,-0.964,0.643
-998.708,-15.475,-78.307,-0.078,-0.571,0.605
-997.638,-14.693,-80.817,-0.081,-0.213,0.497
-997.839,-13.481,-81.122,-0.050,-0.012,0.257
-996.979,-11.860,-83.549,0.003,0.158,-0.134
-999.000,-13.000,-87.000,0.000,0.140,-0.490
-1000.931,-17.293,-88.099,0.007,-0.041,-0.687
-1001.032,-20.197,-87.056,-0.100,-0.222,-0.639
-999.979,-18.230,-88.034,-0.168,-0.436,-0.332
-997.666,-16.205,-89.001,-0.097,-0.704,-0.158
-998.576,-16.108,-85.209,-0.057,-0.902,-0.263
-1000.094,-17.399,-82.912,0.024,-0.992,-0.243
-999.989,-17.914,-84.095,0.067,-0.975,0.101
-999.144,-16.065,-84.106,-0.057,-0.913,0.349
-997.766,-17.312,-81.726,-0.195,-0.864,0.199
-999.955,-19.703,-79.154,-0.218,-0.709,0.004
-1000.707,-20.056,-79.808,-0.203,-0.528,0.083
-999.447,-19.798,-81.746,-0.227,-0.498,0.319
-1000.037,-18.464,-81.800,-0.316,-0.592,0.435
-998.773,-16.826,-80.925,-0.431,-0.625,0.416
-999.000,-17.000,-82.000,-0.350,-0.560,0.420
-999.252,-17.263,-84.714,-0.153,-0.556,0.480
-997.240,-14.169,-85.282,-0.181,-0.567,0.475
-997.572,-11.245,-84.287,-0.203,-0.528,0.190
-1000.255,-11.579,-83.815,-0.058,-0.426,-0.185
-1000.207,-13.839,-84.425,0.025,-0.316,-0.277
-997.532,-13.632,-86.464,0.071,-0.270,-0.195
-999.282,-13.144,-86.948,-0.089,-0.206,-0.215
-1001.095,-16.774,-86.869,-0.216,-0.206,-0.217
-999.104,-17.243,-89.575,-0.076,-0.307,-0.052
-1000.029,-17.788,-89.197,-0.195,-0.569,0.185
-1001.255,-20.072,-86.536,-0.329,-0.859,0.429
-1000.086,-17.175,-85.091,-0.218,-0.912,0.677
-998.481,-14.443,-80.466,-0.099,-0.902,0.884
-998.067,-12.701,-79.196,0.103,-0.726,0.810
-999.000,-12.000,-80.000,0.210,-0.420,0.630
-999.906,-13.748,-78.145,0.204,-0.179,0.521
-999.520,-15.311,-78.023,0.267,0.077,0.270
-998.154,-17.902,-77.779,0.277,0.257,0.180
-1000.147,-20.085,-78.374,0.326,0.497,0.250
-1000.607,-23.783,-77.394,0.467,0.837,0.507
-1001.499,-27.346,-78.926,0.494,1.192,1.365
-1002.913,-24.624,-83.173,0.648,1.247,2.458
-999.285,-19.406,-83.865,0.718,1.052,3.248
-997.802,-13.535,-87.895,0.302,1.253,3.601
-998.546,-7.079,-91.157,0.084,1.473,3.741
-999.113,-2.198,-94.675,-0.066,1.432,3.791
-997.950,1.917,-99.956,-0.623,1.353,3.564
-996.994,6.376,-99.385,-0.826,1.075,3.023
-998.068,9.131,-99.272,-0.499,0.530,2.255
-997.000,7.000,-102.000,-0.140,-0.210,1.470
-996.889,2.677,-102.375,0.165,-0.943,0.738
-997.059,-2.237,-98.400,0.428,-1.623,0.093
-997.228,-7.529,-94.877,0.610,-2.218,-0.382
-998.082,-10.090,-92.344,0.831,-2.697,-0.738
-997.820,-14.059,-86.446,1.046,-3.051,-1.016
-999.323,-20.174,-80.970,1.144,-3.150,-1.339
-998.866,-22.016,-77.818,1.349,-3.072,-1.628
-997.938,-22.850,-76.109,1.531,-3.009,-1.811
-999.604,-24.756,-74.430,1.689,-3.070,-1.800
-1000.575,-25.208,-73.019,1.932,-3.018,-1.489
-1001.351,-23.872,-73.647,1.954,-2.826,-1.015
-1001.813,-20.305,-76.599,2.201,-2.838,-0.234
-1000.293,-18.896,-79.726,2.462,-2.974,0.409
-998.968,-17.563,-81.301,2.003,-2.908,0.391
-1000.000,-14.000,-84.000,1.540,-2.590,0.280
-1000.928,-12.252,-82.647,1.304,-2.446,0.497
-1001.103,-9.841,-79.751,1.031,-2.469,0.974
-1000.184,-7.983,-81.155,0.908,-2.369,1.386
-999.935,-8.188,-79.813,0.715,-2.243,1.763
-1001.214,-7.455,-79.115,0.470,-2.141,2.322
-998.948,-3.938,-78.514,0.084,-2.060,2.716
-994.888,0.201,-75.875,-0.694,-1.472,2.633
-997.635,0.976,-75.114,-1.304,-0.608,2.018
-999.605,2.464,-72.491,-1.502,-0.165,1.406
-996.197,3.599,-72.616,-1.747,0.374,1.193
-996.762,1.683,-76.086,-2.129,0.975,0.926
-998.230,0.726,-77.244,-2.436,1.340,0.506
-999.442,-0.529,-78.828,-2.651,1.614,0.215
-999.802,-2.227,-83.915,-2.825,1.764,0.134
-998.000,-4.000,-88.000,-3.010,1.750,0.000
-1000.435,-6.643,-87.981,-3.208,1.570,-0.258
-1001.816,-8.049,-88.844,-3.109,1.356,-0.254
-998.424,-7.351,-88.339,-2.780,0.990,-0.163
-998.499,-7.172,-88.845,-2.523,0.770,-0.329
-1000.137,-8.466,-91.846,-2.154,0.736,-0.587
-1000.062,-9.274,-90.402,-1.827,0.387,-0.819
-1002.161,-12.287,-90.164,-1.425,-0.029,-0.905
-1001.265,-14.055,-92.871,-0.745,-0.453,-0.657
-998.894,-13.014,-93.146,-0.428,-0.940,-0.379
-999.316,-12.894,-92.858,-0.398,-1.423,-0.305
-997.672,-9.302,-92.882,-0.239,-1.884,-0.228
-998.627,-5.843,-90.558,-0.048,-2.292,-0.239
-998.476,-4.651,-86.975,0.241,-2.695,-0.416
-998.231,-4.005,-84.738,0.520,-2.797,-0.669
-999.000,-4.000,-83.000,0.560,-2.800,-0.840
-997.696,-2.951,-81.179,0.592,-2.760,-0.844
-1001.392,-5.003,-80.816,1.018,-2.582,-0.768
-1000.283,-7.487,-81.510,1.472,-2.724,-0.475
-998.689,-8.591,-82.881,1.530,-2.792,-0.321
-999.979,-8.693,-84.107,1.414,-2.726,-0.486
-998.735,-6.531,-80.962,1.215,-2.811,-0.460
-999.026,-6.007,-77.903,1.116,-2.636,-0.347
-998.957,-5.148,-77.110,0.938,-2.270,-0.410
-1000.045,-3.281,-75.895,0.549,-1.850,-0.539
-997.818,-2.320,-77.019,0.427,-1.482,-0.578
-997.200,-1.685,-75.479,0.345,-1.300,-0.537
-999.490,-2.754,-73.746,0.082,-1.050,-0.615
-998.780,-4.275,-75.558,-0.119,-0.631,-0.719
-1000.226,-3.931,-76.018,-0.222,-0.227,-0.693
-999.000,-5.000,-77.000,-0.280,0.070,-0.700
-998.588,-6.870,-78.692,-0.284,0.437,-0.764
-1000.983,-8.077,-81.180,-0.270,0.640,-0.776
-999.969,-11.398,-83.317,-0.318,0.573,-0.721
-1000.314,-11.224,-84.961,-0.419,0.558,-0.456
-1000.673,-9.850,-85.989,-0.654,0.401,-0.068
-999.830,-9.680,-83.152,-0.663,0.170,0.183
-1000.033,-6.846,-80.943,-0.402,0.063,0.282
-1000.024,-7.811,-80.971,-0.223,-0.003,0.219
-999.949,-8.436,-81.740,-0.073,0.154,0.138
-999.438,-6.920,-82.293,-0.192,0.335,0.186
-997.862,-7.011,-81.535,-0.353,0.348,0.221
-998.286,-4.769,-82.933,-0.355,0.345,0.193
-998.955,-4.200,-84.052,-0.450,0.229,0.096
-999.128,-5.083,-84.150,-0.397,0.043,-0.098
-1000.000,-6.000,-86.000,-0.210,-0.140,-0.140
-999.123,-7.058,-86.082,-0.083,-0.328,-0.014
-998.928,-6.122,-86.517,-0.015,-0.446,0.013
-998.731,-6.483,-87.145,0.018,-0.643,-0.039
-999.291,-7.486,-83.895,-0.060,-0.884,-0.110
-999.723,-8.256,-81.395,-0.166,-0.871,-0.137
-998.798,-7.719,-80.927,-0.122,-0.759,-0.039
-999.042,-7.015,-81.053,-0.068,-0.850,0.074
-999.033,-7.084,-81.955,-0.066,-0.853,0.012
-998.899,-5.280,-82.055,-0.174,-0.655,-0.126
-999.009,-5.376,-81.565,-0.282,-0.659,-0.143
-998.192,-6.780,-79.412,-0.263,-0.708,-0.145
-997.942,-6.862,-77.397,-0.317,-0.521,-0.117
-999.312,-5.402,-78.595,-0.341,-0.283,-0.057
-998.782,-3.885,-80.159,-0.274,-0.123,-0.080
-998.000,-4.000,-81.000,-0.350,-0.070,-0.210
-998.840,-4.778,-82.663,-0.484,-0.014,-0.454
-999.796,-6.521,-84.663,-0.446,0.035,-0.585
-999.501,-7.704,-85.081,-0.383,-0.186,-0.406
-998.316,-8.167,-85.217,-0.253,-0.525,-0.178
-999.251,-7.834,-86.488,0.039,-0.813,-0.131
-998.658,-8.141,-87.001,0.144,-1.110,-0.043
-999.158,-7.935,-85.811,0.140,-1.269,-0.002
-1000.085,-7.913,-82.258,0.138,-1.453,0.053
-999.517,-8.359,-80.817,0.324,-1.604,0.397
-1001.781,-7.081,-81.663,0.770,-1.629,0.771
-1000.856,-11.401,-83.480,1.092,-1.816,1.158
-1001.423,-14.602,-87.988,1.402,-2.114,1.617
-999.963,-14.006,-89.008,1.587,-2.634,2.114
-1000.864,-15.051,-91.713,1.982,-3.244,2.595
-1006.000,-13.000,-94.000,2.520,-3.990,3.220
-998.281,-8.846,-89.669,2.527,-4.813,3.872
-996.324,-2.628,-86.179,2.675,-5.145,3.869
-999.851,0.782,-81.706,3.102,-5.258,3.627
-997.239,1.180,-78.999,3.490,-5.392,3.488
-999.335,0.208,-76.786,3.660,-5.459,3.304
-1002.120,-2.248,-73.450,3.532,-5.138,3.418
-999.738,0.295,-73.036,3.341,-4.745,3.733
-997.953,2.051,-73.919,3.031,-4.695,3.917
-999.616,1.060,-73.644,2.882,-4.570,3.825
-1000.550,1.455,-70.861,2.789,-4.584,3.664
-1000.871,3.389,-72.656,2.671,-4.618,3.603
-998.209,6.339,-71.102,2.635,-4.450,3.324
-997.243,8.656,-66.058,2.455,-4.044,2.754
-999.155,10.066,-67.299,2.286,-3.490,2.244
-999.000,9.000,-67.000,2.030,-3.010,1.890
-999.122,8.793,-66.810,1.604,-2.567,1.639
-997.871,10.020,-67.859,1.259,-2.361,1.428
-999.672,9.079,-68.429,1.072,-2.171,1.064
-1000.522,6.490,-69.832,0.813,-2.055,0.794
-998.023,4.663,-71.677,0.408,-1.836,0.623
-998.090,6.750,-71.695,0.180,-1.479,0.360
-999.154,9.055,-69.921,0.142,-1.397,0.120
-1001.018,8.142,-69.970,0.264,-1.272,-0.188
-998.564,6.326,-70.598,0.462,-1.185,-0.347
-998.547,5.635,-72.708,0.536,-1.261,-0.370
-1000.687,7.130,-72.021,0.628,-1.478,-0.552
-999.044,7.998,-71.015,0.747,-1.703,-0.843
-1000.890,4.433,-72.101,0.764,-1.865,-1.109
-1003.217,-0.567,-70.835,0.678,-1.874,-1.003
-1004.000,-2.000,-71.000,0.420,-1.750,-0.560
-1003.987,-3.662,-68.595,0.103,-1.706,-0.020
-1004.234,-4.001,-66.556,-0.002,-1.419,0.549
-1001.351,-0.209,-68.156,0.024,-1.278,0.978
-996.922,1.805,-66.951,0.182,-1.373,1.218
-999.468,3.845,-65.839,0.423,-1.265,1.102
-1002.091,3.578,-66.047,0.399,-1.081,0.884
-1000.896,3.163,-67.190,0.432,-0.977,0.997
-1000.037,5.958,-70.743,0.559,-0.977,1.240
-999.915,3.722,-72.204,0.543,-1.158,1.538
-999.918,2.550,-71.116,0.674,-1.674,1.783
-999.973,2.948,-71.045,0.636,-1.866,1.861
-1001.756,1.325,-71.025,0.578,-1.848,2.127
-1003.367,0.734,-72.707,0.872,-2.267,2.742
-1005.315,-1.286,-74.067,1.069,-2.910,3.661
-1005.000,-1.000,-75.000,1.260,-3.710,4.760
-1001.352,-0.066,-76.290,1.517,-4.449,5.634
-1000.708,2.167,-71.761,1.591,-5.080,6.266
-1001.485,8.724,-67.639,1.715,-5.519,6.747
-1001.542,12.480,-65.923,1.920,-5.623,6.916
-998.332,15.423,-62.935,1.963,-5.565,6.909
-997.087,20.054,-61.811,2.073,-5.421,6.618
-996.819,24.327,-59.797,2.161,-5.149,6.042
-994.038,27.852,-58.057,1.727,-4.540,5.318
-996.265,28.175,-56.676,1.239,-3.741,4.341
-997.352,27.851,-53.945,1.140,-3.077,3.610
-996.145,28.094,-55.928,1.035,-2.569,3.097
-995.284,27.874,-58.561,0.771,-2.072,2.189
-995.471,26.000,-56.017,0.341,-1.494,1.197
-999.650,21.411,-55.095,-0.030,-0.894,0.651
-1001.000,21.000,-56.000,0.070,-0.490,0.560
-1000.043,20.532,-58.333,0.216,-0.359,0.623
-999.941,17.239,-62.447,0.110,-0.333,0.635
-1000.313,17.589,-62.950,-0.037,-0.452,0.646
-1000.872,18.692,-63.784,-0.255,-0.711,0.806
-998.849,23.017,-65.456,-0.221,-1.040,0.911
-998.122,24.649,-66.216,-0.051,-1.309,0.593
-1000.170,21.909,-67.007,-0.153,-1.484,0.108
-1001.047,22.909,-66.108,-0.276,-1.668,-0.195
-1000.087,22.987,-64.489,-0.289,-1.795,-0.330
-999.923,24.226,-62.383,-0.206,-1.885,-0.429
-999.170,25.107,-62.022,0.001,-1.851,-0.607
-999.227,22.626,-61.533,0.236,-1.830,-0.752
-1001.602,18.530,-61.231,0.263,-1.907,-0.755
-1001.909,14.748,-63.272,0.209,-1.885,-0.595
-1001.000,17.000,-63.000,0.210,-1.960,-0.350
-999.224,19.901,-60.465,0.193,-2.150,-0.270
-999.263,19.457,-57.562,0.416,-2.190,-0.389
-1001.430,17.714,-56.738,0.534,-2.122,-0.413
-1001.505,16.912,-57.115,0.458,-2.059,-0.264
-1000.399,18.942,-56.957,0.511,-1.884,-0.206
-999.988,19.958,-56.954,0.486,-1.838,-0.202
-1001.109,18.946,-57.078,0.652,-1.965,-0.136
-1001.131,19.837,-58.896,0.840,-1.898,-0.136
-999.186,21.188,-58.469,0.776,-1.875,-0.199
-999.279,19.497,-56.991,0.788,-1.911,-0.220
-1000.550,19.247,-57.085,0.648,-1.843,-0.180
-1000.596,20.504,-56.982,0.372,-1.813,-0.091
-999.800,21.202,-56.631,0.268,-1.833,0.035
-1001.391,20.747,-53.522,0.284,-1.894,0.071
-1002.000,19.000,-54.000,0.280,-1.750,0.140
-999.163,20.688,-56.987,0.225,-1.490,0.327
-1000.262,20.713,-55.455,0.064,-1.463,0.413
-1001.236,19.263,-55.220,-0.063,-1.437,0.424
-1000.534,21.279,-57.154,0.118,-1.394,0.412
-1000.955,22.005,-60.229,0.049,-1.544,0.424
-1001.034,22.046,-60.496,-0.256,-1.708,0.298
-1002.065,21.997,-56.786,-0.198,-1.748,0.059
-1001.172,22.886,-56.862,-0.137,-1.685,0.065
-999.807,22.764,-57.443,-0.156,-1.670,0.033
-1001.228,18.769,-54.753,-0.045,-1.694,-0.056
-1002.127,18.949,-54.324,0.046,-1.657,0.207
-1001.149,22.417,-57.353,0.095,-1.737,0.536
-999.477,22.808,-55.759,0.153,-1.831,0.387
-999.012,21.895,-51.684,0.133,-1.720,-0.063
-999.000,22.000,-53.000,0.140,-1.470,-0.280
-999.726,22.930,-54.128,0.155,-1.275,-0.276
-1001.077,22.961,-53.049,0.020,-1.213,-0.404
-1000.014,23.576,-53.892,0.058,-1.124,-0.691
-1000.243,23.898,-55.989,0.221,-1.195,-0.786
-1000.735,22.400,-55.504,0.312,-1.379,-0.780
-999.788,22.082,-55.151,0.341,-1.294,-0.851
-1000.050,23.122,-56.006,0.197,-1.185,-0.840
-1000.051,24.921,-55.098,0.136,-1.124,-0.964
-999.758,23.842,-53.562,0.202,-1.115,-1.115
-1001.263,20.057,-50.748,0.210,-1.035,-1.083
-1001.673,17.805,-50.009,0.217,-0.663,-0.964
-1000.311,16.636,-51.981,0.163,-0.382,-0.716
-1001.386,17.335,-53.161,-0.089,-0.120,-0.504
-1000.653,18.154,-52.987,-0.199,0.083,-0.323
-999.000,21.000,-54.000,-0.000,-0.000,-0.280
-999.902,23.213,-54.980,0.067,-0.247,-0.517
-999.927,20.549,-55.544,0.127,-0.316,-0.773
-1000.440,20.304,-56.457,0.049,-0.258,-0.957
-1000.826,21.560,-55.490,-0.143,-0.494,-0.936
-1001.083,22.249,-56.448,0.007,-0.552,-0.793
-1002.089,21.586,-55.717,0.071,-0.694,-0.775
-1002.009,18.783,-57.254,0.148,-0.915,-0.764
-1002.908,17.019,-58.183,0.088,-0.908,-0.581
-1003.264,18.382,-56.028,-0.082,-0.973,-0.277
-1000.980,20.159,-55.349,0.039,-1.001,-0.040
-998.576,19.898,-52.251,0.091,-1.171,-0.011
-999.895,22.206,-53.982,0.189,-1.316,-0.115
-1002.505,21.035,-50.242,0.223,-1.414,-0.147
-1001.579,18.999,-50.811,0.468,-1.216,-0.225
-998.000,20.000,-53.000,0.490,-1.120,-0.280
-998.490,21.519,-51.382,0.385,-0.920,-0.551
-1000.439,23.159,-53.480,0.561,-0.610,-1.042
-999.161,17.863,-44.607,0.354,-0.856,-1.192
-1003.950,18.998,-56.610,1.304,0.103,-1.362
-1002.930,20.023,-59.768,1.520,0.299,-1.189
-998.990,15.721,-48.636,0.195,-0.397,-0.897
-1003.220,20.372,-59.654,0.478,0.019,-1.052
-1001.244,19.376,-54.768,0.659,-0.437,-0.673
-1002.058,16.762,-52.777,0.524,-0.588,-0.352
-1002.845,17.405,-54.408,1.025,-0.308,-0.274
-998.199,17.362,-53.893,0.843,-0.383,0.084
-1000.384,22.968,-59.824,0.521,-0.190,0.078
-1000.355,24.461,-53.484,0.374,-0.256,-0.141
-1000.344,20.490,-52.485,0.273,-0.364,-0.481
-1002.000,20.000,-54.000,0.210,-0.420,-0.700
-1000.100,21.008,-53.751,0.022,-0.184,-0.515
-1000.781,20.821,-55.495,0.013,-0.052,-0.473
-1000.229,21.481,-58.063,0.219,-0.103,-0.475
-1000.104,19.401,-61.368,0.294,-0.283,-0.346
-1000.803,18.314,-60.267,0.278,-0.718,-0.247
-999.778,21.707,-58.539,0.275,-0.958,-0.216
-1000.034,21.910,-55.833,0.288,-1.206,-0.368
-999.985,21.067,-55.897,0.536,-1.262,-0.614
-1001.433,18.818,-56.188,0.760,-1.351,-0.715
-1002.498,16.524,-56.263,0.703,-1.489,-0.568
-1000.039,18.702,-57.701,0.500,-1.435,-0.416
-998.369,20.625,-55.691,0.410,-1.525,-0.460
-999.532,20.952,-53.635,0.543,-1.509,-0.622
-1001.039,19.768,-54.219,0.730,-1.390,-0.878
-999.000,19.000,-55.000,0.910,-1.470,-0.980
-998.589,18.265,-53.207,0.919,-1.665,-0.862
-1001.034,16.884,-53.507,0.903,-1.645,-0.735
-999.448,18.162,-53.978,0.861,-1.583,-0.638
-999.036,19.610,-51.909,0.680,-1.621,-0.670
-1000.139,20.049,-52.666,0.764,-1.453,-0.846
-1001.383,18.349,-54.183,0.831,-1.324,-1.004
-1003.046,15.927,-53.944,0.770,-1.408,-0.970
-1002.107,16.867,-53.069,0.777,-1.467,-0.785
-1001.773,17.947,-52.222,0.556,-1.524,-0.601
-1002.203,18.030,-50.842,0.357,-1.557,-0.449
-1000.619,17.889,-48.589,0.383,-1.500,-0.393
-999.799,18.385,-48.345,0.439,-1.434,-0.287
-1001.483,19.003,-50.693,0.391,-1.269,-0.206
-1001.980,17.766,-50.835,0.259,-1.100,-0.296
-1002.000,17.000,-50.000,0.140,-0.980,-0.350
-1001.222,16.999,-49.290,0.126,-0.912,-0.359
-1000.611,17.473,-47.738,0.220,-0.846,-0.209
-1001.421,19.790,-49.908,0.067,-0.515,-0.053
-999.456,21.835,-51.150,-0.198,-0.222,-0.117
-999.168,22.045,-51.575,-0.313,-0.104,-0.144
-999.922,23.447,-54.557,-0.344,-0.076,-0.245
-1000.121,23.891,-55.028,-0.194,-0.146,-0.353
-1001.972,21.211,-57.692,-0.070,-0.264,-0.410
-1001.072,19.258,-59.462,-0.173,-0.511,-0.554
-1002.060,18.660,-57.138,-0.287,-0.656,-0.445
-1002.820,20.160,-57.436,-0.218,-0.847,-0.242
-1000.874,20.993,-55.690,-0.065,-1.225,-0.204
-999.626,19.538,-53.835,0.135,-1.440,-0.229
-1000.384,18.986,-53.861,0.297,-1.467,-0.377
-1003.000,19.000,-52.000,0.350,-1.400,-0.490
-1000.487,19.051,-52.758,0.299,-1.332,-0.494
-1000.037,18.281,-52.742,0.168,-1.373,-0.446
-1002.199,17.823,-50.442,0.081,-1.429,-0.365
-1000.909,18.112,-49.491,-0.141,-1.331,-0.365
-1001.256,18.020,-46.679,-0.314,-1.228,-0.467
-1001.924,19.508,-44.964,-0.263,-1.062,-0.580
-1000.905,21.006,-46.088,-0.204,-0.749,-0.635
-1000.011,19.212,-46.914,-0.082,-0.570,-0.757
-1000.713,17.181,-48.615,0.050,-0.395,-0.896
-1001.086,16.476,-49.292,0.090,-0.246,-0.917
-1000.538,15.195,-48.902,0.019,-0.104,-0.869
-1001.070,15.278,-51.647,0.010,0.242,-0.635
-1000.740,16.386,-54.599,-0.034,0.449,-0.350
-1001.206,18.342,-54.992,-0.144,0.406,-0.281
-1002.000,19.000,-55.000,-0.070,0.280,-0.280
-1001.030,17.103,-54.934,-0.229,0.097,-0.164
-1001.715,18.201,-55.837,-0.517,-0.040,-0.030
-1001.518,20.398,-55.145,-0.609,-0.147,0.075
-1000.084,21.602,-53.255,-0.626,-0.272,0.206
-999.921,21.877,-54.773,-0.509,-0.245,0.161
-1001.470,20.718,-54.680,-0.509,-0.112,-0.046
-1002.985,19.976,-54.058,-0.555,0.013,-0.141
-1000.279,20.825,-55.010,-0.368,0.261,-0.077
-998.685,22.973,-54.120,-0.213,0.372,-0.047
-999.861,21.556,-54.525,-0.255,0.238,-0.209
-999.518,21.750,-55.301,-0.288,0.215,-0.360
-1000.194,22.933,-54.346,-0.293,0.164,-0.491
-999.499,20.483,-52.450,-0.370,0.048,-0.691
-999.087,22.309,-52.064,-0.341,0.077,-0.869
-999.000,19.000,-52.000,-0.350,0.070,-1.120
-998.656,15.523,-51.026,-0.257,0.070,-1.323
-1001.587,19.330,-51.143,0.049,0.020,-1.213
-1001.178,15.083,-50.277,-0.072,0.087,-0.911
-1001.297,13.272,-49.998,-0.291,0.554,-0.854
-1001.352,15.078,-49.969,-0.267,0.820,-0.898
-999.967,12.555,-51.657,-0.281,0.848,-0.618
-1002.148,14.244,-54.075,-0.202,0.915,-0.418
-1001.213,15.982,-53.992,-0.202,0.976,-0.486
-999.767,16.583,-54.802,-0.325,0.987,-0.448
-1000.787,18.907,-55.106,-0.438,1.027,-0.350
-1000.302,21.765,-54.628,-0.556,1.301,-0.402
-999.459,23.565,-53.482,-0.526,1.434,-0.587
-998.638,24.344,-54.728,-0.514,1.634,-0.867
-997.965,26.291,-55.890,-0.842,2.016,-1.260
-998.000,27.000,-54.000,-1.330,2.450,-1.820
-997.869,26.258,-53.128,-1.543,3.065,-2.449
-1000.031,23.350,-53.113,-1.406,3.525,-2.649
-1001.624,19.203,-56.994,-1.172,3.874,-2.388
-999.453,17.281,-57.182,-1.156,4.107,-2.345
-998.861,16.883,-56.441,-1.476,4.562,-2.655
-999.064,15.383,-59.407,-1.689,5.155,-2.904
-1002.419,10.535,-59.036,-1.525,5.562,-2.854
-1006.008,4.425,-63.487,-1.467,5.937,-2.433
-1004.849,0.310,-68.407,-1.392,5.829,-1.481
-1006.200,1.276,-71.404,-1.136,5.387,-0.174
-1002.723,6.269,-74.741,-1.200,4.783,0.835
-998.972,11.130,-74.873,-1.247,4.107,1.222
-1000.235,15.057,-74.854,-1.191,3.557,1.140
-1000.052,17.246,-72.609,-1.267,3.269,1.048
-1001.000,19.000,-72.000,-1.190,3.220,1.050
-998.366,21.563,-70.570,-1.067,3.146,0.929
-998.968,23.892,-67.869,-0.913,3.324,0.854
-1000.166,22.568,-68.623,-0.661,3.684,0.773
-997.762,19.895,-66.478,-0.479,4.035,0.606
-999.706,20.019,-66.652,-0.383,4.459,0.403
-998.306,17.037,-68.148,-0.249,5.128,0.160
-999.352,15.005,-70.265,-0.212,5.546,0.070
-1001.335,14.239,-68.762,-0.100,5.839,0.134
-994.563,11.611,-59.094,0.533,6.504,0.161
-998.350,16.244,-76.487,0.992,6.995,0.001
-1002.900,17.156,-88.200,0.505,6.999,-0.127
-995.241,12.581,-68.084,-0.175,6.697,-0.184
-997.976,18.774,-78.468,-0.006,7.400,-0.435
-999.368,21.345,-83.029,0.275,8.178,-0.564
-996.000,14.000,-68.000,-0.070,8.680,-0.560
-1002.376,18.536,-79.620,-0.207,10.210,-0.510
-999.670,22.815,-88.253,-0.412,11.076,-0.404
-994.009,16.529,-92.974,-0.794,11.080,-0.565
-999.217,20.639,-100.484,-0.680,10.323,-0.848
-999.969,21.666,-101.805,-1.156,9.409,-1.038
-996.401,16.553,-95.867,-2.007,9.320,-1.155
-997.162,20.349,-87.687,-1.614,9.570,-1.506
-997.233,21.118,-87.903,-0.990,10.866,-1.819
-993.405,21.387,-89.647,-1.102,12.228,-1.686
-994.266,22.922,-98.697,-0.995,13.191,-1.906
-997.511,19.244,-102.900,-0.919,13.764,-2.344
-997.761,15.832,-100.098,-1.140,13.651,-2.519
-997.889,14.556,-101.310,-1.077,13.785,-2.712
-996.860,11.421,-101.110,-0.962,13.870,-2.617
-997.000,10.000,-105.000,-0.770,14.210,-2.310
-995.445,12.028,-109.370,-0.755,14.566,-2.242
-994.165,9.730,-113.005,-0.618,14.323,-2.089
-997.618,9.633,-110.234,0.113,13.933,-1.603
-998.834,11.502,-111.325,0.466,13.486,-1.231
-997.057,8.808,-118.925,0.654,13.220,-0.901
-995.835,8.083,-114.492,0.893,13.208,-0.470
-997.199,7.960,-114.339,1.476,14.020,-0.104
-999.003,8.808,-117.876,2.594,15.007,0.627
-997.561,10.428,-121.860,2.995,15.257,1.595
-994.386,6.473,-132.404,3.196,15.117,2.617
-990.783,5.657,-140.562,3.502,14.435,3.460
-992.279,11.725,-145.799,3.088,13.633,3.513
-995.502,10.828,-143.753,2.675,12.758,3.441
-994.779,9.309,-143.608,2.823,12.489,3.496
-993.000,13.000,-150.000,2.520,12.740,3.430
-990.242,12.923,-155.932,1.825,12.440,3.498
-990.397,16.284,-163.242,1.385,12.087,3.335
-992.015,20.043,-167.243,0.676,10.743,2.971
-993.979,20.378,-168.409,0.585,8.781,2.846
-994.307,25.265,-167.349,1.057,7.108,3.046
-989.818,28.064,-167.267,1.129,5.155,3.230
-988.084,26.960,-167.939,1.352,3.697,2.978
-989.941,27.892,-166.970,1.474,2.853,2.493
-988.696,28.237,-168.041,1.367,2.196,1.808
-985.945,27.223,-166.238,1.150,1.326,0.904
-986.978,26.148,-162.808,0.946,0.283,0.068
-990.337,21.134,-156.798,0.872,-0.388,-0.502
-992.247,15.941,-152.325,0.730,-0.561,-0.734
-991.857,16.295,-151.773,0.699,-0.384,-0.578
-991.000,18.000,-149.000,0.630,-0.140,-0.140
-990.162,18.851,-150.400,0.667,0.069,0.012
-989.155,19.844,-153.616,0.922,-0.148,-0.099
-988.693,19.654,-154.067,1.038,-0.528,-0.307
-989.220,18.283,-154.346,1.076,-0.738,-0.702
-989.858,18.021,-157.513,1.131,-1.046,-0.884
-988.695,18.011,-160.275,1.000,-1.414,-1.137
-990.278,19.143,-158.740,0.837,-1.778,-1.485
-992.978,20.058,-154.294,0.964,-2.144,-1.421
-992.118,18.980,-154.040,1.152,-2.448,-1.027
-991.923,19.866,-157.016,1.311,-2.864,-0.540
-991.485,19.062,-152.905,1.218,-3.346,-0.346
-992.521,17.874,-152.982,0.747,-3.229,-0.356
-992.539,19.511,-153.484,0.424,-2.970,-0.341
-990.841,20.064,-152.080,0.352,-3.128,-0.265
-990.000,22.000,-153.000,0.490,-3.640,-0.280
-988.926,24.834,-153.432,0.578,-4.100,-0.684
-989.908,23.528,-156.395,0.390,-4.289,-1.249
-989.810,17.866,-147.235,0.348,-4.705,-1.591
-993.097,15.928,-143.217,0.279,-4.355,-1.321
-994.403,19.344,-149.950,0.092,-3.685,-0.957
-991.508,19.732,-144.874,0.289,-3.839,-0.889
-992.086,19.043,-139.024,0.571,-3.670,-0.687
-991.227,20.814,-147.933,0.566,-3.165,-0.809
-987.661,23.395,-156.605,0.504,-3.376,-1.287
-986.650,25.585,-150.366,0.404,-3.802,-1.855
-989.773,26.411,-150.708,0.320,-3.962,-2.771
-988.828,27.685,-153.529,0.597,-4.662,-3.656
-989.979,27.481,-154.709,1.026,-5.349,-4.209
-991.789,23.233,-152.938,1.300,-6.002,-4.695
-989.000,20.000,-146.000,1.610,-6.580,-5.110
-990.814,21.502,-153.583,1.809,-6.596,-5.453
-989.471,24.122,-156.481,1.895,-7.448,-6.156
-991.172,20.582,-151.461,2.191,-8.630,-7.009
-998.448,9.897,-144.755,2.620,-9.658,-7.164
-999.365,3.998,-138.713,3.163,-10.256,-6.281
-996.017,5.200,-138.533,3.655,-10.008,-5.073
-994.145,1.491,-130.221,3.693,-9.769,-4.369
-1000.435,-4.681,-124.178,3.205,-8.792,-3.651
-1003.049,-6.966,-121.667,2.376,-7.351,-2.319
-996.668,-5.563,-120.389,1.532,-6.249,-0.794
-994.118,-1.403,-121.016,0.894,-5.381,0.385
-995.045,0.769,-116.449,0.437,-4.750,0.946
-993.231,4.644,-113.799,0.146,-3.926,0.936
-993.254,9.455,-115.273,0.166,-3.207,0.745
-994.000,10.000,-116.000,0.420,-2.800,0.630
-992.866,10.800,-118.143,0.604,-2.266,0.398
-994.689,11.296,-124.614,0.825,-1.748,0.155
-994.549,9.893,-126.818,1.061,-1.671,0.204
-996.041,7.912,-128.324,1.179,-1.630,0.373
-996.123,6.877,-132.376,1.290,-1.516,0.570
-993.755,8.610,-134.340,1.114,-1.541,0.720
-995.100,11.134,-134.957,0.747,-1.465,0.693
-995.013,11.939,-133.988,0.570,-1.587,0.569
-995.846,14.123,-135.038,0.403,-1.901,0.496
-994.353,17.445,-132.578,0.161,-2.084,0.409
-990.991,18.448,-129.863,-0.042,-2.051,-0.064
-991.423,19.228,-129.438,-0.024,-1.895,-0.686
-993.567,17.048,-126.075,0.227,-1.920,-1.089
-993.802,16.159,-127.620,0.442,-2.050,-1.458
-992.000,16.000,-131.000,0.490,-2.170,-1.820
-992.769,12.188,-131.144,0.484,-2.289,-2.132
-993.262,14.001,-129.596,0.546,-2.456,-2.325
-992.104,15.480,-128.436,0.563,-2.653,-2.606
-991.846,14.922,-129.885,0.567,-2.833,-3.260
-993.904,14.137,-129.246,0.526,-3.143,-3.941
-996.226,8.691,-126.409,0.401,-3.394,-4.218
-995.982,5.910,-124.902,0.507,-3.432,-4.036
-996.864,3.355,-122.305,0.693,-3.499,-3.673
-998.674,-1.325,-119.063,0.752,-3.280,-3.116
-998.746,-2.481,-120.837,0.837,-2.643,-2.283
-995.800,-0.932,-122.495,0.761,-2.312,-1.501
-994.950,0.779,-121.774,0.509,-2.318,-1.021
-996.254,2.472,-121.630,0.291,-2.321,-1.025
-997.182,3.002,-117.236,0.219,-2.478,-1.110
-997.000,4.000,-116.000,0.490,-2.450,-0.840
-993.385,6.777,-117.204,0.710,-1.981,-0.634
-992.760,6.525,-115.757,0.499,-1.375,-0.709
-993.059,4.933,-117.164,0.318,-0.794,-0.923
-996.061,2.219,-115.618,0.205,-0.302,-0.916
-999.127,-0.718,-115.917,-0.015,0.191,-0.360
-994.705,0.507,-119.590,-0.174,0.543,0.347
-993.134,2.073,-119.993,-0.366,0.634,0.551
-995.837,2.942,-120.041,-0.490,0.755,0.236
-996.951,3.110,-119.044,-0.438,0.950,0.099
-996.752,2.874,-120.139,-0.341,1.002,0.401
-997.352,2.867,-121.723,-0.174,0.972,0.817
-997.518,1.066,-122.456,-0.191,1.172,1.255
-995.220,1.785,-124.908,-0.413,1.353,1.644
-995.219,5.439,-128.608,-0.497,1.229,1.834
-996.000,6.000,-131.000,-0.630,0.980,1.820
-994.233,6.690,-129.325,-0.772,0.621,1.702
-993.756,8.545,-128.095,-0.668,0.244,1.533
-994.100,10.859,-127.546,-0.590,-0.080,1.332
-993.164,15.330,-126.061,-0.452,-0.328,1.185
-993.046,15.340,-124.673,-0.027,-0.466,0.912
-994.041,13.935,-126.828,0.343,-0.589,0.462
-992.889,13.932,-130.185,0.497,-0.710,0.196
-992.883,12.134,-131.899,0.499,-0.890,-0.044
-994.652,11.084,-132.231,0.313,-1.229,-0.374
-995.640,10.959,-131.616,0.323,-1.697,-0.476
-995.541,10.706,-132.204,0.570,-2.216,-0.550
-994.195,9.566,-129.492,0.657,-2.774,-0.692
-993.950,10.326,-129.403,0.855,-3.175,-0.807
-994.074,9.866,-128.531,1.065,-3.393,-0.925
-995.000,12.000,-126.000,1.050,-3.640,-1.050
-993.345,13.707,-123.775,1.103,-3.783,-1.460
-994.170,7.149,-120.211,1.160,-3.614,-1.825
-998.895,6.532,-123.609,0.854,-3.180,-1.653
-994.157,5.758,-115.880,0.212,-2.634,-1.489
-992.832,4.252,-109.775,0.009,-1.976,-1.399
-997.463,7.564,-114.820,0.269,-1.335,-0.923
-994.720,6.896,-115.110,0.348,-0.885,-0.629
-993.905,6.970,-119.696,0.284,-0.764,-0.820
-994.819,5.680,-120.096,0.269,-0.889,-1.021
-996.121,3.305,-123.312,0.306,-0.944,-1.089
-996.821,3.096,-127.571,0.174,-1.123,-0.890
-995.038,5.521,-124.662,0.008,-1.534,-0.554
-995.018,8.654,-125.247,-0.116,-1.918,-0.393
-995.057,9.002,-122.269,-0.203,-2.025,-0.441
-996.000,9.000,-119.000,0.070,-1.890,-0.630
-995.106,7.288,-117.278,0.336,-1.604,-0.649
-996.745,6.153,-116.628,0.356,-1.159,-0.485
-998.632,5.708,-117.759,0.325,-0.904,-0.227
-993.940,7.061,-118.347,0.193,-0.747,0.071
-993.597,7.730,-119.031,-0.000,-0.581,-0.025
-996.381,5.669,-117.710,-0.067,-0.567,-0.333
-997.024,6.042,-119.280,0.004,-0.638,-0.341
-996.185,5.125,-122.836,0.002,-0.761,-0.216
-993.991,4.706,-123.269,-0.004,-0.874,-0.195
-995.225,6.267,-122.091,-0.002,-1.061,-0.301
-995.612,8.560,-122.160,0.048,-1.143,-0.400
-994.278,10.629,-121.226,0.228,-1.121,-0.451
-993.788,9.300,-119.872,0.412,-1.227,-0.624
-994.272,6.558,-121.258,0.664,-1.255,-0.785
-997.000,4.000,-122.000,0.630,-1.260,-0.770
-997.205,3.812,-122.103,0.312,-1.488,-0.483
-996.081,5.392,-120.028,0.252,-1.786,-0.124
-995.796,7.421,-117.669,0.360,-1.765,-0.051
-995.829,7.846,-118.782,0.481,-1.601,-0.095
-995.769,6.660,-118.617,0.446,-1.488,-0.177
-996.076,7.181,-117.951,0.226,-1.284,-0.200
-995.928,6.936,-116.788,0.064,-1.186,-0.139
-994.994,6.913,-113.184,0.125,-1.067,-0.205
-995.884,8.005,-114.012,0.328,-0.820,-0.176
-994.734,7.271,-117.721,0.322,-0.630,-0.020
-993.477,7.329,-117.297,0.230,-0.441,-0.065
-996.420,8.136,-117.347,0.210,-0.287,-0.355
-997.989,6.228,-117.981,0.348,-0.182,-0.489
-996.791,5.007,-118.229,0.584,-0.138,-0.218
-996.000,6.000,-121.000,0.560,-0.140,0.210
-995.979,6.929,-120.450,0.491,-0.141,0.360
-995.999,7.016,-118.572,0.492,-0.101,0.272
-995.805,7.443,-121.037,0.513,-0.005,0.392
-995.802,8.290,-121.839,0.619,-0.035,0.587
-995.751,8.042,-120.945,0.581,-0.054,0.787
-994.436,10.893,-123.898,0.258,0.117,0.904
-991.880,13.033,-126.004,-0.088,0.205,0.595
-992.787,13.830,-125.049,-0.147,-0.042,0.108
-994.941,15.925,-125.057,0.013,-0.363,-0.384
-994.101,15.330,-123.771,0.306,-0.631,-0.784
-994.104,14.145,-122.773,0.519,-0.976,-1.127
-995.313,9.253,-125.165,0.408,-1.026,-1.469
-996.244,5.404,-123.984,0.237,-0.997,-1.516
-997.027,4.904,-120.795,0.124,-1.138,-1.283
-996.000,5.000,-122.000,0.070,-1.190,-0.980
-995.794,6.950,-121.371,0.079,-1.363,-0.902
-996.982,5.619,-119.875,-0.040,-1.567,-0.930
-996.249,4.575,-119.935,-0.028,-1.718,-0.851
-995.340,6.087,-117.527,0.173,-1.957,-0.859
-994.620,9.044,-117.340,0.211,-2.167,-0.970
-995.111,8.521,-117.960,0.321,-2.248,-1.272
-994.972,8.131,-118.079,0.417,-2.238,-1.556
-995.852,9.109,-119.020,0.289,-2.236,-1.737
-996.452,7.731,-118.091,0.221,-2.347,-1.830
-994.425,9.043,-118.180,0.157,-2.444,-1.761
-996.473,4.691,-117.082,0.148,-2.490,-1.733
-995.718,6.273,-117.830,0.057,-2.668,-1.643
-995.872,7.824,-116.469,-0.340,-2.458,-1.850
-1000.314,-0.943,-108.010,-0.473,-1.873,-1.817
-997.000,2.000,-111.000,-0.210,-1.400,-0.910
-995.566,5.255,-117.159,-0.234,-1.077,-0.417
-998.035,3.294,-113.587,-0.601,-0.924,-0.579
-996.635,2.332,-114.141,-0.830,-0.564,-0.621
-995.113,2.722,-114.343,-0.777,-0.385,-0.229
-995.048,6.303,-113.274,-0.537,-0.382,0.172
-995.945,6.855,-118.193,-0.522,-0.069,0.100
-993.853,5.896,-118.799,-0.707,-0.005,-0.001
-995.632,4.081,-116.929,-0.641,-0.005,0.058
-998.462,5.248,-119.462,-0.561,-0.028,0.293
-994.745,7.775,-120.297,-0.532,-0.198,0.408
-994.025,8.281,-119.755,-0.410,-0.188,0.205
-995.243,9.660,-120.142,-0.293,-0.281,-0.070
-996.265,9.967,-119.866,-0.040,-0.478,-0.478
-995.731,10.004,-120.122,0.334,-0.656,-0.719
-995.000,9.000,-121.000,0.560,-0.770,-0.840
-997.725,6.404,-121.037,0.620,-0.827,-0.922
-997.516,4.302,-120.967,0.694,-0.902,-0.793
-996.110,3.892,-120.688,0.635,-0.929,-0.779
-995.200,4.033,-118.662,0.516,-1.067,-0.690
-995.228,4.018,-116.076,0.607,-1.099,-0.506
-997.229,3.938,-114.873,0.619,-0.944,-0.495
-995.822,4.073,-115.025,0.639,-0.833,-0.489
-994.932,5.864,-115.014,0.766,-0.771,-0.490
-996.542,6.324,-115.560,0.723,-0.773,-0.487
-997.878,4.508,-117.616,0.620,-0.752,-0.535
-996.803,4.082,-117.591,0.431,-0.882,-0.550
-995.558,5.983,-116.944,0.360,-1.206,-0.437
-995.804,7.251,-118.637,0.547,-1.461,-0.435
-993.720,8.158,-120.144,0.541,-1.542,-0.501
-995.000,8.000,-120.000,0.420,-1.540,-0.630
-997.071,6.080,-118.193,0.365,-1.596,-0.770
-996.031,7.261,-118.426,0.241,-1.705,-0.667
-996.082,8.937,-119.602,0.194,-1.849,-0.660
-995.024,8.996,-117.557,0.220,-1.902,-0.924
-995.412,8.711,-115.216,0.204,-1.868,-1.092
-997.075,6.302,-113.699,0.210,-1.690,-1.117
-995.922,3.880,-112.959,0.129,-1.376,-1.042
-996.826,3.045,-112.070,0.005,-1.014,-0.922
-998.168,2.224,-112.447,-0.004,-0.559,-0.656
-996.419,1.724,-114.781,-0.000,-0.474,-0.245
-995.575,2.689,-114.380,0.024,-0.704,-0.049
-995.904,2.953,-114.210,0.113,-0.784,0.031
-996.061,3.235,-115.262,0.130,-0.754,-0.052
-997.174,4.055,-116.191,0.065,-0.693,-0.228
-997.000,4.000,-117.000,0.140,-0.700,-0.280
-996.009,4.832,-116.099,0.215,-0.754,-0.295
-996.075,5.724,-116.028,0.186,-0.918,-0.118
-995.623,6.753,-115.368,0.312,-1.060,-0.076
-996.095,6.662,-115.152,0.327,-0.994,-0.195
-995.326,5.972,-116.441,0.278,-0.855,-0.230
-995.121,7.308,-117.177,0.253,-0.762,-0.394
-996.038,6.884,-118.026,-0.022,-0.851,-0.492
-996.023,5.976,-117.123,-0.083,-0.972,-0.550
-995.281,6.820,-116.045,0.154,-1.133,-0.684
-994.418,7.181,-115.981,0.396,-1.336,-0.701
-995.701,6.174,-116.021,0.587,-1.200,-0.748
-995.479,4.119,-115.686,0.465,-0.958,-0.923
-996.631,4.391,-114.797,0.360,-0.913,-0.966
-997.965,4.831,-115.111,0.602,-1.003,-0.813
-997.000,2.000,-116.000,0.700,-1.190,-0.700
-997.840,0.075,-117.010,0.685,-1.315,-0.703
-998.162,0.431,-115.620,0.818,-1.431,-0.580
-996.854,2.925,-114.959,0.811,-1.546,-0.279
-994.989,4.281,-117.002,0.765,-1.741,-0.241
-996.992,4.387,-116.702,0.908,-2.092,-0.401
-997.581,7.785,-117.211,0.969,-2.256,-0.420
-996.024,7.838,-116.924,0.831,-2.317,-0.499
-997.030,6.083,-116.942,0.834,-2.440,-0.562
-995.882,3.861,-115.843,0.856,-2.568,-0.463
-997.530,1.842,-114.058,0.789,-2.573,-0.206
-996.509,5.349,-120.358,0.689,-2.512,0.137
-997.242,2.700,-117.649,0.495,-3.080,0.389
-1001.417,0.194,-109.650,0.748,-3.656,0.626
-995.848,3.333,-112.638,0.793,-3.356,0.702
-993.000,3.000,-111.000,0.350,-3.080,0.840
-996.528,3.671,-103.759,0.285,-2.935,1.217
-997.643,6.622,-102.093,0.095,-2.317,1.310
-994.234,11.100,-105.855,-0.098,-1.739,1.072
-992.566,11.558,-106.563,-0.023,-1.514,0.707
-994.683,11.393,-104.527,0.021,-1.312,0.362
-996.340,11.489,-106.766,0.189,-1.063,-0.030
-998.090,6.667,-109.097,0.357,-0.823,-0.364
-998.026,5.048,-109.937,0.298,-0.641,-0.358
-998.698,2.800,-110.807,-0.009,-0.516,-0.247
-998.612,0.763,-111.266,-0.152,-0.455,-0.003
-996.794,1.267,-109.897,-0.108,-0.603,0.374
-997.076,1.137,-108.842,-0.015,-0.746,0.709
-996.625,4.144,-110.746,0.080,-0.781,0.979
-995.984,6.082,-111.976,-0.019,-0.852,1.040
-996.000,7.000,-110.000,-0.070,-0.910,0.840
-995.958,10.473,-108.802,-0.072,-0.971,0.643
-996.077,12.739,-110.734,0.015,-0.995,0.559
-995.632,13.604,-110.409,0.155,-0.908,0.213
-996.303,13.747,-110.243,0.071,-0.750,-0.184
-996.926,10.563,-111.112,-0.016,-0.540,-0.297
-996.976,8.985,-111.228,0.006,-0.305,-0.263
-996.979,8.927,-114.259,-0.002,-0.289,-0.213
-996.089,7.992,-115.146,-0.005,-0.474,-0.399
-995.712,8.273,-112.484,0.109,-0.705,-0.614
-997.302,5.912,-111.575,0.228,-0.979,-0.603
-997.687,4.706,-112.823,0.415,-1.122,-0.476
-996.030,4.866,-112.376,0.642,-1.262,-0.406
-996.351,3.710,-110.643,0.594,-1.325,-0.413
-998.228,4.196,-111.138,0.570,-1.255,-0.242
-998.000,6.000,-111.000,0.630,-1.330,0.000
-996.160,7.769,-110.821,0.566,-1.455,0.136
-995.891,9.923,-112.057,0.565,-1.527,0.026
-995.817,12.992,-110.474,0.508,-1.575,-0.304
-996.118,11.857,-107.808,0.548,-1.638,-0.514
-997.106,11.184,-108.708,0.787,-1.560,-0.725
-996.810,10.289,-110.069,0.829,-1.457,-0.948
-997.093,5.741,-108.874,0.767,-1.390,-0.974
-998.018,4.987,-107.988,0.707,-1.202,-0.791
-997.102,4.215,-108.764,0.631,-1.122,-0.528
-997.411,4.493,-109.243,0.676,-1.117,-0.437
-997.655,4.831,-108.325,0.692,-1.128,-0.357
-996.299,3.968,-107.968,0.559,-1.092,-0.221
-997.491,7.205,-107.840,0.484,-1.044,-0.097
-997.879,9.055,-106.868,0.483,-1.050,0.002
-997.000,9.000,-107.000,0.350,-1.050,-0.140
-997.025,8.257,-107.971,0.333,-1.057,-0.221
-996.816,6.913,-107.315,0.389,-0.989,-0.140
-997.601,8.133,-107.154,0.200,-0.989,-0.183
-997.162,9.416,-108.882,0.166,-0.934,-0.217
-995.286,8.547,-108.720,0.356,-0.944,-0.206
-996.457,7.920,-109.392,0.529,-1.059,-0.216
-998.052,6.855,-111.066,0.630,-0.975,-0.287
-998.013,5.058,-111.036,0.503,-1.099,-0.349
-998.037,5.611,-110.279,0.415,-1.314,-0.307
-996.791,7.362,-109.188,0.432,-1.333,-0.144
-994.612,8.785,-108.352,0.405,-1.313,-0.016
-995.766,8.888,-105.608,0.439,-1.183,-0.163
-996.873,9.312,-105.385,0.394,-0.998,-0.307
-996.031,9.923,-105.791,0.354,-0.902,-0.357
-998.000,8.000,-104.000,0.420,-0.840,-0.350
-997.410,7.015,-106.481,0.424,-0.712,-0.282
-995.694,6.454,-108.187,0.412,-0.731,-0.289
-997.125,5.102,-107.638,0.459,-0.833,-0.233
-998.358,5.387,-108.874,0.510,-0.849,-0.195
-998.584,6.194,-110.374,0.460,-0.966,-0.078
-994.869,5.925,-109.674,0.423,-1.066,-0.008
-994.329,7.214,-109.021,0.496,-1.207,-0.066
-1000.678,9.928,-109.072,0.496,-1.397,0.125
-1000.062,8.607,-108.011,0.377,-1.291,0.166
-996.612,7.383,-108.293,0.321,-1.280,0.108
-997.759,9.045,-106.684,0.433,-1.324,0.198
-997.079,8.385,-106.293,0.494,-1.055,0.204
-995.703,8.341,-106.768,0.372,-0.993,0.211
-996.151,10.215,-104.783,0.276,-0.959,0.116
-997.000,10.000,-105.000,0.350,-0.840,-0.070
-996.239,9.031,-104.969,0.473,-0.902,-0.308
-994.974,9.100,-106.339,0.591,-0.909,-0.533
-995.739,8.049,-107.433,0.669,-0.926,-0.563
-998.037,5.817,-106.601,0.532,-0.844,-0.569
-998.775,4.810,-107.325,0.370,-0.757,-0.519
-997.678,5.215,-106.595,0.251,-0.766,-0.287
-996.964,7.195,-104.945,0.218,-0.695,-0.058
-996.088,8.979,-105.851,0.408,-0.637,0.002
-995.711,8.208,-107.077,0.436,-0.510,-0.055
-997.276,8.338,-106.581,0.437,-0.515,-0.116
-998.026,9.902,-108.638,0.560,-0.608,-0.180
-997.643,9.645,-110.175,0.539,-0.677,-0.233
-998.234,8.765,-108.309,0.590,-0.930,-0.307
-999.044,7.821,-106.872,0.623,-1.140,-0.345
-998.000,7.000,-107.000,0.560,-1.190,-0.210
-996.156,7.792,-107.992,0.620,-1.184,-0.078
-995.789,8.893,-107.251,0.636,-1.283,-0.096
-996.855,8.666,-106.976,0.655,-1.398,-0.305
-998.440,6.954,-106.504,0.734,-1.375,-0.468
-996.927,5.872,-106.259,0.641,-1.289,-0.207
-996.053,7.599,-108.373,0.445,-1.165,0.123
-997.048,10.152,-106.706,0.269,-1.118,0.127
-997.024,11.017,-103.152,0.207,-1.055,-0.183
-996.328,10.234,-102.767,0.316,-1.041,-0.370
-994.786,9.723,-103.778,0.424,-1.032,-0.225
-995.818,10.718,-103.994,0.356,-0.885,-0.300
-997.093,10.598,-104.206,0.246,-0.819,-0.494
-996.952,8.124,-105.377,0.312,-0.748,-0.588
-998.323,5.707,-106.035,0.345,-0.784,-0.622
-1000.000,5.000,-106.000,0.280,-0.770,-0.420
-998.442,6.682,-106.000,0.164,-0.632,-0.117
-996.687,7.957,-105.934,0.059,-0.690,0.157
-997.860,8.322,-106.840,0.134,-0.678,0.239
-997.049,9.834,-109.140,0.081,-0.813,0.170
-997.301,9.642,-107.999,-0.017,-1.042,0.122
-997.693,9.021,-105.780,-0.001,-1.043,0.053
-995.963,10.118,-105.972,-0.076,-1.052,-0.003
-996.943,11.870,-104.153,-0.076,-1.053,-0.063
-996.274,12.415,-103.750,0.037,-0.957,-0.223
-996.077,9.403,-104.208,0.179,-0.714,-0.482
-998.085,6.476,-104.353,0.198,-0.545,-0.610
-998.901,6.103,-107.668,0.082,-0.438,-0.449
-997.169,7.589,-109.054,-0.039,-0.464,-0.110
-996.131,9.160,-109.018,-0.151,-0.742,-0.010
-998.000,10.000,-108.000,-0.140,-0.910,-0.140
-997.209,10.987,-106.029,-0.079,-1.036,-0.145
-996.803,10.264,-106.827,-0.014,-1.024,-0.135
-996.887,10.277,-106.474,0.000,-0.907,-0.164
-997.090,11.747,-105.837,0.054,-0.943,-0.304
-998.095,11.855,-105.966,0.327,-1.000,-0.466
-997.837,10.555,-106.155,0.514,-1.062,-0.490
-998.088,7.774,-107.027,0.562,-1.045,-0.489
-999.875,6.007,-106.957,0.505,-0.981,-0.429
-999.704,7.360,-108.594,0.253,-1.022,-0.261
-995.775,10.191,-108.806,0.242,-1.183,-0.075
-994.873,11.706,-106.946,0.545,-1.359,-0.180
-996.461,12.172,-107.286,0.608,-1.396,-0.501
-997.009,11.614,-106.501,0.447,-1.281,-0.778
-997.015,9.751,-104.789,0.421,-1.092,-0.912
-998.000,9.000,-104.000,0.350,-0.980,-0.770
-998.310,8.146,-104.770,0.273,-0.973,-0.581
-995.986,7.866,-105.438,0.350,-1.068,-0.487
-997.621,7.752,-103.455,0.293,-1.230,-0.569
-998.808,6.132,-103.555,0.340,-1.237,-0.625
-997.554,6.326,-105.578,0.401,-1.186,-0.382
-997.883,7.143,-104.412,0.160,-1.289,-0.288
-995.848,8.096,-101.883,0.227,-1.327,-0.350
-995.891,8.970,-101.942,0.292,-1.265,-0.283
-996.858,9.684,-101.531,0.136,-1.162,-0.367
-997.973,10.521,-99.175,0.220,-0.940,-0.589
-999.437,8.303,-100.122,0.088,-0.682,-0.602
-997.866,6.574,-103.520,0.024,-0.492,-0.349
-996.673,7.446,-105.253,0.153,-0.517,-0.084
-995.955,9.231,-104.872,-0.036,-0.555,-0.179
-997.000,9.000,-104.000,-0.070,-0.490,-0.420
-998.000,7.915,-102.322,0.063,-0.490,-0.375
-997.939,8.924,-101.408,0.069,-0.484,-0.235
-997.473,8.756,-104.114,0.081,-0.533,-0.169
-996.276,9.765,-104.788,0.022,-0.566,-0.117
-997.494,9.418,-103.801,-0.130,-0.563,-0.186
-997.738,7.859,-103.925,-0.218,-0.544,-0.284
-997.032,7.969,-102.962,-0.210,-0.410,-0.121
-997.966,7.026,-103.889,-0.272,-0.350,0.063
-997.943,7.748,-104.207,-0.345,-0.347,0.170
-998.095,8.507,-103.730,-0.354,-0.420,0.335
-996.622,10.612,-104.238,-0.307,-0.596,0.295
-996.068,12.228,-103.746,-0.105,-0.610,0.131
-998.727,10.386,-104.172,0.012,-0.551,-0.052
-998.769,10.108,-103.934,0.001,-0.559,-0.050
-997.000,11.000,-105.000,-0.000,-0.490,0.070
-996.903,11.135,-106.214,-0.180,-0.479,-0.050
-997.128,9.575,-103.646,-0.248,-0.519,-0.087
-996.618,8.158,-103.049,-0.132,-0.362,-0.036
-997.036,8.197,-105.192,-0.187,-0.228,0.088
-996.570,9.725,-105.946,-0.199,-0.203,0.253
-997.231,11.254,-104.722,-0.236,-0.226,0.174
-996.858,12.041,-105.096,-0.353,-0.362,-0.016
-995.879,11.190,-105.133,-0.229,-0.483,-0.202
-998.640,9.018,-103.752,0.021,-0.551,-0.179
-997.795,9.934,-106.165,0.156,-0.566,-0.019
-996.305,8.877,-106.804,0.039,-0.553,-0.029
-997.096,8.377,-105.710,-0.130,-0.581,-0.075
-996.858,10.305,-105.961,-0.123,-0.647,0.057
-996.988,8.687,-104.837,-0.063,-0.618,0.232
-996.000,9.000,-105.000,-0.070,-0.560,0.350
-995.835,11.669,-105.875,-0.133,-0.566,0.425
-996.850,13.013,-106.327,-0.179,-0.496,0.287
-996.846,12.407,-104.151,-0.310,-0.559,0.054
-996.768,11.889,-102.849,-0.317,-0.652,0.003
-996.897,11.971,-104.467,-0.157,-0.471,0.116
-996.837,12.171,-103.823,-0.141,-0.337,0.124
-995.966,12.992,-105.167,-0.061,-0.269,-0.013
-996.855,11.190,-105.176,-0.061,-0.080,-0.197
-998.111,9.919,-103.706,-0.106,-0.099,-0.246
-996.428,10.221,-105.673,0.133,-0.257,-0.043
-996.201,9.383,-105.468,0.237,-0.304,-0.027
-999.035,8.880,-104.924,0.200,-0.384,-0.063
-998.223,9.172,-105.028,0.205,-0.309,0.023
-997.099,10.168,-106.310,0.125,-0.298,0.085
-998.000,11.000,-107.000,0.070,-0.420,0.210
-996.186,11.830,-105.860,0.067,-0.351,0.160
-996.543,12.839,-107.798,0.112,-0.489,0.076
-997.016,13.051,-106.720,0.221,-0.635,0.039
-997.026,12.990,-106.814,0.333,-0.654,-0.023
-998.004,12.957,-109.587,0.342,-0.861,0.019
-996.421,13.141,-107.277,0.366,-0.998,-0.021
-994.979,14.021,-105.963,0.418,-1.052,-0.153
-995.865,12.256,-104.201,0.291,-0.934,-0.400
-997.698,9.925,-103.468,0.220,-0.515,-0.522
-998.022,11.375,-105.445,0.096,-0.233,-0.291
-997.405,12.498,-103.005,-0.101,-0.193,-0.176
-995.942,13.647,-102.442,0.009,-0.068,-0.244
-995.018,13.627,-104.228,0.056,-0.006,-0.299
-997.413,11.834,-102.750,0.002,-0.073,-0.353
-998.000,12.000,-104.000,0.070,0.070,-0.280
-997.005,11.943,-107.748,-0.036,0.269,-0.209
-997.076,13.401,-107.428,-0.245,0.242,-0.255
-996.653,14.032,-107.150,-0.295,0.157,-0.355
-996.980,11.690,-108.567,-0.270,0.116,-0.483
-996.771,10.825,-107.320,-0.286,0.048,-0.448
-998.515,9.631,-107.204,-0.280,0.091,-0.212
-998.852,9.052,-108.020,-0.360,0.138,0.173
-996.135,10.817,-108.016,-0.483,0.073,0.542
-995.842,13.394,-106.717,-0.596,0.068,0.638
-995.966,15.586,-103.537,-0.681,0.090,0.560
-995.378,16.197,-103.251,-0.468,0.308,0.318
-994.415,15.459,-104.644,-0.322,0.610,0.008
-995.570,13.291,-106.711,-0.352,0.728,-0.198
-997.073,11.842,-108.074,-0.263,0.862,-0.369
-997.000,10.000,-109.000,-0.210,0.910,-0.350
-997.881,7.985,-111.702,-0.265,0.798,-0.224
-998.059,9.434,-112.746,-0.346,0.534,-0.123
-997.479,10.590,-113.825,-0.316,0.179,0.074
-995.608,12.362,-113.248,-0.231,-0.006,0.145
-995.124,16.577,-111.488,-0.062,-0.107,0.003
-997.383,17.943,-110.767,0.090,-0.134,-0.184
-996.853,16.945,-110.035,0.148,-0.064,-0.361
-995.062,16.980,-111.875,0.276,-0.004,-0.420
-995.571,16.423,-111.515,0.185,0.056,-0.416
-996.865,14.450,-109.913,0.058,0.117,-0.430
-996.228,13.887,-110.201,0.113,0.157,-0.381
-995.533,13.994,-109.712,0.162,0.110,-0.351
-994.714,14.084,-110.364,0.227,0.051,-0.471
-996.568,13.834,-110.956,0.199,-0.106,-0.657
-999.000,12.000,-110.000,0.140,-0.350,-0.770
-996.294,11.843,-109.950,0.085,-0.421,-0.720
-997.007,12.331,-109.504,-0.004,-0.417,-0.587
-999.073,10.716,-108.329,0.102,-0.422,-0.525
-997.879,9.699,-110.581,0.313,-0.417,-0.409
-996.440,10.353,-112.151,0.336,-0.431,-0.207
-997.345,11.110,-112.146,0.260,-0.516,-0.142
-997.927,10.961,-112.968,0.128,-0.640,-0.217
-996.116,10.917,-110.271,0.061,-0.822,-0.220
-995.176,13.252,-108.699,0.296,-1.028,0.010
-994.439,15.770,-110.125,0.368,-1.056,0.139
-996.151,15.887,-108.528,0.102,-1.040,-0.125
-996.306,16.399,-106.320,-0.025,-0.860,-0.355
-994.643,17.115,-107.660,0.022,-0.553,-0.464
-995.113,16.907,-109.100,0.175,-0.493,-0.755
-996.000,15.000,-110.000,0.420,-0.490,-1.050
-997.852,11.423,-112.632,0.387,-0.482,-1.070
-997.395,9.973,-113.987,0.128,-0.582,-0.895
-996.582,10.417,-113.627,-0.018,-0.753,-0.744
-996.905,11.981,-111.676,-0.113,-0.941,-0.661
-996.844,13.267,-109.253,0.018,-1.104,-0.613
-996.843,12.874,-109.088,0.236,-1.093,-0.539
-995.964,13.058,-108.938,0.124,-0.896,-0.492
-996.007,13.948,-108.028,-0.000,-0.777,-0.617
-995.818,14.118,-108.641,0.057,-0.659,-0.753
-997.255,13.382,-109.904,0.077,-0.602,-0.815
-997.586,12.114,-109.830,0.052,-0.667,-0.882
-996.531,10.126,-110.415,-0.104,-0.547,-0.923
-996.958,10.479,-111.049,-0.455,-0.392,-0.885
-995.865,12.120,-111.032,-0.547,-0.436,-0.750
-997.000,12.000,-111.000,-0.420,-0.560,-0.700
-998.134,12.842,-109.258,-0.421,-0.683,-0.706
-996.470,13.139,-108.704,-0.367,-0.763,-0.646
-995.464,12.926,-109.685,-0.372,-0.748,-0.596
-996.456,12.751,-110.324,-0.468,-0.607,-0.513
-996.601,11.640,-111.460,-0.494,-0.446,-0.505
-995.947,12.307,-111.949,-0.482,-0.529,-0.571
-997.104,12.980,-110.914,-0.415,-0.628,-0.556
-997.100,12.079,-110.907,-0.415,-0.499,-0.496
-995.987,11.176,-112.025,-0.481,-0.479,-0.428
-996.473,10.752,-111.193,-0.495,-0.468,-0.418
-996.982,11.736,-111.442,-0.491,-0.366,-0.418
-996.640,11.479,-111.842,-0.464,-0.530,-0.430
-997.245,9.567,-110.897,-0.286,-0.739,-0.389
-998.031,10.216,-112.197,-0.221,-0.774,-0.173
-997.000,11.000,-111.000,-0.350,-0.840,-0.000
-995.132,12.547,-109.035,-0.295,-0.792,0.010
-995.467,14.942,-108.608,-0.301,-0.669,-0.095
-996.736,14.301,-106.320,-0.459,-0.465,-0.233
-996.423,14.025,-106.719,-0.492,-0.037,-0.343
-995.438,13.840,-108.524,-0.494,0.195,-0.472
-994.969,14.184,-109.076,-0.481,0.326,-0.587
-996.115,13.861,-108.969,-0.414,0.580,-0.709
-996.128,12.029,-108.940,-0.354,0.821,-0.770
-994.822,12.860,-109.876,-0.296,1.029,-0.766
-996.335,12.369,-110.375,-0.230,1.052,-0.781
-996.523,12.301,-112.656,-0.178,1.087,-0.744
-995.470,13.036,-114.426,-0.091,1.116,-0.847
-996.409,11.536,-113.583,0.041,1.011,-0.996
-998.223,10.890,-111.676,0.157,0.896,-0.793
-998.000,9.000,-111.000,0.280,0.910,-0.560
-997.694,7.224,-113.686,0.402,0.988,-0.394
-999.901,5.384,-114.082,0.526,0.832,-0.006
-998.632,6.067,-115.329,0.590,0.679,0.457
-997.398,9.766,-117.938,0.489,0.528,0.753
-996.034,9.838,-116.197,0.405,0.232,0.741
-995.091,11.567,-117.746,0.415,0.038,0.698
-997.139,11.914,-118.870,0.179,-0.166,0.617
-997.119,12.718,-116.131,-0.198,-0.599,0.428
-995.295,16.548,-115.873,-0.032,-0.863,0.454
-994.992,17.290,-116.451,0.348,-1.200,0.583
-997.515,15.241,-118.036,0.514,-1.643,0.380
-1000.029,8.783,-116.518,0.721,-1.908,-0.004
-1004.264,3.644,-111.685,0.774,-2.758,0.230
-1004.617,1.113,-109.763,0.854,-3.526,1.153
-1002.000,10.000,-105.000,0.770,-4.340,2.240
-1001.222,18.685,-97.618,0.669,-4.964,2.387
-1000.825,22.179,-96.105,1.042,-4.914,1.851
-1005.943,29.179,-96.081,1.556,-5.101,1.547
-1008.233,17.835,-107.648,2.423,-5.098,1.094
-1010.470,9.785,-127.094,3.780,-7.325,1.326
-1017.513,6.714,-127.817,4.803,-10.995,2.202
-1021.113,5.439,-121.273,4.269,-14.386,3.963
-1022.661,13.612,-99.556,4.072,-19.418,6.537
-1033.036,17.360,-67.135,4.965,-23.449,8.576
-1049.226,24.841,-39.101,4.711,-25.950,9.906
-1060.973,22.178,-2.807,3.575,-27.870,10.539
-1069.919,27.758,10.333,2.020,-29.104,12.760
-1045.722,35.055,16.234,1.283,-31.711,16.943
-1019.641,50.787,21.162,0.401,-34.530,22.010
-1022.000,87.000,9.000,-1.050,-34.860,25.690
-999.078,92.792,10.479,-1.162,-34.522,24.402
-976.245,105.817,7.940,-2.039,-34.688,20.473
-976.008,113.525,5.476,-3.414,-31.691,15.713
-977.569,95.245,2.514,-4.055,-26.146,10.537
-979.599,91.653,-12.845,-4.222,-21.094,5.194
-985.174,79.728,-21.650,-4.676,-16.084,-0.524
-1001.422,59.456,-31.912,-5.475,-10.565,-4.264
-1017.854,38.532,-42.284,-4.598,-5.866,-6.203
-1033.412,24.500,-51.981,-3.125,-3.326,-6.569
-1046.109,18.180,-58.359,-1.561,-1.254,-5.251
-1051.199,11.125,-63.932,-0.032,0.423,-3.255
-1051.107,12.572,-69.931,1.304,1.734,-0.858
-1045.706,16.064,-70.222,3.010,3.824,0.940
-1035.125,22.138,-76.268,3.950,5.846,1.824
-1024.000,27.000,-83.000,4.690,8.330,1.610
-1016.214,27.701,-91.266,5.075,10.714,0.498
-1009.024,30.911,-100.899,4.532,12.280,-1.216
-1007.785,33.562,-100.911,3.553,13.761,-3.470
-1006.433,34.166,-97.228,2.467,14.921,-5.307
-1001.996,33.696,-97.924,2.175,15.753,-6.437
-993.072,32.893,-103.657,2.570,16.010,-6.709
-979.114,32.992,-111.563,3.203,15.313,-6.578
-972.328,31.251,-115.105,3.813,13.845,-6.648
-967.889,28.353,-110.504,4.160,12.335,-6.550
-964.440,26.981,-104.674,4.225,11.168,-6.384
-959.351,23.817,-100.457,4.179,10.254,-6.113
-959.339,20.458,-95.391,4.210,9.510,-5.842
-967.061,15.012,-89.357,4.065,8.335,-5.385
-969.007,10.789,-88.207,3.904,7.028,-4.098
-969.000,12.000,-89.000,3.710,5.880,-2.520
-966.437,13.613,-87.204,3.120,4.544,-1.476
-965.985,16.581,-84.933,2.469,3.362,-1.442
-969.900,15.754,-76.398,1.960,2.656,-2.108
-977.986,12.290,-68.166,1.279,2.745,-2.797
-990.497,10.211,-63.195,0.469,3.287,-2.971
-998.118,9.001,-60.973,-0.103,3.628,-2.213
-999.936,11.243,-63.224,-0.443,3.785,-1.104
-995.518,14.677,-65.845,-0.689,3.723,-0.007
-989.745,19.788,-66.352,-0.720,3.541,0.631
-987.663,24.002,-65.742,-0.633,3.399,0.252
-989.404,26.128,-69.665,-0.719,3.306,-0.665
-993.646,24.439,-68.305,-1.130,3.123,-1.566
-994.977,20.135,-66.129,-1.448,2.856,-1.806
-993.596,22.730,-69.588,-1.393,2.640,-1.582
-989.000,25.000,-75.000,-1.540,2.800,-1.610
-986.045,23.932,-84.015,-1.524,2.990,-1.743
-985.521,24.967,-87.439,-1.154,2.267,-1.678
-984.423,24.247,-89.818,-1.251,1.428,-1.472
-988.321,24.444,-87.751,-1.530,0.933,-1.579
-989.540,24.823,-82.587,-1.638,0.487,-1.817
-989.292,23.988,-81.812,-1.566,0.323,-1.799
-992.186,25.039,-81.103,-1.232,0.122,-1.668
-992.996,23.229,-85.615,-0.988,-0.057,-1.485
-993.082,22.374,-87.962,-0.973,-0.373,-1.294
-991.654,25.499,-89.123,-0.958,-0.902,-1.220
-990.043,25.585,-89.897,-0.803,-1.596,-1.408
-992.921,24.598,-85.895,-0.602,-2.671,-1.838
-999.909,21.590,-81.575,-0.348,-3.236,-2.405
-1000.623,16.348,-76.242,-0.391,-3.285,-2.678
-1001.000,14.000,-73.000,-0.770,-2.940,-2.870
-1008.366,11.390,-70.298,-1.064,-2.014,-3.206
-1007.861,10.532,-70.325,-1.535,-1.555,-3.049
-1007.764,11.926,-71.919,-1.857,-1.526,-2.731
-1010.552,12.037,-72.435,-1.969,-1.377,-2.343
-1005.319,14.142,-75.007,-2.307,-1.200,-1.714
-1001.324,17.947,-76.127,-2.462,-1.234,-1.252
-997.657,22.304,-77.072,-2.527,-1.562,-1.122
-994.157,24.043,-77.024,-2.530,-1.621,-1.245
-992.935,23.094,-78.302,-2.389,-1.524,-1.515
-994.946,22.619,-79.933,-2.456,-1.683,-1.909
-998.783,20.865,-76.758,-2.594,-1.782,-1.832
-995.364,22.449,-76.307,-2.530,-1.744,-1.451
-991.081,27.674,-75.026,-2.316,-2.022,-1.305
-989.868,32.707,-71.778,-2.133,-2.517,-1.360
-990.000,35.000,-72.000,-1.610,-2.800,-1.750
-991.885,32.448,-68.608,-0.860,-2.883,-2.179
-990.795,30.936,-68.307,-0.368,-2.645,-2.630
-988.931,30.858,-73.925,0.195,-2.249,-3.189
-992.491,28.048,-75.020,0.561,-1.949,-3.671
-999.328,23.160,-77.741,0.693,-1.790,-3.877
-1002.064,20.771,-82.925,0.978,-1.952,-3.611
-1002.106,19.883,-85.173,1.206,-2.263,-3.029
-1004.832,18.917,-88.697,1.453,-2.508,-2.357
-1004.058,22.028,-91.560,1.510,-2.548,-1.886
-998.554,25.348,-94.255,1.285,-2.355,-1.688
-995.270,26.699,-98.652,1.008,-2.018,-1.786
-994.501,26.989,-100.322,0.513,-1.700,-2.340
-993.870,27.142,-99.549,0.016,-1.725,-3.080
-996.823,26.711,-96.358,-0.142,-1.917,-3.454
-1003.000,23.000,-92.000,0.000,-2.170,-3.360
-1005.131,20.930,-88.374,0.352,-2.659,-2.738
-1002.960,22.389,-87.630,0.829,-3.005,-1.755
-1000.359,23.934,-88.098,1.296,-3.314,-1.357
-1003.070,23.423,-85.024,1.607,-3.606,-1.483
-1008.963,20.665,-81.684,1.509,-3.163,-1.551
-1012.478,15.810,-76.841,0.986,-2.212,-1.396
-1011.714,12.986,-76.289,0.537,-1.019,-0.782
-1004.679,14.831,-81.673,0.356,0.147,-0.108
-997.109,15.971,-83.876,0.376,0.557,0.156
-993.527,16.055,-83.703,0.647,0.514,-0.126
-991.799,15.555,-81.579,0.947,0.437,-0.724
-989.851,14.472,-80.856,1.333,0.239,-1.115
-988.856,11.859,-79.430,1.931,-0.134,-1.186
-988.914,7.392,-80.515,2.262,-0.640,-1.105
-987.000,5.000,-82.000,2.240,-1.120,-0.980
-986.015,3.224,-77.458,1.910,-1.386,-0.741
-983.973,2.801,-76.954,1.236,-1.402,-0.560
-976.015,2.842,-75.153,0.807,-1.430,-0.632
-970.802,0.773,-70.553,0.791,-1.525,-0.773
-968.859,-0.063,-66.573,0.880,-1.676,-0.863
-963.369,-0.098,-66.561,1.006,-1.867,-0.815
-956.541,-1.072,-67.811,0.965,-2.208,-0.693
-952.215,-1.075,-61.529,0.655,-2.823,-0.694
-949.764,-0.088,-56.731,0.443,-3.297,-0.810
-944.636,0.291,-53.949,0.304,-3.503,-0.926
-937.480,3.190,-56.126,0.099,-3.720,-1.158
-933.598,5.218,-57.793,0.268,-4.128,-1.843
-934.889,1.709,-56.168,0.414,-4.497,-2.695
-939.719,0.007,-63.489,0.167,-4.632,-3.399
-942.000,-0.000,-71.000,-0.070,-4.690,-4.200
-944.131,-0.942,-75.487,-0.483,-4.840,-5.050
-952.437,-1.869,-76.625,-0.867,-5.473,-5.881
-965.054,-7.525,-74.169,-0.944,-6.254,-6.295
-978.879,-13.944,-71.418,-1.050,-6.472,-5.746
-984.914,-14.588,-70.162,-1.146,-6.107,-4.516
-984.898,-10.822,-75.667,-1.210,-5.570,-3.013
-985.015,-4.517,-81.279,-1.343,-5.553,-1.826
-985.852,-0.172,-83.824,-1.584,-5.988,-1.407
-987.812,1.502,-85.766,-1.996,-6.309,-1.482
-988.035,4.471,-86.122,-2.402,-6.600,-1.804
-991.543,8.357,-85.790,-2.708,-6.853,-2.204
-994.248,10.966,-86.725,-3.209,-6.782,-2.469
-992.351,12.544,-90.272,-3.795,-6.492,-2.387
-992.037,15.571,-93.159,-4.099,-6.479,-2.140
-994.000,19.000,-90.000,-4.480,-7.070,-2.030
-1004.146,20.794,-82.088,-4.971,-7.499,-1.859
-1011.825,23.247,-76.981,-5.470,-7.162,-1.603
-1011.983,30.858,-73.007,-6.137,-6.628,-1.477
-1016.837,38.311,-66.101,-6.530,-5.736,-1.757
-1019.051,40.916,-62.433,-6.733,-4.383,-2.480
-1020.620,44.839,-64.618,-6.858,-3.511,-3.363
-1024.335,43.636,-63.676,-6.540,-3.284,-4.259
-1031.287,39.190,-59.142,-5.871,-3.285,-4.569
-1038.020,37.401,-60.964,-4.991,-3.389,-3.894
-1033.721,37.261,-64.401,-3.905,-3.683,-2.723
-1026.449,42.546,-66.276,-2.654,-4.487,-1.847
-1020.301,43.815,-68.946,-1.579,-5.636,-1.689
-1021.134,44.622,-66.863,-0.865,-6.385,-2.050
-1025.494,43.109,-63.651,-0.437,-6.393,-2.883
-1030.000,35.000,-62.000,-0.070,-5.670,-3.850
-1038.919,29.224,-63.296,0.213,-4.461,-4.543
-1043.666,18.871,-68.644,-0.030,-3.345,-4.808
-1048.538,13.599,-72.259,-0.243,-2.615,-4.506
-1048.552,13.792,-76.514,-0.176,-2.144,-4.213
-1045.263,10.963,-79.884,-0.242,-1.738,-3.897
-1047.350,9.641,-81.405,-0.175,-1.396,-3.287
-1045.811,6.803,-83.076,0.014,-1.016,-2.761
-1044.991,6.031,-83.875,0.199,-0.644,-2.094
-1044.800,3.789,-85.899,0.237,-0.659,-1.228
-1047.769,2.614,-83.512,0.097,-0.810,-0.614
-1051.232,6.683,-77.030,0.101,-0.869,-0.358
-1047.795,8.429,-74.377,0.367,-0.724,-0.010
-1045.616,9.254,-73.502,0.863,-0.288,0.486
-1044.858,8.811,-70.580,1.318,-0.039,0.724
-1043.000,8.000,-70.000,1.610,0.420,0.980
-1037.782,8.073,-68.668,1.743,1.161,1.408
-1035.531,7.224,-64.406,1.796,1.827,1.743
-1035.559,7.176,-64.938,1.826,2.836,2.004
-1027.401,9.667,-67.304,1.615,3.669,2.409
-1017.344,13.324,-72.267,1.587,4.010,2.749
-1010.637,15.224,-74.717,1.892,3.918,2.691
-1006.823,14.918,-69.567,2.115,3.473,2.507
-1004.319,13.994,-66.133,2.359,3.478,2.382
-998.484,15.405,-64.469,2.566,3.752,2.521
-993.047,17.949,-62.033,2.664,3.761,2.771
-989.930,21.344,-60.155,2.901,3.605,2.818
-985.840,25.986,-62.298,3.219,3.403,2.918
-983.740,26.581,-62.655,3.409,3.123,2.794
-985.408,23.488,-63.571,3.602,2.836,2.572
-988.000,21.000,-68.000,3.640,2.730,2.590
-988.991,20.805,-67.241,3.331,2.566,2.754
-988.887,22.512,-66.948,3.218,2.185,3.145
-989.392,23.668,-65.987,3.137,1.604,3.668
-989.973,24.620,-64.403,2.891,0.843,4.415
-989.810,27.212,-63.155,2.892,0.208,4.994
-991.574,30.729,-58.973,2.848,-0.239,5.110
-994.152,31.975,-55.844,2.885,-0.658,5.032
-995.825,31.053,-54.995,3.134,-0.839,4.970
-999.126,30.414,-54.477,3.305,-0.788,4.937
-1001.588,27.044,-52.591,3.633,-0.662,4.710
-1002.351,21.964,-55.234,3.939,-0.355,4.509
-1005.419,18.624,-57.331,4.010,-0.146,4.325
-1006.998,16.555,-57.075,4.089,-0.160,4.275
-1007.228,15.807,-56.693,4.132,-0.309,4.155
-1010.000,12.000,-54.000,4.270,-0.420,3.850
-1010.973,6.629,-55.648,4.861,-0.404,4.010
-1011.680,3.043,-55.761,5.401,-0.660,4.309
-1011.277,0.260,-53.529,5.496,-0.920,4.733
-1007.707,0.199,-52.596,5.577,-0.801,5.151
-1004.766,-0.481,-54.032,5.415,-0.349,5.134
-1000.826,-0.913,-57.769,5.033,0.274,4.895
-995.636,-1.142,-61.402,4.816,0.646,4.357
-992.127,-5.492,-67.657,4.633,0.764,3.564
-993.070,-13.739,-68.362,4.427,0.905,2.835
-996.226,-22.425,-69.509,3.842,1.403,2.616
-992.574,-24.059,-75.975,2.940,2.070,2.773
-986.192,-22.198,-79.217,2.216,2.224,2.935
-983.206,-20.307,-83.400,1.658,1.775,2.883
-980.557,-19.033,-84.880,1.195,1.090,2.535
-977.000,-20.000,-85.000,0.770,0.700,2.310
-971.075,-17.581,-90.913,0.080,0.751,2.195
-963.983,-14.160,-96.329,-1.069,0.806,1.918
-958.506,-9.109,-96.965,-2.365,0.573,1.177
-958.635,-3.268,-93.867,-3.579,0.007,0.175
-962.236,-1.622,-86.900,-4.490,-0.662,-0.483
-965.806,0.758,-79.799,-4.894,-1.030,-0.827
-969.203,4.272,-79.135,-5.211,-1.127,-0.908
-970.868,7.771,-80.082,-5.700,-1.311,-0.905
-973.955,9.644,-78.293,-6.193,-1.520,-0.984
-977.795,13.092,-77.529,-6.666,-1.543,-0.832
-980.566,21.244,-74.845,-7.174,-1.570,-0.499
-985.026,27.611,-69.376,-7.593,-1.611,-0.444
-988.903,34.375,-64.799,-7.807,-1.350,-0.599
-991.347,42.091,-62.965,-7.645,-0.929,-0.529
-993.000,49.000,-65.000,-7.210,-0.840,-0.280
-993.803,56.866,-67.911,-6.964,-1.007,-0.196
-996.269,62.877,-65.253,-6.577,-1.464,-0.396
-1004.159,65.441,-57.203,-5.833,-2.117,-0.669
-1016.099,66.805,-51.300,-5.009,-2.167,-0.591
-1022.405,68.536,-47.688,-4.169,-1.663,-0.026
-1025.892,69.251,-45.879,-3.493,-0.935,0.635
-1029.105,72.274,-47.165,-2.817,-0.074,1.235
-1028.142,73.967,-49.780,-2.213,0.718,1.665
-1027.575,76.626,-51.935,-1.534,1.243,1.693
-1030.378,80.936,-50.873,-0.646,1.641,1.684
-1033.154,76.529,-49.035,0.119,2.061,1.574
-1032.051,75.569,-49.279,1.116,2.247,1.288
-1034.516,74.940,-48.170,1.818,2.715,1.414
-1040.724,69.219,-43.230,2.078,3.384,1.627
-1042.000,65.000,-41.000,2.520,3.990,1.750
-1041.298,60.322,-41.044,2.939,4.512,2.114
-1036.580,60.177,-41.967,3.474,4.544,2.389
-1028.234,57.415,-44.978,3.938,4.233,2.575
-1024.009,52.892,-44.213,4.412,3.695,2.448
-1020.071,49.416,-44.145,4.924,3.284,1.858
-1018.216,43.407,-42.286,5.162,2.851,1.376
-1023.448,34.187,-41.023,5.484,2.894,1.031
-1024.358,27.887,-37.700,5.490,2.958,0.922
-1018.735,33.333,-28.570,4.826,3.286,0.154
-1017.620,29.159,-31.570,3.956,5.921,-2.275
-1017.574,16.334,-35.660,3.529,8.083,-4.888
-1019.251,5.908,-40.447,3.680,9.150,-6.688
-1024.300,-8.585,-52.638,3.914,10.629,-7.713
-1024.645,-20.588,-61.272,4.082,11.157,-7.997
-1019.000,-30.000,-73.000,4.200,11.340,-8.050
-1007.789,-36.194,-87.793,4.376,11.003,-8.096
-999.037,-43.099,-101.378,4.575,9.653,-8.397
-997.084,-52.328,-111.946,4.675,7.602,-8.849
-996.302,-60.406,-120.039,4.381,5.085,-9.227
-995.558,-69.116,-123.873,3.436,3.169,-9.378
-992.839,-71.894,-127.189,2.340,2.354,-8.976
-984.205,-68.673,-133.388,1.164,2.316,-8.510
-975.443,-63.484,-136.745,0.004,2.318,-8.031
-971.700,-56.631,-140.495,-0.851,2.157,-7.221
-967.223,-49.025,-140.527,-1.792,1.861,-6.160
-960.985,-36.059,-140.311,-2.697,1.650,-4.852
-954.727,-17.024,-140.528,-3.386,1.547,-3.722
-946.060,-0.263,-136.747,-4.050,1.199,-2.815
-938.007,15.557,-132.005,-4.639,0.788,-2.278
-934.000,31.000,-123.000,-5.320,0.630,-2.450
-935.937,42.306,-115.281,-6.133,0.490,-2.546
-944.659,53.293,-103.552,-6.429,-0.160,-2.347
-948.594,59.897,-91.654,-6.144,-0.514,-2.212
-947.431,65.600,-89.126,-5.898,-0.545,-1.657
-952.253,73.796,-82.679,-5.460,-1.078,-1.015
-956.587,75.995,-74.349,-4.954,-1.450,-1.245
-961.680,76.037,-67.414,-4.744,-1.709,-1.864
-972.305,74.412,-59.575,-4.379,-2.139,-2.524
-979.175,65.694,-51.951,-3.796,-2.549,-3.460
-990.665,53.658,-43.237,-3.073,-3.029,-3.959
-1005.000,41.492,-34.979,-2.460,-3.196,-3.997
-1013.661,29.785,-28.756,-2.049,-3.132,-3.920
-1024.045,20.236,-30.141,-1.507,-3.299,-3.476
-1029.560,10.332,-31.784,-1.172,-3.623,-3.019
-1037.000,0.000,-29.000,-1.260,-3.990,-2.520
-1046.528,-5.517,-30.570,-1.284,-4.361,-1.682
-1045.145,-8.309,-32.464,-1.058,-4.593,-0.769
-1042.103,-9.838,-36.103,-0.796,-4.630,0.126
-1038.088,-10.514,-45.866,-0.393,-4.588,0.819
-1030.921,-13.147,-59.887,-0.052,-4.352,1.123
-1023.189,-15.463,-76.923,-0.115,-3.874,1.080
-1017.736,-18.264,-92.059,-0.456,-3.477,0.738
-1013.539,-20.929,-105.059,-1.067,-3.237,0.428
-1004.864,-20.393,-116.486,-1.656,-3.043,0.545
-998.056,-18.632,-128.040,-2.014,-2.948,0.994
-991.763,-17.215,-140.595,-2.507,-2.957,1.470
-987.476,-17.082,-149.408,-3.213,-3.090,1.615
-986.713,-16.616,-154.174,-4.060,-3.259,1.409
-985.945,-13.253,-156.025,-5.052,-3.294,1.519
-985.000,-6.000,-153.000,-5.880,-3.430,1.890
-982.898,5.078,-145.378,-6.381,-3.617,2.185
-985.913,18.443,-135.570,-6.688,-3.853,2.634
-986.970,33.794,-122.995,-6.608,-4.350,3.200
-984.597,49.300,-110.847,-5.934,-4.741,3.899
-983.257,65.267,-101.366,-4.734,-5.322,4.761
-981.732,80.008,-90.214,-3.204,-6.226,5.764
-982.054,90.785,-78.089,-1.630,-6.981,6.550
-982.046,101.259,-65.976,-0.051,-7.473,6.789
-981.778,108.210,-52.962,1.444,-7.344,6.584
-983.987,110.630,-40.836,2.661,-6.515,5.593
-988.661,110.254,-32.341,3.750,-5.016,3.772
-989.800,105.510,-29.049,4.834,-3.086,1.535
-990.323,100.366,-29.361,5.835,-1.319,-0.627
-990.977,92.554,-31.292,6.995,-0.163,-2.322
-993.000,83.000,-32.000,8.540,-0.000,-3.290
-1000.911,72.062,-31.880,10.128,-0.472,-3.393
-1005.323,58.538,-33.338,11.605,-1.039,-3.109
-1007.709,48.020,-35.936,12.910,-1.418,-2.789
-1008.960,36.317,-41.514,13.818,-1.455,-2.543
-1006.877,25.111,-50.954,14.547,-1.363,-2.411
-1004.308,15.787,-61.165,14.958,-1.343,-2.378
-1001.859,7.541,-68.495,14.980,-1.563,-2.297
-999.313,3.346,-76.265,15.044,-1.806,-2.052
-995.917,-2.573,-85.454,15.060,-2.099,-1.712
-998.185,-7.514,-90.451,15.043,-2.893,-1.280
-997.161,-12.126,-94.882,15.005,-3.569,-1.175
-994.194,-16.469,-97.919,14.599,-3.792,-1.163
-996.702,-17.452,-99.963,13.934,-3.949,-1.302
-997.044,-23.250,-103.161,13.361,-3.817,-1.998
-1000.000,-31.000,-100.000,12.810,-3.710,-2.310
-1004.358,-37.101,-99.529,11.878,-3.501,-2.308
-1009.288,-42.018,-99.989,10.553,-3.099,-2.168
-1013.333,-45.113,-92.032,9.376,-3.132,-1.709
-1014.054,-49.362,-91.115,8.502,-2.562,-1.599
-1015.067,-51.206,-97.206,7.485,-1.584,-1.435
-1011.556,-51.082,-98.762,6.312,-1.398,-1.264
-1005.750,-52.058,-94.584,5.159,-1.154,-1.484
-1005.912,-52.024,-91.043,3.883,-0.661,-1.362
-1004.229,-52.031,-91.290,2.542,-0.377,-0.879
-999.253,-50.619,-88.004,1.280,-0.420,-0.439
-999.522,-45.716,-82.888,0.207,-0.880,-0.019
-999.067,-41.030,-77.059,-0.650,-1.439,0.385
-995.693,-36.366,-71.793,-1.301,-1.847,0.599
-990.044,-29.964,-69.700,-1.931,-1.964,0.629
-986.000,-23.000,-67.000,-2.730,-2.030,0.490
-983.720,-15.912,-64.497,-3.300,-2.208,0.012
-979.126,-11.213,-60.221,-3.670,-2.473,-0.381
-981.288,-6.878,-58.266,-3.948,-2.865,-0.408
-982.435,-4.036,-59.355,-4.054,-3.134,-0.253
-980.808,-3.480,-56.672,-4.473,-3.419,-0.105
-985.106,1.145,-54.799,-4.897,-3.792,-0.161
-988.176,1.835,-53.901,-5.133,-4.163,-0.129
-991.644,1.702,-52.192,-5.446,-4.654,-0.002
-996.115,6.405,-48.760,-5.426,-4.994,-0.056
-999.133,7.432,-47.772,-5.357,-5.175,-0.045
-1000.361,10.175,-50.831,-5.426,-5.373,0.079
-1001.366,12.594,-50.713,-5.342,-5.509,0.192
-1001.809,13.643,-53.192,-5.335,-5.519,0.325
-1000.955,17.690,-54.892,-5.397,-5.451,0.530
-1001.000,22.000,-54.000,-5.460,-5.460,0.840
-998.509,26.392,-55.100,-5.480,-5.680,1.142
-996.113,30.479,-52.835,-5.199,-6.151,1.462
-996.338,35.081,-50.770,-4.600,-6.552,1.612
-996.445,36.463,-49.205,-3.902,-6.716,1.649
-991.407,42.235,-51.504,-3.437,-6.652,1.751
-989.455,48.349,-52.225,-3.250,-6.147,1.099
-995.467,43.583,-45.632,-2.900,-5.403,0.163
-998.856,42.817,-47.500,-2.287,-4.731,-0.007
-1001.342,43.464,-52.599,-1.777,-4.411,0.101
-1002.851,42.330,-53.537,-1.338,-4.508,0.360
-1003.265,43.935,-54.756,-0.711,-4.540,0.637
-1006.717,41.010,-54.929,-0.108,-4.417,0.750
-1011.369,37.040,-55.152,0.082,-4.155,0.865
-1015.551,34.611,-56.242,-0.022,-3.527,0.829
-1018.000,32.000,-58.000,-0.140,-2.870,0.840
-1020.434,29.450,-58.124,-0.094,-2.544,0.854
-1024.693,26.159,-57.296,0.048,-2.457,0.764
-1027.631,22.436,-55.861,0.097,-2.424,0.894
-1027.365,19.821,-54.518,0.217,-2.307,1.277
-1026.548,18.604,-55.407,0.278,-2.225,1.681
-1025.774,17.931,-54.434,0.188,-2.242,1.940
-1026.102,17.972,-50.684,0.139,-2.158,2.106
-1027.016,16.216,-46.377,0.140,-1.975,1.984
-1026.787,14.110,-40.509,0.138,-1.748,1.661
-1027.463,14.150,-35.322,0.207,-1.408,1.514
-1024.142,13.095,-36.193,0.396,-1.030,1.349
-1021.064,11.153,-36.121,0.374,-0.676,1.026
-1022.381,9.436,-31.932,0.254,-0.303,0.673
-1021.669,7.846,-32.247,0.202,0.050,0.567
-1018.000,8.000,-32.000,0.280,0.350,0.700
-1014.190,7.412,-32.417,0.706,0.601,0.719
-1014.713,3.469,-36.449,0.924,0.736,0.476
-1013.694,-0.772,-37.204,0.879,0.905,0.041
-1009.544,-2.968,-40.193,0.972,1.234,-0.313
-1007.150,-4.859,-44.265,0.919,1.482,-0.590
-1005.378,-7.568,-48.305,0.508,1.758,-0.700
-1000.517,-7.877,-55.482,-0.122,2.040,-0.625
-995.221,-5.203,-58.038,-0.791,1.916,-0.627
-994.112,-3.327,-57.167,-1.361,1.548,-0.680
-992.641,-1.317,-55.950,-1.799,1.264,-0.766
-990.480,2.552,-53.458,-2.188,1.108,-0.727
-986.742,7.122,-53.474,-2.347,0.989,-0.728
-983.298,11.002,-55.587,-2.420,0.751,-0.893
-982.914,13.367,-55.878,-2.616,0.447,-1.088
-981.000,17.000,-54.000,-2.660,0.210,-1.400
-981.462,20.683,-50.556,-2.658,-0.090,-1.595
-985.277,22.282,-48.067,-2.595,-0.327,-1.672
-985.732,25.386,-48.548,-2.275,-0.374,-1.622
-983.837,28.232,-49.609,-1.933,-0.511,-1.467
-984.293,29.497,-52.162,-1.791,-0.700,-1.502
-984.849,31.487,-54.272,-1.849,-0.882,-1.539
-983.994,33.103,-55.074,-2.046,-1.066,-1.541
-984.918,34.821,-55.136,-2.170,-1.372,-1.485
-985.673,37.420,-52.478,-2.112,-1.650,-1.194
-988.160,39.503,-51.390,-2.102,-1.788,-0.951
-992.250,40.556,-49.189,-2.031,-2.076,-0.853
-994.783,41.402,-45.599,-1.732,-2.192,-0.669
-996.274,42.187,-45.100,-1.346,-2.280,-0.404
-997.217,41.796,-46.278,-0.914,-2.296,-0.088
-1000.000,39.000,-48.000,-0.560,-2.310,0.210
-1003.590,35.439,-46.427,-0.372,-2.638,0.396
-1004.984,32.873,-44.824,-0.237,-2.496,0.535
-1005.052,29.628,-45.668,-0.218,-2.190,0.568
-1006.988,26.384,-46.591,-0.381,-1.939,0.573
-1007.876,24.284,-48.893,-0.548,-1.537,0.670
-1008.111,22.618,-48.472,-0.636,-1.386,0.691
-1009.083,20.870,-45.914,-0.465,-1.324,0.627
-1010.805,19.988,-47.711,-0.095,-1.262,0.688
-1012.867,20.209,-50.784,0.164,-1.302,0.874
-1013.017,18.148,-50.486,0.329,-1.415,0.948
-1016.215,15.702,-49.403,0.321,-1.236,0.778
-1017.791,14.142,-48.550,0.268,-0.726,0.517
-1017.072,10.957,-47.992,0.277,-0.196,0.401
-1019.215,8.801,-49.280,0.194,0.185,0.335
-1017.000,8.000,-51.000,0.140,0.420,0.210
-1013.398,8.700,-52.680,0.196,0.564,0.145
-1010.180,10.666,-55.117,0.272,0.415,0.097
-1007.395,11.146,-57.953,0.277,0.273,-0.028
-1008.466,10.663,-59.694,0.279,0.325,-0.323
-1006.913,9.537,-60.157,0.110,0.505,-0.687
-1007.642,8.955,-61.379,-0.200,0.758,-0.860
-1009.975,9.030,-63.121,-0.363,0.997,-0.831
-1006.368,10.751,-64.013,-0.611,1.061,-0.646
-1003.211,14.304,-62.606,-0.673,0.816,-0.502
-1002.309,16.943,-60.297,-0.491,0.743,-0.454
-1000.742,19.821,-60.073,-0.569,0.804,-0.361
-999.187,21.479,-59.405,-0.647,0.908,-0.386
-999.019,22.422,-57.460,-0.757,1.103,-0.540
-998.860,24.262,-57.069,-0.914,1.203,-0.634
-997.000,26.000,-58.000,-0.700,1.260,-0.560
-995.219,29.426,-58.179,-0.444,1.092,-0.539
-993.993,31.957,-55.978,-0.277,0.865,-0.757
-995.173,31.040,-52.975,-0.086,0.883,-1.036
-998.352,28.841,-51.253,-0.107,1.129,-1.370
-998.664,27.697,-51.082,-0.120,1.283,-1.426
-999.285,26.661,-50.663,0.044,1.140,-0.998
-1001.155,24.867,-47.790,0.223,0.890,-0.447
-1002.944,23.151,-47.793,0.346,0.705,0.161
-1001.128,21.243,-50.090,0.307,0.706,0.737
-996.395,21.288,-48.012,0.210,0.605,1.073
-996.122,23.541,-46.510,0.268,0.606,1.109
-994.239,25.928,-47.582,0.416,0.927,1.004
-989.732,25.494,-50.096,0.524,1.050,0.981
-987.844,23.899,-54.567,0.748,0.863,0.980
-987.000,24.000,-55.000,1.050,0.420,1.050
-986.124,23.042,-53.886,1.122,-0.020,1.290
-985.754,24.346,-54.998,1.156,-0.288,1.471
-986.573,24.691,-54.223,1.251,-0.427,1.369
-986.741,20.908,-54.814,1.270,-0.381,1.140
-987.006,20.101,-58.628,1.383,-0.350,1.019
-986.740,19.706,-62.961,1.365,-0.474,0.964
-987.231,17.841,-64.942,1.100,-0.957,0.825
-992.571,15.221,-61.336,0.920,-1.451,0.580
-995.879,13.753,-59.564,0.750,-1.494,0.374
-995.695,15.141,-61.728,0.550,-1.380,0.339
-996.836,13.484,-61.798,0.388,-1.277,0.337
-1001.022,11.321,-62.565,0.195,-1.470,0.235
-1004.622,10.864,-62.726,0.148,-1.860,0.357
-1005.033,11.240,-60.633,0.221,-2.143,0.669
-1006.000,14.000,-58.000,0.280,-2.380,0.770
-1007.632,15.071,-56.026,0.293,-2.180,0.721
-1010.333,14.308,-56.790,0.102,-1.582,0.468
-1011.440,13.249,-56.591,-0.238,-1.043,0.109
-1012.946,13.292,-55.451,-0.382,-0.640,-0.085
-1015.632,14.107,-54.611,-0.166,-0.452,-0.130
-1015.854,12.520,-54.012,0.125,-0.515,0.174
-1014.855,12.103,-55.101,0.206,-0.556,0.663
-1011.329,14.758,-55.953,0.020,-0.433,0.966
-1008.286,17.535,-56.786,-0.184,-0.213,1.017
-1006.714,18.920,-57.224,-0.319,0.145,0.756
-1004.699,18.624,-56.376,-0.608,0.448,0.483
-1005.294,17.447,-56.046,-0.690,0.650,0.401
-1004.098,16.966,-57.642,-0.636,0.801,0.448
-1001.982,16.979,-59.069,-0.798,0.746,0.581
-1004.000,17.000,-58.000,-0.910,0.490,0.700
-1003.363,18.619,-55.426,-1.085,0.234,0.876
-1001.921,21.204,-53.237,-1.215,0.150,1.111
-1001.314,23.806,-53.006,-1.084,0.102,1.371
-997.349,26.325,-52.802,-1.090,0.039,1.530
-993.497,29.261,-53.565,-1.239,-0.037,1.540
-990.254,32.676,-55.224,-1.256,-0.172,1.519
-989.029,34.031,-54.960,-1.260,-0.287,1.146
-989.917,34.048,-54.983,-1.141,-0.349,0.531
-992.097,31.941,-54.958,-0.824,-0.304,0.087
-995.008,27.923,-56.057,-0.705,-0.210,-0.263
-993.588,26.164,-58.053,-0.633,-0.308,-0.391
-995.653,23.154,-57.436,-0.348,-0.664,-0.297
-999.535,19.073,-57.221,-0.197,-0.870,-0.158
-997.476,19.233,-59.397,-0.306,-0.925,0.120
-994.000,20.000,-61.000,-0.490,-1.120,0.350
-991.901,19.039,-59.424,-0.728,-1.316,0.189
-993.767,20.158,-57.192,-0.988,-1.271,-0.092
-991.909,22.645,-57.386,-1.149,-0.981,-0.218
-988.446,22.615,-58.835,-1.209,-0.938,-0.349
-989.253,22.078,-60.779,-1.170,-1.118,-0.300
-988.621,24.918,-62.132,-1.221,-1.318,-0.217
-988.047,28.112,-60.788,-1.414,-1.631,-0.444
-989.803,27.171,-57.261,-1.533,-1.752,-0.747
-992.482,25.899,-55.089,-1.649,-1.697,-1.053
-994.060,26.355,-55.079,-1.748,-1.596,-1.286
-997.018,24.779,-54.734,-1.719,-1.469,-1.357
-1002.150,24.046,-55.779,-1.652,-1.529,-1.264
-1005.904,25.505,-57.157,-1.581,-1.745,-1.058
-1008.246,27.337,-57.162,-1.453,-1.815,-0.880
-1008.000,30.000,-61.000,-1.470,-1.750,-0.630
-1006.867,32.595,-62.515,-1.653,-1.858,-0.596
-1009.591,35.281,-57.965,-1.795,-2.057,-0.864
-1013.285,37.224,-56.352,-1.791,-2.158,-0.868
-1013.432,39.218,-54.702,-1.496,-2.159,-0.655
-1012.734,42.100,-52.534,-1.286,-2.022,-0.518
-1012.886,44.507,-53.113,-1.243,-1.647,-0.505
-1011.973,46.037,-51.820,-1.111,-1.233,-0.724
-1013.737,44.299,-49.228,-1.054,-0.873,-1.032
-1016.149,39.877,-45.760,-0.909,-0.386,-1.101
-1012.983,37.289,-43.822,-0.533,-0.022,-0.681
-1007.470,36.618,-44.273,-0.043,0.218,-0.009
-1002.175,35.383,-43.802,0.407,0.444,0.491
-994.139,35.052,-46.154,0.843,0.622,1.023
-984.499,34.894,-50.730,1.333,0.877,1.624
-974.000,35.000,-57.000,1.750,0.980,2.100
-964.102,38.482,-65.831,2.069,0.928,2.536
-958.946,39.623,-71.174,2.166,0.694,2.767
-956.204,37.477,-73.667,2.226,0.217,2.919
-956.106,36.665,-76.754,2.423,-0.243,3.347
-957.144,35.558,-80.479,2.549,-0.787,3.947
-958.330,36.583,-83.469,2.488,-1.401,4.536
-960.128,40.297,-83.991,2.296,-2.091,4.918
-962.643,43.779,-83.180,2.176,-2.946,4.977
-969.784,45.258,-78.553,2.069,-3.656,4.774
-979.632,42.618,-72.500,1.860,-4.122,4.330
-991.162,38.371,-68.561,1.536,-4.499,3.836
-1003.019,33.714,-60.693,1.169,-4.831,3.523
-1012.882,28.364,-51.598,0.907,-5.003,3.417
-1022.391,23.169,-46.274,0.660,-5.041,3.434
-1030.000,17.000,-40.000,0.350,-4.970,3.430
-1037.665,10.779,-31.300,-0.132,-4.785,3.478
-1045.455,6.813,-23.854,-0.510,-4.655,3.657
-1048.521,4.547,-18.187,-0.658,-4.533,3.802
-1048.673,4.076,-14.130,-0.915,-4.427,3.897
-1046.736,5.604,-12.441,-0.947,-4.249,3.910
-1041.277,5.984,-10.682,-0.820,-3.901,3.828
-1031.109,7.204,-13.529,-0.678,-3.462,3.695
-1019.812,10.711,-23.191,-0.245,-2.971,3.390
-1008.848,14.853,-33.501,0.086,-2.737,2.978
-996.005,19.714,-44.849,0.389,-2.741,2.408
-987.202,22.101,-54.283,0.823,-2.670,1.523
-983.129,24.313,-61.291,1.069,-2.511,0.510
-980.281,28.103,-69.582,1.248,-2.310,-0.534
-980.086,30.177,-77.088,1.320,-1.962,-1.548
-980.000,31.000,-84.000,1.050,-1.470,-2.450
-980.532,32.707,-88.650,0.678,-1.146,-3.310
-985.157,33.446,-89.389,0.377,-1.050,-3.943
-990.950,31.885,-87.344,0.082,-1.110,-4.218
-997.217,32.994,-84.574,-0.049,-1.296,-4.279
-1002.781,34.190,-81.578,-0.260,-1.452,-4.094
-1008.408,35.690,-75.265,-0.751,-1.559,-3.665
-1014.340,40.381,-67.388,-1.225,-1.531,-3.019
-1016.000,45.515,-58.721,-1.713,-1.404,-2.045
-1016.635,53.143,-49.782,-2.073,-1.488,-0.946
-1017.271,60.386,-42.272,-2.068,-1.731,0.105
-1015.968,68.004,-32.809,-1.992,-1.949,1.019
-1015.778,76.861,-22.246,-1.888,-2.038,1.475
-1014.325,82.240,-13.567,-1.571,-1.767,1.528
-1014.261,84.005,-7.170,-1.297,-1.242,1.369
-1016.000,82.000,-3.000,-1.050,-0.630,1.260
-1015.141,80.886,-0.360,-0.691,-0.121,1.435
-1014.434,81.414,2.194,-0.212,0.102,1.595
-1012.011,78.834,4.143,0.579,0.200,1.635
-1010.073,74.848,3.006,1.402,0.200,1.771
-1009.598,69.546,-0.690,2.055,0.247,1.942
-1008.770,60.883,-6.304,2.542,0.375,1.950
-1007.926,53.560,-10.217,2.816,0.422,1.883
-1007.053,47.577,-14.473,2.937,0.481,1.699
-1005.707,39.532,-22.336,2.937,0.650,1.535
-1001.466,34.935,-28.603,2.958,0.827,1.607
-997.936,31.808,-35.426,2.845,0.805,1.541
-995.895,26.577,-41.045,2.645,0.755,1.437
-994.644,23.199,-44.002,2.439,0.642,1.362
-992.465,20.545,-48.792,2.027,0.383,1.156
-989.000,18.000,-53.000,1.540,0.210,0.980
-988.992,17.804,-55.709,0.996,-0.078,0.913
-987.077,19.931,-57.316,0.519,-0.465,0.839
-984.573,24.259,-60.645,0.231,-0.732,0.556
-984.907,30.360,-65.598,-0.193,-0.972,0.268
-982.924,36.207,-69.239,-0.787,-1.199,-0.265
-983.569,42.491,-71.187,-1.305,-1.371,-1.219
-988.505,47.191,-69.782,-1.866,-1.635,-2.330
-997.212,47.132,-65.473,-2.413,-1.943,-3.491
-1006.476,45.313,-57.898,-2.932,-2.083,-4.291
-1011.336,44.701,-50.490,-3.564,-2.152,-4.709
-1015.687,45.466,-43.171,-3.735,-2.179,-5.030
-1021.615,43.661,-33.789,-3.571,-2.137,-5.475
-1025.539,39.978,-29.416,-3.440,-1.806,-5.932
-1023.444,37.695,-30.356,-3.101,-1.065,-6.184
-1021.000,36.000,-35.000,-3.080,-0.280,-6.160
-1018.731,35.935,-42.064,-3.334,0.463,-5.908
-1013.227,36.030,-46.916,-3.493,0.883,-5.824
-1010.795,36.393,-49.741,-3.793,0.880,-5.705
-1010.748,37.619,-49.258,-4.007,0.781,-5.481
-1011.143,38.208,-47.379,-4.090,0.667,-5.161
-1011.981,39.268,-45.260,-4.128,0.729,-4.530
-1010.898,40.065,-40.656,-4.053,0.848,-3.871
-1009.228,42.628,-38.084,-3.994,1.030,-3.203
-1004.417,48.067,-37.111,-3.894,1.284,-2.572
-998.947,49.672,-38.281,-3.661,1.499,-2.081
-996.717,48.198,-43.065,-3.486,1.773,-1.538
-994.742,50.758,-46.136,-3.557,1.784,-0.888
-992.180,55.278,-48.829,-3.657,1.623,-0.332
-990.985,58.414,-48.564,-3.629,1.251,0.242
-992.000,61.000,-45.000,-3.430,0.770,0.910
-992.970,63.695,-44.955,-2.951,0.587,1.292
-992.824,63.872,-43.283,-2.492,0.347,1.539
-994.616,60.421,-39.578,-2.109,0.262,1.693
-999.113,57.531,-39.176,-1.630,0.502,1.639
-999.214,52.698,-40.891,-1.311,0.828,1.604
-997.877,46.929,-45.167,-1.152,1.098,1.622
-997.970,43.766,-49.184,-0.967,1.190,1.765
-997.058,40.246,-49.990,-0.850,1.009,1.948
-996.318,38.232,-50.658,-0.632,0.616,2.120
-994.339,36.841,-52.328,-0.377,0.508,2.329
-993.690,34.743,-54.030,-0.361,0.367,2.406
-993.763,33.526,-55.839,-0.323,0.117,2.333
-994.145,32.889,-57.397,-0.407,0.051,2.199
-993.759,33.036,-58.032,-0.565,-0.095,2.079
-992.000,33.000,-58.000,-0.420,-0.210,1.820
-992.755,33.000,-58.784,-0.294,-0.386,1.396
-994.758,32.489,-59.475,-0.139,-0.545,0.942
-1000.013,30.335,-56.934,0.021,-0.571,0.332
-1004.441,27.614,-56.556,-0.074,-0.493,-0.125
-1002.720,27.340,-60.409,-0.154,-0.272,-0.237
-1000.696,29.409,-60.707,-0.127,-0.327,-0.404
-1001.117,28.824,-60.022,0.016,-0.575,-0.733
-1002.900,26.165,-60.063,0.263,-0.635,-1.340
-1003.739,24.423,-59.663,0.409,-0.521,-2.102
-1005.190,22.426,-62.066,0.452,-0.427,-2.524
-1006.102,22.547,-63.940,0.598,-0.420,-2.659
-1005.569,25.177,-66.381,0.743,-0.433,-2.814
-1006.423,26.157,-67.959,0.662,-0.516,-3.133
-1009.619,27.205,-65.673,0.640,-0.465,-3.654
-1012.000,28.000,-66.000,0.700,-0.210,-4.060
-1008.634,30.288,-67.041,0.683,0.096,-4.181
-1006.585,35.035,-66.821,0.975,0.286,-4.424
-1008.195,37.202,-67.362,1.404,0.166,-4.829
-1009.004,39.149,-65.781,1.693,-0.000,-5.086
-1008.734,40.056,-62.940,1.991,0.041,-5.213
-1010.816,40.122,-60.399,2.007,0.283,-5.145
-1015.267,41.083,-57.812,1.965,0.660,-4.957
-1016.073,42.813,-55.239,2.031,1.023,-4.777
-1015.769,44.249,-51.743,2.001,1.383,-4.532
-1016.223,42.359,-49.432,2.316,1.757,-4.340
-1014.868,42.285,-47.835,2.798,2.063,-4.128
-1015.576,40.598,-44.165,3.008,2.253,-3.883
-1016.943,37.424,-41.249,3.110,2.583,-3.599
-1013.095,38.226,-38.579,3.250,3.079,-3.056
-1006.000,39.000,-38.000,3.570,3.360,-2.520
-997.347,39.102,-41.472,4.054,3.484,-2.146
-990.162,37.642,-44.650,4.476,3.558,-1.958
-987.181,35.423,-50.241,4.595,3.607,-2.013
-983.290,31.943,-54.892,4.460,3.650,-2.007
-977.802,29.295,-57.112,4.270,3.463,-1.937
-974.477,27.337,-62.085,4.209,3.034,-1.868
-975.231,23.772,-62.865,4.351,2.392,-1.654
-978.818,22.083,-61.919,4.410,1.599,-1.106
-979.190,21.600,-63.128,4.455,0.909,-0.398
-979.455,25.218,-61.124,4.542,0.332,-0.108
-983.734,28.050,-58.872,4.587,-0.044,-0.316
-986.620,25.597,-60.169,4.808,0.192,-0.798
-987.314,23.329,-66.161,4.880,0.673,-1.239
-992.046,19.112,-71.533,4.649,0.676,-1.594
-998.000,13.000,-74.000,4.410,0.560,-1.820
