acc_x[mg],acc_y[mg],acc_z[mg],gyro_x[dps],gyro_y[dps],gyro_z[dps]
-261.000,-40.000,999.000,27.510,1.120,1.890
-278.699,-23.549,1039.893,26.493,2.283,1.436
-263.144,0.485,937.813,21.062,3.377,0.919
-293.531,-0.521,1025.465,21.552,4.404,1.266
-277.330,5.650,929.358,18.316,5.309,1.110
-300.959,24.732,988.080,20.988,6.076,1.585
-303.870,62.129,951.267,20.129,6.626,2.009
-321.665,92.780,975.807,18.876,7.022,2.107
-322.075,109.343,975.331,14.660,7.198,2.165
-322.200,106.722,953.230,8.669,7.424,2.367
-340.906,88.170,972.464,4.357,7.710,2.653
-349.188,68.784,951.052,-0.287,8.117,2.605
-355.555,45.418,966.784,-2.223,8.623,2.609
-345.910,37.225,941.415,-3.920,8.999,2.550
-357.491,44.994,953.994,-4.657,9.361,2.446
-360.000,43.000,951.000,-7.000,9.520,2.450
-358.887,38.772,944.744,-10.810,9.454,2.171
-362.550,40.369,949.468,-14.222,9.496,1.746
-360.063,30.926,935.411,-17.213,9.506,1.685
-373.186,16.984,940.965,-19.339,9.409,1.786
-379.928,5.413,930.794,-21.378,9.485,1.525
-379.966,-4.427,922.014,-21.736,9.291,1.013
-378.849,-2.551,915.101,-21.875,8.865,0.844
-376.339,1.032,928.185,-22.300,8.632,0.916
-370.193,-0.317,922.668,-23.051,8.147,0.651
-369.281,4.105,918.548,-24.793,7.365,0.333
-371.820,3.420,927.433,-27.060,6.700,0.243
-368.847,-19.707,916.579,-29.074,6.401,0.163
-374.824,-39.952,915.044,-29.634,6.000,0.028
-381.335,-43.245,911.521,-29.236,5.456,-0.087
-378.000,-48.000,916.000,-28.560,4.970,-0.280
-371.645,-49.710,915.283,-28.546,4.246,-0.745
-370.338,-43.981,909.207,-29.307,3.523,-1.348
-373.214,-53.988,909.176,-30.382,2.741,-1.509
-377.086,-90.494,908.642,-31.161,2.272,-1.303
-379.484,-118.349,906.680,-30.156,2.051,-1.557
-378.571,-121.657,905.471,-27.560,1.468,-1.843
-376.962,-122.346,910.145,-25.034,1.106,-1.740
-381.244,-131.192,908.079,-23.341,0.929,-1.737
-392.403,-137.894,913.803,-22.172,0.678,-2.061
-392.915,-138.546,917.393,-20.926,0.489,-2.468
-386.929,-146.534,906.531,-19.447,0.313,-2.506
-393.609,-145.055,899.417,-17.881,0.084,-2.590
-403.066,-140.199,895.994,-16.273,-0.368,-2.637
-405.105,-147.910,895.186,-15.392,-0.830,-2.521
-406.000,-143.000,899.000,-14.910,-1.190,-2.800
-400.054,-137.340,905.242,-13.903,-1.670,-3.124
-385.262,-145.632,907.375,-12.710,-2.130,-3.181
-380.143,-148.836,905.933,-11.348,-2.503,-3.028
-384.282,-141.376,905.851,-9.834,-3.038,-2.849
-386.941,-137.893,905.780,-8.652,-3.526,-2.649
-390.905,-140.397,904.337,-8.355,-3.968,-2.619
-393.110,-140.008,903.241,-8.784,-4.515,-2.807
-394.924,-145.210,911.378,-8.968,-4.754,-2.736
-392.442,-156.165,912.402,-8.591,-4.861,-2.824
-387.716,-159.336,909.667,-7.445,-4.986,-2.887
-388.722,-149.966,919.841,-5.997,-4.894,-2.630
-383.362,-134.994,925.702,-5.195,-4.789,-2.424
-376.303,-125.711,932.226,-5.339,-4.616,-2.014
-372.538,-135.694,931.991,-6.318,-4.284,-1.561
-373.000,-150.000,926.000,-6.720,-3.920,-1.540
-373.962,-145.977,929.628,-6.069,-3.555,-1.807
-363.806,-146.637,927.739,-5.375,-3.227,-1.581
-359.381,-157.964,922.399,-4.712,-3.046,-1.040
-362.887,-161.811,920.373,-4.069,-2.962,-0.821
-363.527,-160.537,925.146,-3.323,-2.817,-0.622
-354.926,-163.335,924.738,-2.605,-2.818,-0.560
-342.488,-172.812,919.966,-2.281,-2.869,-0.479
-344.521,-181.552,921.188,-1.317,-2.863,-0.533
-348.505,-183.294,915.088,0.697,-3.036,-0.934
-352.855,-172.442,914.981,2.647,-3.180,-0.918
-359.233,-157.737,918.628,3.910,-3.302,-0.743
-357.631,-158.968,921.820,4.446,-3.364,-0.464
-359.282,-169.847,925.320,4.896,-3.248,-0.159
-361.762,-168.812,925.364,6.300,-3.131,-0.220
-354.000,-158.000,931.000,8.190,-2.940,-0.070
-349.291,-148.563,932.042,9.358,-2.695,0.132
-357.826,-136.740,934.013,9.576,-2.497,0.138
-359.233,-127.493,934.732,8.863,-2.346,0.166
-353.407,-128.701,934.549,7.772,-2.042,0.300
-357.013,-131.390,939.516,7.392,-1.579,0.475
-357.124,-129.544,939.875,7.740,-1.263,0.607
-354.045,-130.113,942.276,8.225,-0.789,1.016
-357.762,-127.592,943.157,8.709,-0.053,1.263
-357.483,-119.201,941.186,9.232,0.516,1.179
-358.323,-115.935,939.910,9.312,1.046,1.337
-365.168,-107.106,936.597,8.859,1.536,1.397
-367.290,-93.007,933.830,8.173,1.763,1.296
-368.245,-87.008,934.449,6.747,1.947,1.360
-365.099,-87.448,933.248,4.821,2.031,1.399
-361.000,-92.000,926.000,3.290,2.030,1.330
-362.178,-89.409,927.217,2.623,1.939,1.043
-358.217,-79.317,928.544,2.446,1.481,0.685
-357.847,-74.664,924.126,1.733,1.115,0.611
-364.696,-76.668,926.500,0.497,0.966,0.641
-367.113,-82.534,924.095,-0.719,0.603,0.620
-367.368,-89.693,923.747,-1.681,0.210,0.645
-372.490,-98.857,926.991,-2.666,0.064,0.698
-375.178,-111.108,924.138,-3.225,-0.056,0.512
-372.009,-120.424,925.414,-2.748,-0.203,0.302
-374.284,-126.543,925.269,-2.104,-0.164,0.148
-372.964,-127.230,922.240,-1.193,-0.136,-0.279
-368.715,-117.988,924.421,-0.113,-0.119,-0.422
-370.664,-110.555,927.485,0.215,-0.060,-0.332
-369.688,-110.344,925.367,-0.253,-0.070,-0.256
-371.000,-115.000,923.000,-1.050,0.000,-0.070
-375.791,-117.250,928.090,-1.336,0.066,-0.124
-372.603,-116.578,930.688,-1.267,0.110,-0.119
-364.775,-123.287,927.784,-1.241,0.227,0.035
-366.056,-127.240,925.674,-1.072,0.324,0.081
-371.423,-131.279,922.760,-0.636,0.356,0.045
-370.346,-134.655,921.835,0.011,0.341,-0.118
-367.827,-126.311,918.569,0.603,0.190,-0.285
-365.192,-123.748,913.231,1.092,-0.179,-0.159
-364.530,-127.467,912.702,1.303,-0.548,0.009
-366.699,-128.622,913.543,1.490,-0.970,-0.130
-366.139,-124.364,914.941,1.765,-1.554,-0.344
-363.990,-114.508,918.686,1.830,-1.997,-0.616
-362.676,-110.531,921.621,1.777,-2.357,-0.687
-363.342,-108.416,924.705,1.297,-2.700,-0.632
-367.000,-104.000,930.000,0.700,-2.800,-0.700
-367.455,-103.656,930.341,0.555,-2.800,-0.703
-364.742,-105.832,929.376,0.610,-2.762,-0.626
-368.099,-105.545,931.422,0.650,-2.647,-0.397
-373.435,-108.731,931.987,0.583,-2.492,-0.363
-375.312,-116.479,933.437,0.575,-2.175,-0.303
-372.720,-112.884,932.342,0.638,-1.921,-0.319
-364.415,-103.610,931.082,0.541,-1.812,-0.490
-362.682,-106.319,932.124,-0.064,-1.689,-0.295
-368.020,-116.650,928.040,-1.149,-1.571,-0.267
-371.094,-125.566,925.086,-1.371,-1.439,-0.214
-372.495,-130.457,924.472,-0.241,-1.341,-0.073
-367.880,-129.963,926.207,1.209,-1.167,-0.057
-361.775,-123.666,929.405,2.311,-1.027,0.008
-363.732,-117.290,926.291,2.747,-1.060,-0.086
-369.000,-115.000,924.000,2.520,-1.120,-0.070
-372.758,-115.552,925.669,2.033,-1.128,-0.055
-370.617,-120.660,927.151,1.619,-1.062,-0.176
-360.807,-127.955,924.741,1.563,-1.030,-0.266
-358.796,-130.223,922.086,2.402,-0.858,-0.260
-366.991,-126.026,927.700,3.830,-0.639,-0.192
-367.109,-122.296,930.571,4.777,-0.639,-0.220
-365.162,-116.263,925.754,5.200,-0.626,-0.205
-369.744,-105.605,927.655,5.202,-0.564,-0.083
-369.084,-102.697,929.413,4.711,-0.548,0.104
-363.918,-103.242,928.611,3.913,-0.647,0.175
-358.583,-104.015,931.325,3.138,-0.754,0.055
-354.769,-109.554,927.316,3.097,-0.785,-0.013
-357.300,-108.636,928.743,3.462,-0.868,-0.002
-360.041,-101.966,934.235,3.663,-0.911,-0.085
-358.000,-95.000,932.000,3.640,-0.910,-0.070
-360.074,-87.749,934.468,2.961,-0.911,0.064
-365.482,-86.048,934.343,1.826,-0.909,0.052
-365.272,-91.133,930.783,0.734,-0.888,0.220
-365.459,-99.625,930.938,0.086,-0.749,0.436
-365.256,-105.909,928.948,0.193,-0.564,0.384
-361.006,-108.027,929.317,0.788,-0.487,0.348
-360.176,-103.380,928.786,1.442,-0.570,0.267
-365.448,-95.393,926.861,1.689,-0.694,0.080
-371.483,-93.754,931.836,1.246,-0.711,0.055
-370.552,-94.643,932.337,0.232,-0.651,0.087
-367.072,-96.200,926.166,-0.848,-0.618,0.068
-367.612,-99.765,927.332,-1.495,-0.644,0.240
-369.394,-104.702,930.767,-1.717,-0.604,0.364
-368.657,-109.478,933.419,-1.649,-0.467,0.348
-366.000,-110.000,934.000,-1.260,-0.280,0.350
-365.190,-110.025,933.604,-0.817,0.024,0.401
-361.817,-108.194,936.218,-0.599,0.244,0.532
-356.581,-104.803,933.249,-0.536,0.360,0.621
-356.828,-102.631,931.912,-0.919,0.469,0.836
-359.919,-98.803,935.525,-1.885,0.514,1.040
-355.881,-104.562,939.272,-2.834,0.662,1.138
-342.003,-115.438,929.612,-2.983,0.531,1.110
-339.298,-111.771,912.643,-2.239,0.038,0.984
-354.083,-102.944,912.849,-1.538,-0.440,0.907
-368.899,-101.960,915.455,-1.524,-0.963,0.411
-377.084,-104.630,918.117,-2.011,-1.283,-0.254
-376.563,-103.966,921.911,-2.269,-1.521,-0.818
-369.441,-99.803,922.346,-1.575,-1.710,-1.173
-363.734,-97.608,926.810,-0.395,-1.673,-1.011
-370.000,-89.000,932.000,0.210,-1.680,-0.910
-377.195,-72.922,939.905,-0.083,-1.572,-0.979
-371.747,-66.047,943.342,-1.331,-1.343,-0.903
-368.779,-66.852,941.761,-3.241,-1.020,-0.619
-368.647,-70.854,938.303,-4.852,-0.671,-0.160
-370.343,-81.922,931.458,-6.033,-0.504,0.314
-374.238,-94.756,929.968,-6.959,-0.301,0.593
-368.317,-105.877,927.665,-7.287,-0.210,0.552
-362.175,-118.881,924.101,-7.343,-0.213,0.491
-361.205,-133.693,923.468,-7.348,-0.191,0.446
-360.124,-147.290,919.550,-6.715,-0.345,0.322
-359.956,-158.373,916.877,-5.231,-0.508,0.215
-359.661,-163.052,918.586,-3.254,-0.605,0.060
-358.715,-158.820,917.293,-1.214,-0.759,-0.127
-359.250,-148.175,918.659,0.421,-1.025,-0.304
-361.000,-139.000,923.000,1.400,-1.260,-0.350
-360.203,-141.579,923.119,1.842,-1.327,-0.116
-360.668,-151.209,921.847,2.270,-1.334,0.113
-366.566,-153.076,918.840,3.397,-1.324,0.174
-372.846,-147.907,920.656,5.246,-1.328,0.260
-373.469,-140.821,925.756,6.938,-1.167,0.264
-369.925,-130.900,931.330,7.864,-0.828,0.199
-363.434,-128.138,935.090,8.608,-0.459,0.216
-358.945,-129.230,934.975,9.644,-0.032,0.399
-363.580,-122.296,935.319,10.751,0.340,0.656
-367.141,-111.747,932.645,11.589,0.676,0.831
-366.564,-98.115,931.259,11.495,0.820,1.027
-367.221,-84.056,926.970,10.382,0.696,0.998
-367.010,-80.935,920.379,8.831,0.482,0.908
-371.013,-94.700,919.047,7.644,0.162,0.985
-377.000,-106.000,921.000,7.420,-0.000,0.840
-375.765,-99.873,926.110,8.050,0.001,0.591
-370.372,-85.460,932.062,8.860,-0.002,0.402
-366.787,-67.486,936.842,8.734,-0.025,0.274
-365.610,-56.560,935.614,7.492,-0.109,0.352
-368.930,-55.410,937.029,5.723,-0.008,0.579
-375.149,-62.258,933.622,3.873,0.061,0.722
-377.104,-71.493,919.129,2.672,-0.081,0.857
-381.485,-75.644,916.767,2.316,-0.200,1.164
-384.915,-81.752,918.140,2.308,-0.416,1.440
-377.753,-84.401,919.045,2.282,-0.741,1.428
-372.737,-83.280,923.551,2.135,-0.932,1.129
-370.575,-82.781,925.534,1.967,-1.049,0.881
-365.243,-83.387,927.478,1.977,-1.377,0.590
-361.756,-83.866,928.034,1.942,-1.631,0.238
-363.000,-83.000,928.000,1.890,-1.750,0.070
-367.369,-84.932,924.675,2.191,-1.998,-0.065
-369.988,-82.503,921.893,2.309,-2.132,0.024
-368.850,-78.350,922.838,1.979,-2.326,0.047
-367.529,-75.018,925.621,1.408,-2.547,-0.213
-367.843,-72.644,931.115,0.579,-2.619,-0.284
-363.620,-74.399,935.679,-0.140,-2.764,-0.395
-359.934,-73.883,935.873,-0.584,-2.796,-0.566
-360.034,-73.032,934.064,-0.644,-2.733,-0.559
-360.830,-71.138,933.499,-0.434,-2.725,-0.660
-367.806,-63.939,929.423,-0.577,-2.768,-0.782
-369.991,-54.129,927.724,-1.248,-2.864,-0.684
-366.377,-53.503,931.610,-2.626,-3.026,-0.436
-364.050,-63.274,933.507,-4.493,-3.178,-0.252
-357.845,-72.299,937.740,-5.995,-3.140,-0.388
-352.000,-81.000,939.000,-6.720,-3.150,-0.630
-352.425,-85.121,938.553,-6.629,-3.108,-0.868
-356.270,-82.273,940.832,-6.452,-2.910,-1.096
-358.226,-78.051,935.854,-6.807,-2.803,-1.096
-362.636,-73.954,937.350,-7.438,-2.604,-0.974
-362.699,-76.073,942.620,-8.376,-2.361,-0.744
-357.037,-86.482,935.987,-9.257,-2.106,-0.625
-358.280,-92.141,933.167,-9.519,-1.878,-0.627
-360.081,-94.574,935.967,-9.332,-1.759,-0.562
-357.629,-101.624,933.835,-9.067,-1.634,-0.569
-356.215,-105.736,930.931,-8.981,-1.532,-0.470
-358.672,-110.279,931.789,-8.858,-1.344,-0.376
-357.529,-116.701,932.698,-8.498,-1.238,-0.316
-354.738,-119.413,928.138,-8.185,-1.275,-0.289
-357.460,-120.228,924.971,-8.028,-1.344,-0.353
-358.000,-125.000,927.000,-7.840,-1.400,-0.280
-357.297,-134.539,927.211,-7.505,-1.334,-0.322
-352.385,-142.541,925.483,-6.584,-1.376,-0.551
-346.938,-144.296,924.624,-4.697,-1.412,-0.784
-350.471,-138.116,928.396,-2.681,-1.398,-0.835
-351.836,-134.238,930.989,-1.280,-1.384,-0.726
-354.197,-132.123,928.425,-0.279,-1.322,-0.587
-360.284,-126.603,929.148,0.464,-1.328,-0.331
-359.272,-123.980,929.128,0.767,-1.204,-0.211
-357.625,-126.818,929.198,0.747,-1.066,-0.209
-359.278,-130.105,932.527,1.064,-0.976,-0.248
-356.557,-125.247,932.161,1.858,-0.788,-0.285
-352.668,-122.620,931.944,2.848,-0.641,-0.124
-355.596,-118.376,931.845,3.730,-0.522,-0.080
-360.387,-103.627,933.431,4.073,-0.402,-0.044
-359.000,-94.000,934.000,3.850,-0.280,0.280
-359.254,-95.241,931.782,3.091,-0.161,0.541
-364.482,-100.034,934.827,2.161,0.008,0.614
-363.226,-103.002,931.612,1.721,0.180,0.672
-362.689,-106.949,927.890,1.681,0.212,0.729
-367.420,-103.668,931.154,1.667,0.223,0.809
-364.766,-101.710,931.932,1.591,0.301,0.939
-362.045,-108.387,931.963,1.539,0.349,0.977
-363.091,-109.900,929.306,1.538,0.286,0.914
-359.811,-113.337,926.885,1.668,0.270,0.861
-357.857,-112.647,927.766,2.165,0.267,0.742
-357.993,-110.152,927.020,2.586,0.085,0.684
-357.988,-110.526,924.808,2.538,-0.043,0.695
-357.794,-103.418,923.815,2.542,-0.224,0.598
-358.394,-98.653,924.117,2.485,-0.623,0.555
-363.000,-98.000,926.000,2.100,-0.910,0.420
-363.454,-102.818,928.022,1.880,-1.034,0.225
-361.497,-108.204,926.889,2.219,-1.114,0.165
-364.086,-105.250,929.402,3.112,-1.089,0.076
-364.744,-99.955,933.266,4.022,-1.010,0.121
-363.560,-91.218,932.526,4.400,-0.960,0.252
-362.746,-83.891,934.558,3.949,-0.899,0.276
-362.003,-81.914,933.740,2.848,-0.913,0.202
-362.903,-81.816,931.049,1.811,-0.914,0.139
-364.428,-87.808,930.522,1.252,-0.895,0.199
-367.250,-96.046,927.390,1.138,-0.971,0.183
-367.183,-94.936,927.601,1.363,-0.967,0.074
-362.860,-87.282,929.355,1.634,-1.027,0.130
-360.513,-79.667,930.614,1.390,-1.156,0.326
-358.654,-74.871,934.637,0.436,-1.283,0.256
-357.000,-82.000,936.000,-1.120,-1.400,0.210
-356.160,-92.255,931.860,-2.258,-1.451,0.129
-356.130,-93.963,927.345,-2.081,-1.629,-0.334
-359.789,-94.135,927.826,-1.461,-1.731,-0.426
-360.486,-88.861,929.186,-0.891,-1.817,-0.542
-358.575,-75.509,928.817,-0.753,-2.060,-0.850
-360.525,-65.602,930.353,-1.607,-2.292,-0.719
-360.967,-66.365,931.039,-3.142,-2.540,-0.632
-361.844,-72.478,932.798,-4.851,-2.785,-0.694
-362.472,-81.243,934.177,-6.062,-2.886,-0.804
-360.519,-92.300,933.292,-6.514,-2.735,-0.946
-362.698,-92.445,935.655,-6.354,-2.577,-1.004
-360.920,-89.790,936.785,-6.050,-2.449,-0.912
-354.307,-94.539,935.728,-6.198,-2.255,-0.722
-354.489,-95.978,936.104,-6.839,-2.161,-0.706
-358.000,-97.000,937.000,-7.630,-2.100,-0.700
-357.565,-100.190,937.384,-8.304,-2.038,-0.690
-352.945,-108.929,932.062,-8.855,-1.980,-0.764
-352.697,-121.387,927.526,-8.986,-1.918,-0.756
-357.302,-127.561,928.096,-8.451,-1.856,-0.848
-357.384,-131.108,925.821,-7.398,-1.807,-1.039
-355.583,-128.617,926.428,-6.263,-1.837,-1.039
-352.717,-121.597,926.939,-5.328,-1.972,-1.054
-350.075,-119.925,927.757,-4.835,-2.095,-0.996
-348.815,-122.086,930.133,-5.084,-2.152,-0.787
-344.150,-127.297,929.062,-5.302,-2.233,-0.816
-343.556,-134.660,932.463,-4.729,-2.192,-0.814
-347.938,-142.498,933.365,-3.519,-1.998,-0.771
-350.871,-146.451,931.626,-2.061,-1.738,-0.872
-355.984,-143.028,930.831,-0.535,-1.507,-0.913
-361.000,-133.000,932.000,0.770,-1.260,-0.910
-358.218,-120.449,936.731,1.163,-1.005,-0.742
-349.169,-115.082,936.086,0.480,-0.884,-0.476
-345.247,-116.091,937.348,-0.596,-0.705,-0.359
-346.753,-122.148,935.805,-1.011,-0.588,-0.334
-347.381,-132.988,930.247,-0.633,-0.524,-0.238
-352.462,-135.220,929.917,0.265,-0.394,-0.224
-354.833,-126.166,927.870,1.727,-0.349,-0.278
-350.286,-116.595,929.677,2.830,-0.348,-0.152
-349.471,-110.666,932.179,2.889,-0.405,-0.072
-352.449,-110.408,930.379,2.393,-0.461,-0.037
-356.088,-115.271,929.538,1.837,-0.562,0.053
-356.688,-119.921,930.449,1.504,-0.658,0.071
-355.893,-122.350,932.655,1.627,-0.597,0.064
-354.429,-120.551,935.557,2.018,-0.472,-0.016
-348.000,-120.000,939.000,2.310,-0.350,-0.070
-345.636,-125.070,937.687,2.704,-0.116,-0.010
-349.429,-130.622,932.016,3.522,0.121,0.046
-355.718,-133.925,925.901,4.628,0.125,0.176
-364.340,-133.007,925.675,5.579,0.211,0.390
-364.551,-128.879,928.424,6.082,0.271,0.366
-357.386,-117.760,926.336,6.029,0.088,0.065
-353.923,-105.362,927.300,5.556,-0.162,-0.148
-353.976,-102.864,930.083,4.890,-0.469,-0.145
-354.549,-106.635,925.992,4.115,-0.668,-0.081
-358.318,-112.185,924.934,3.970,-0.804,-0.034
-364.779,-112.063,930.140,4.771,-0.837,0.097
-364.729,-111.290,932.711,5.768,-0.675,0.298
-359.445,-113.139,936.113,6.602,-0.400,0.329
-356.702,-107.600,936.723,7.129,-0.191,0.093
-354.000,-96.000,936.000,7.350,-0.140,-0.140
-351.237,-83.564,938.931,6.947,-0.075,-0.091
-350.648,-77.031,936.803,5.592,-0.077,-0.001
-352.942,-80.438,935.430,4.170,0.012,0.018
-356.940,-90.823,932.037,3.384,0.060,0.141
-357.999,-95.138,926.521,3.550,-0.166,0.072
-357.972,-89.119,928.658,4.391,-0.298,-0.198
-356.845,-77.879,930.183,4.755,-0.436,-0.360
-354.270,-61.140,937.264,4.151,-0.681,-0.483
-348.721,-53.545,941.864,2.464,-0.923,-0.504
-343.657,-57.562,937.028,0.297,-1.142,-0.464
-350.350,-60.345,938.535,-1.379,-1.226,-0.570
-356.656,-64.485,937.025,-2.661,-1.311,-0.646
-357.571,-72.701,933.542,-3.600,-1.424,-0.624
-362.798,-79.790,935.294,-4.117,-1.383,-0.630
-362.000,-82.000,936.000,-4.340,-1.260,-0.560
-354.676,-82.700,936.949,-4.556,-1.195,-0.487
-354.547,-85.722,935.761,-5.148,-1.183,-0.545
-359.005,-89.975,933.483,-5.969,-1.227,-0.559
-360.060,-94.291,931.867,-6.842,-1.295,-0.602
-359.836,-98.857,930.489,-7.628,-1.353,-0.764
-358.574,-105.991,929.522,-8.133,-1.412,-0.851
-358.083,-114.475,926.871,-8.174,-1.479,-0.918
-359.072,-115.271,927.000,-7.744,-1.663,-1.042
-355.964,-112.137,924.741,-7.137,-1.855,-1.071
-353.022,-112.572,924.512,-6.651,-2.022,-0.917
-353.215,-114.530,930.352,-6.605,-2.201,-0.761
-351.932,-121.963,929.687,-6.601,-2.246,-0.825
-349.533,-126.192,929.416,-6.097,-2.231,-0.926
-351.548,-123.692,931.121,-5.346,-2.159,-0.906
-354.000,-124.000,932.000,-4.760,-2.170,-0.910
-355.555,-123.320,933.149,-4.505,-2.127,-0.908
-357.500,-121.823,931.266,-4.298,-1.968,-0.961
-354.348,-123.885,931.373,-3.929,-1.982,-0.938
-352.097,-128.030,931.997,-3.410,-1.887,-0.728
-349.765,-126.495,934.006,-2.752,-1.804,-0.732
-347.846,-122.432,935.883,-2.211,-1.717,-0.759
-348.026,-121.938,932.740,-1.946,-1.608,-0.699
-350.567,-119.251,931.041,-1.824,-1.614,-0.703
-355.823,-117.778,930.825,-1.864,-1.538,-0.632
-352.581,-118.911,931.824,-1.926,-1.630,-0.712
-346.329,-118.247,930.390,-1.783,-1.717,-0.806
-342.644,-115.969,928.526,-1.586,-1.807,-0.726
-346.026,-116.742,930.478,-1.307,-1.905,-0.710
-352.529,-119.123,929.792,-1.098,-1.988,-0.780
-351.000,-118.000,930.000,-0.910,-2.240,-0.770
-347.436,-119.472,930.185,-0.647,-2.307,-0.701
-346.656,-122.392,929.070,-0.674,-2.402,-0.747
-352.771,-124.945,928.781,-0.685,-2.508,-0.787
-354.712,-129.336,929.399,-0.551,-2.551,-0.734
-352.426,-131.555,931.603,-0.298,-2.576,-0.700
-351.365,-133.581,931.882,0.089,-2.412,-0.800
-347.936,-134.961,932.017,0.533,-2.384,-0.834
-351.643,-132.296,931.091,1.211,-2.386,-0.708
-352.000,-128.747,932.684,1.596,-2.269,-0.643
-348.330,-124.935,937.628,1.604,-2.147,-0.578
-347.226,-120.102,936.420,1.608,-2.026,-0.539
-345.161,-119.261,936.384,1.443,-1.901,-0.410
-346.785,-119.649,936.516,1.321,-1.789,-0.237
-347.959,-115.139,936.439,1.416,-1.651,-0.119
-346.000,-111.000,941.000,1.400,-1.400,-0.000
-342.290,-110.680,937.972,1.214,-1.209,-0.007
-344.052,-114.006,934.347,1.156,-1.092,0.146
-349.547,-115.233,937.522,1.345,-0.933,0.255
-348.502,-112.463,939.433,1.581,-0.729,0.153
-344.264,-112.185,940.223,1.588,-0.587,0.145
-340.146,-113.519,940.956,1.535,-0.444,0.145
-339.084,-118.430,939.939,1.541,-0.191,0.298
-340.906,-119.391,940.842,1.660,-0.012,0.424
-341.093,-112.328,941.493,1.939,0.166,0.297
-341.225,-108.667,938.549,1.764,0.317,0.348
-343.872,-106.747,937.142,1.142,0.398,0.477
-347.362,-105.659,934.069,0.627,0.394,0.323
-347.552,-104.617,933.555,0.244,0.233,0.189
-344.472,-105.295,936.042,0.064,0.216,0.120
-342.000,-104.000,933.000,0.210,0.140,-0.070
-342.606,-95.066,933.469,0.413,-0.111,-0.090
-345.902,-92.561,935.417,0.243,-0.245,0.048
-348.947,-93.055,933.642,-0.533,-0.372,0.074
-350.893,-94.836,934.880,-1.659,-0.438,0.088
-352.526,-103.525,935.902,-2.521,-0.400,0.175
-352.720,-108.634,936.253,-3.033,-0.330,0.210
-348.538,-111.288,939.263,-3.223,-0.196,0.213
-343.219,-115.707,940.180,-3.220,0.049,0.276
-343.308,-117.339,937.159,-3.185,0.257,0.288
-346.667,-115.222,939.127,-3.019,0.351,0.268
-349.239,-116.467,941.643,-3.111,0.574,0.319
-347.558,-120.984,937.467,-3.245,0.784,0.359
-346.491,-123.707,934.225,-3.084,0.976,0.351
-353.154,-126.438,931.530,-2.822,1.133,0.443
-356.000,-128.000,930.000,-2.450,1.190,0.560
-352.678,-125.633,931.712,-2.191,1.320,0.450
-346.532,-122.622,932.915,-2.109,1.290,0.295
-340.490,-126.401,932.144,-2.058,1.244,0.283
-346.697,-130.002,928.894,-1.728,1.254,0.254
-353.547,-125.771,928.237,-1.046,1.138,0.193
-353.911,-119.423,930.092,-0.343,1.026,0.226
-352.832,-111.399,927.775,0.003,0.899,0.282
-350.972,-107.853,926.939,-0.308,0.718,0.280
-353.372,-112.657,926.566,-0.824,0.424,0.288
-354.345,-117.128,924.413,-1.060,0.148,0.168
-353.435,-118.981,926.644,-0.913,-0.064,-0.078
-351.941,-121.078,928.074,-0.493,-0.341,-0.143
-349.366,-123.778,929.899,-0.103,-0.527,-0.159
-349.044,-125.035,931.859,0.180,-0.562,-0.308
-350.000,-124.000,927.000,0.490,-0.630,-0.490
-353.440,-121.439,925.570,0.975,-0.811,-0.622
-355.759,-118.771,927.506,1.315,-0.988,-0.626
-356.820,-115.836,924.879,1.239,-1.219,-0.702
-359.286,-111.763,926.709,0.933,-1.420,-0.793
-359.450,-109.489,931.411,0.390,-1.492,-0.608
-354.433,-110.568,934.753,-0.291,-1.549,-0.483
-348.771,-115.472,936.995,-0.800,-1.538,-0.488
-349.731,-119.909,933.420,-1.044,-1.539,-0.424
-353.233,-119.120,929.358,-0.965,-1.497,-0.372
-357.036,-121.305,928.157,-0.741,-1.400,-0.245
-361.708,-129.015,927.819,-0.649,-1.421,-0.227
-362.621,-135.459,930.146,-0.190,-1.332,-0.291
-358.277,-136.809,932.441,0.819,-1.131,-0.164
-353.495,-134.670,933.005,1.733,-0.951,-0.152
-353.000,-132.000,933.000,2.450,-0.770,-0.210
-354.172,-123.611,935.505,2.858,-0.704,-0.200
-350.038,-116.199,935.748,2.713,-0.653,-0.286
-346.172,-117.494,928.749,2.257,-0.607,-0.137
-354.864,-117.162,926.887,1.824,-0.688,0.092
-360.108,-115.943,927.743,1.803,-0.822,0.037
-353.127,-117.172,927.102,2.096,-0.929,0.102
-348.911,-115.798,930.294,2.244,-0.984,0.131
-349.812,-112.340,932.854,2.302,-1.045,-0.058
-352.618,-107.737,935.889,2.432,-1.062,-0.136
-351.804,-106.561,940.545,2.397,-0.972,-0.149
-346.588,-106.713,942.288,2.165,-0.774,-0.100
-345.324,-102.949,938.736,2.088,-0.520,-0.070
-351.090,-98.656,937.220,1.946,-0.397,-0.043
-353.712,-94.527,938.951,1.349,-0.343,0.178
-347.000,-94.000,935.000,0.420,-0.350,0.280
-341.273,-93.878,935.382,-0.553,-0.415,0.208
-341.929,-99.635,936.508,-1.494,-0.459,0.310
-345.947,-114.671,931.538,-2.110,-0.564,0.348
-349.743,-124.163,933.777,-1.827,-0.477,0.197
-351.281,-129.505,931.925,-0.820,-0.302,0.100
-352.460,-124.733,929.389,0.412,-0.271,-0.131
-356.309,-114.387,935.390,1.141,-0.125,-0.201
-356.381,-107.571,936.087,0.952,-0.002,-0.070
-350.007,-102.491,937.258,0.178,-0.002,-0.186
-348.438,-108.538,938.185,-0.964,0.036,-0.182
-349.148,-112.183,934.516,-1.645,0.145,-0.115
-349.118,-115.326,933.641,-1.637,0.238,-0.176
-350.135,-118.916,930.556,-1.463,0.178,-0.362
-348.628,-111.713,928.049,-0.954,0.047,-0.663
-346.000,-107.000,931.000,-0.490,-0.140,-0.630
-343.304,-105.777,932.922,-0.583,-0.271,-0.438
-342.572,-110.717,932.562,-0.866,-0.361,-0.362
-344.940,-114.989,930.179,-0.882,-0.568,-0.341
-349.291,-108.852,930.916,-0.587,-0.658,-0.359
-351.334,-104.001,933.004,-0.416,-0.758,-0.333
-354.214,-107.500,928.716,-0.959,-0.948,-0.261
-362.676,-115.571,927.138,-1.801,-1.057,-0.211
-367.928,-120.725,929.000,-2.100,-1.119,-0.276
-365.482,-123.689,928.603,-1.959,-1.069,-0.241
-357.371,-123.111,932.058,-1.579,-1.004,-0.135
-349.763,-120.546,935.474,-1.128,-0.912,-0.184
-347.315,-119.350,935.694,-0.739,-0.796,-0.212
-346.876,-115.455,934.335,-0.536,-0.758,-0.214
-347.139,-111.853,932.964,-0.657,-0.691,-0.201
-349.000,-117.000,933.000,-0.770,-0.700,-0.070
-351.598,-126.990,929.621,-0.790,-0.707,0.066
-354.236,-129.965,927.110,-0.389,-0.683,-0.017
-355.948,-130.607,926.394,0.482,-0.754,-0.118
-355.708,-130.038,925.624,1.168,-0.764,0.005
-356.063,-124.736,928.077,1.624,-0.799,-0.066
-352.563,-119.982,930.116,1.851,-0.950,-0.229
-346.794,-114.515,930.068,1.884,-1.134,-0.208
-347.877,-109.205,933.600,1.520,-1.257,-0.270
-346.110,-110.548,936.518,0.904,-1.260,-0.395
-343.487,-117.022,932.026,0.947,-1.271,-0.483
-348.703,-116.203,932.064,1.442,-1.193,-0.460
-351.306,-110.661,935.939,2.023,-1.092,-0.405
-351.177,-106.362,932.468,2.331,-1.135,-0.424
-353.339,-99.000,931.199,1.938,-1.114,-0.322
-354.000,-99.000,932.000,1.260,-1.190,-0.140
-353.162,-104.590,930.928,0.521,-1.380,-0.181
-351.182,-105.062,931.984,0.055,-1.493,-0.378
-346.987,-106.209,930.677,-0.034,-1.675,-0.471
-346.681,-110.267,929.486,0.121,-1.795,-0.503
-352.442,-112.050,930.241,0.489,-1.841,-0.467
-356.390,-109.229,932.704,0.632,-1.898,-0.406
-355.933,-109.262,935.055,0.465,-1.888,-0.262
-355.946,-115.393,934.108,-0.087,-1.829,-0.014
-356.730,-124.564,933.178,-0.563,-1.659,0.069
-358.344,-133.730,931.992,-0.246,-1.463,0.049
-358.388,-133.332,932.580,0.389,-1.294,-0.146
-353.000,-127.533,934.585,0.946,-1.099,-0.340
-347.571,-125.921,934.881,1.379,-0.937,-0.357
-344.838,-125.908,933.691,1.837,-0.824,-0.424
-347.000,-123.000,932.000,2.520,-0.700,-0.280
-349.179,-116.838,933.770,3.140,-0.573,-0.139
-347.223,-112.436,932.338,3.573,-0.544,-0.153
-347.188,-106.287,929.585,3.617,-0.630,-0.113
-345.893,-101.017,932.425,3.349,-0.795,-0.210
-344.847,-103.251,930.593,3.154,-0.982,-0.305
-344.923,-103.688,932.124,2.971,-1.156,-0.366
-345.074,-103.072,935.985,2.948,-1.266,-0.423
-345.979,-104.045,933.085,3.134,-1.327,-0.485
-346.588,-101.779,935.987,3.285,-1.334,-0.502
-347.713,-98.389,936.569,3.162,-1.356,-0.499
-344.720,-94.574,933.390,2.704,-1.483,-0.678
-344.701,-92.588,936.402,2.266,-1.586,-0.645
-345.860,-95.199,934.749,1.936,-1.715,-0.553
-345.105,-99.611,933.198,1.729,-1.653,-0.552
-347.000,-102.000,935.000,1.610,-1.540,-0.490
-347.656,-102.883,933.999,1.526,-1.612,-0.554
-351.693,-103.128,935.430,1.779,-1.505,-0.549
-354.328,-103.449,936.025,2.039,-1.463,-0.652
-356.265,-107.433,936.053,1.944,-1.426,-0.664
-355.514,-108.672,937.127,1.745,-1.287,-0.537
-346.975,-106.858,936.787,1.572,-1.253,-0.662
-342.948,-109.281,935.920,1.383,-1.186,-0.618
-343.848,-112.721,934.184,1.192,-1.188,-0.495
-346.466,-117.053,932.113,1.503,-1.151,-0.434
-347.285,-118.936,932.931,2.417,-0.983,-0.438
-346.962,-115.736,934.144,3.378,-0.812,-0.566
-348.954,-111.969,931.609,4.217,-0.780,-0.516
-350.137,-99.893,934.964,4.711,-0.866,-0.509
-348.434,-81.735,941.627,4.439,-0.917,-0.555
-343.000,-78.000,941.000,3.010,-0.980,-0.420
-340.805,-85.000,938.256,0.971,-1.042,-0.295
-343.124,-91.881,937.145,-0.317,-1.099,-0.180
-345.554,-103.721,936.393,-0.574,-1.166,-0.078
-345.261,-112.829,934.890,-0.035,-1.188,-0.078
-343.843,-116.115,933.180,1.122,-1.048,-0.047
-348.517,-117.863,931.781,2.480,-0.884,0.002
-353.086,-110.025,934.418,3.557,-0.839,-0.080
-349.535,-96.838,939.766,3.739,-0.838,-0.203
-342.874,-88.512,940.858,2.998,-0.850,-0.266
-341.876,-82.233,941.753,1.621,-0.784,-0.336
-344.716,-82.972,940.831,-0.034,-0.778,-0.309
-346.919,-95.337,939.517,-1.202,-0.724,-0.119
-347.747,-103.005,937.965,-1.293,-0.601,-0.094
-343.083,-100.179,933.515,-0.197,-0.551,-0.224
-340.000,-93.000,934.000,1.190,-0.490,-0.210
-341.049,-86.456,934.982,1.696,-0.602,-0.146
-339.447,-86.234,936.123,1.315,-0.747,-0.130
-339.496,-89.143,938.409,0.676,-0.816,-0.207
-342.940,-93.720,938.973,0.195,-0.831,-0.365
-345.837,-101.644,938.295,0.083,-0.723,-0.419
-347.253,-113.587,936.958,0.491,-0.591,-0.322
-347.963,-115.523,940.334,1.334,-0.328,-0.285
-343.623,-107.303,941.210,2.253,-0.147,-0.414
-336.454,-109.607,939.460,2.705,0.002,-0.333
-337.916,-112.487,943.018,2.808,0.328,-0.203
-337.719,-106.893,943.026,3.319,0.500,-0.516
-333.883,-100.112,941.859,3.983,0.651,-0.771
-339.363,-98.028,944.910,4.239,0.925,-0.769
-344.355,-97.385,944.552,4.381,1.150,-0.860
-346.000,-86.000,941.000,4.900,1.330,-0.910
-348.791,-70.675,944.575,5.126,1.561,-0.632
-347.596,-65.227,953.699,3.894,1.920,-0.168
-340.996,-69.987,953.476,1.891,2.244,0.033
-336.512,-76.135,948.187,0.216,2.564,0.162
-342.023,-82.659,946.534,-0.766,2.946,0.485
-349.133,-87.722,945.538,-0.995,3.304,0.740
-351.074,-90.332,940.365,-1.055,3.664,0.765
-353.582,-97.387,929.822,-0.997,3.847,0.698
-362.373,-103.919,921.852,-0.666,3.812,0.851
-370.283,-106.963,920.154,-0.117,3.583,1.044
-361.207,-100.729,922.888,0.476,3.159,1.006
-348.485,-92.609,925.760,0.445,2.773,0.997
-351.216,-99.037,925.931,-0.114,2.401,1.054
-358.823,-105.330,927.313,-0.521,2.055,0.859
-359.000,-104.000,928.000,-0.280,1.820,0.490
-354.421,-99.847,926.247,0.566,1.580,0.345
-355.166,-94.868,924.239,1.266,1.296,0.412
-362.674,-92.618,918.571,1.609,0.909,0.385
-371.157,-87.514,914.615,1.669,0.447,0.336
-371.550,-78.243,919.434,1.419,-0.067,0.347
-361.300,-70.892,924.592,1.005,-0.610,0.256
-354.982,-72.444,923.847,0.283,-1.086,0.207
-361.221,-78.676,922.937,-0.576,-1.574,0.026
-369.435,-80.807,924.639,-0.985,-1.964,-0.307
-367.818,-81.035,924.605,-0.739,-2.252,-0.401
-364.732,-76.349,923.065,-0.355,-2.586,-0.471
-367.339,-71.748,925.067,-0.474,-2.832,-0.465
-367.854,-73.763,925.639,-0.917,-3.107,-0.424
-369.541,-72.441,925.244,-1.509,-3.396,-0.501
-372.000,-70.000,929.000,-2.380,-3.570,-0.560
-367.214,-73.208,931.659,-3.347,-3.756,-0.683
-359.635,-78.479,934.310,-4.346,-3.844,-0.786
-356.117,-82.789,934.765,-5.010,-3.879,-1.045
-355.768,-84.690,932.985,-4.885,-3.965,-1.277
-354.379,-85.041,932.505,-4.483,-3.999,-1.237
-355.707,-84.981,928.898,-4.325,-4.095,-1.277
-359.185,-86.236,927.121,-4.346,-4.284,-1.250
-359.192,-92.314,930.733,-4.528,-4.404,-1.065
-354.547,-102.531,932.726,-4.887,-4.467,-0.918
-348.677,-111.922,934.564,-5.104,-4.497,-1.005
-348.446,-114.641,937.419,-4.754,-4.418,-1.331
-348.595,-110.830,937.694,-4.143,-4.263,-1.529
-348.152,-107.113,938.286,-3.899,-4.068,-1.529
-348.902,-106.029,939.016,-4.008,-3.897,-1.455
-346.000,-108.000,939.000,-3.920,-3.710,-1.330
-344.903,-109.216,939.931,-3.444,-3.406,-1.153
-344.660,-106.780,938.889,-2.968,-3.180,-0.913
-342.374,-104.421,936.026,-2.782,-3.135,-0.724
-341.983,-100.798,936.842,-3.148,-3.183,-0.721
-341.353,-98.990,939.873,-3.982,-3.232,-0.799
-336.392,-103.432,941.122,-4.787,-3.210,-0.848
-329.664,-110.552,942.106,-5.265,-3.142,-0.836
-329.780,-116.659,943.826,-4.962,-2.960,-0.772
-330.675,-119.636,946.517,-3.873,-2.662,-0.777
-327.575,-120.481,946.273,-2.530,-2.330,-0.656
-331.542,-117.539,942.806,-1.356,-1.870,-0.425
-338.599,-110.653,943.832,-0.835,-1.434,-0.286
-337.960,-106.276,944.949,-0.896,-1.195,-0.070
-333.336,-107.381,945.137,-1.266,-0.939,-0.012
-330.000,-110.000,945.000,-1.820,-0.770,-0.140
-327.317,-114.843,942.236,-2.101,-0.662,-0.148
-326.528,-122.449,941.952,-1.901,-0.414,-0.088
-328.731,-125.202,941.307,-1.243,-0.262,-0.054
-330.944,-124.245,940.179,-0.108,-0.120,-0.091
-332.870,-119.390,937.847,1.163,0.061,-0.036
-337.073,-111.351,938.688,1.931,0.158,-0.009
-340.083,-106.677,940.950,2.019,0.212,-0.073
-339.984,-100.567,938.143,1.715,0.210,-0.070
-341.476,-95.237,938.704,1.144,0.217,-0.074
-342.508,-96.222,937.851,0.379,0.131,-0.053
-340.607,-96.832,936.341,-0.369,-0.017,-0.161
-339.966,-92.785,936.630,-0.737,-0.102,-0.379
-341.764,-91.472,934.248,-0.775,-0.154,-0.516
-345.725,-96.892,934.045,-0.852,-0.227,-0.474
-351.000,-99.000,933.000,-0.770,-0.350,-0.420
-356.489,-96.471,933.568,-0.453,-0.358,-0.489
-355.402,-92.604,935.799,-0.488,-0.336,-0.434
-347.015,-88.114,936.525,-1.144,-0.395,-0.451
-344.762,-89.838,939.434,-2.242,-0.445,-0.518
-344.147,-94.642,939.222,-3.444,-0.522,-0.613
-341.868,-97.646,937.776,-4.175,-0.557,-0.691
-345.402,-101.351,936.886,-4.502,-0.483,-0.472
-349.752,-107.402,935.121,-4.750,-0.423,-0.412
-352.531,-116.036,933.475,-4.694,-0.372,-0.492
-353.355,-123.278,931.283,-4.210,-0.255,-0.473
-352.149,-125.825,930.421,-3.369,-0.158,-0.557
-352.065,-120.544,929.094,-2.486,-0.147,-0.683
-351.533,-113.622,929.430,-2.038,-0.257,-0.669
-348.466,-115.751,931.073,-2.421,-0.451,-0.458
-346.000,-120.000,930.000,-3.220,-0.630,-0.420
-344.349,-125.600,930.679,-3.411,-0.757,-0.549
-342.250,-135.064,932.039,-2.740,-0.825,-0.602
-341.978,-137.779,931.578,-1.368,-0.855,-0.722
-341.680,-132.371,932.582,0.160,-0.803,-0.784
-342.716,-123.222,934.656,1.126,-0.766,-0.766
-345.578,-114.121,936.104,1.413,-0.764,-0.763
-347.068,-108.780,936.034,1.154,-0.694,-0.612
-347.086,-108.839,937.845,0.540,-0.634,-0.365
-345.394,-110.765,937.679,0.047,-0.573,-0.274
-343.706,-111.640,934.885,0.011,-0.549,-0.325
-341.828,-111.681,935.562,0.182,-0.571,-0.390
-343.070,-108.113,935.438,0.357,-0.546,-0.422
-345.288,-107.310,934.996,0.421,-0.582,-0.293
-345.038,-107.821,936.289,0.327,-0.629,-0.122
-346.000,-106.000,938.000,0.070,-0.560,-0.070
-342.754,-107.575,935.661,-0.305,-0.605,-0.013
-340.721,-109.749,933.335,-0.511,-0.754,0.059
-346.806,-109.369,935.474,-0.732,-0.761,0.072
-352.257,-106.230,932.480,-1.185,-0.838,0.088
-352.424,-107.065,931.130,-1.935,-1.080,0.167
-349.091,-110.654,931.518,-2.748,-1.307,0.111
-345.814,-113.234,927.836,-3.089,-1.483,-0.005
-344.931,-114.274,929.691,-3.086,-1.664,-0.062
-346.687,-106.936,932.101,-2.968,-1.902,-0.196
-346.502,-101.444,930.485,-2.933,-2.147,-0.142
-346.471,-99.882,929.740,-3.252,-2.391,0.006
-351.381,-96.484,931.894,-3.916,-2.627,-0.035
-352.767,-96.382,931.187,-4.858,-2.888,-0.072
-352.067,-98.296,928.819,-5.802,-3.195,-0.072
-353.000,-101.000,928.000,-6.580,-3.430,-0.070
-353.004,-108.345,926.790,-7.373,-3.609,0.044
-351.650,-118.922,929.972,-8.000,-3.839,0.159
-344.040,-122.357,931.623,-8.286,-4.095,-0.033
-336.456,-121.965,932.851,-8.315,-4.308,-0.395
-332.505,-123.900,935.961,-8.260,-4.453,-0.481
-329.672,-128.551,938.560,-8.445,-4.475,-0.421
-332.410,-137.696,939.994,-8.210,-4.400,-0.575
-337.720,-143.742,939.043,-7.228,-4.157,-0.635
-339.140,-145.991,939.035,-5.992,-3.789,-0.604
-338.687,-142.661,938.889,-4.579,-3.446,-0.751
-339.117,-132.265,942.966,-3.687,-3.016,-0.711
-335.624,-126.409,947.183,-3.625,-2.653,-0.579
-328.876,-127.871,948.183,-4.114,-2.347,-0.424
-323.358,-131.659,947.674,-4.677,-1.973,-0.180
-322.000,-137.000,945.000,-4.620,-1.610,-0.070
-322.975,-143.940,945.880,-4.088,-1.186,0.111
-323.321,-149.850,943.777,-3.400,-0.800,0.180
-326.397,-151.847,937.798,-2.437,-0.507,0.031
-329.436,-148.856,934.334,-1.035,-0.371,0.017
-334.086,-144.220,934.113,0.018,-0.330,0.102
-336.820,-138.346,935.003,0.190,-0.276,0.143
-331.516,-131.714,935.099,-0.184,-0.360,0.141
-328.026,-134.413,937.800,-0.804,-0.422,0.204
-329.369,-140.720,938.950,-0.961,-0.361,0.227
-331.734,-138.776,939.477,-0.619,-0.345,0.120
-331.302,-134.134,939.603,-0.038,-0.333,-0.009
-331.470,-127.347,938.416,0.430,-0.218,-0.090
-333.329,-120.656,939.352,0.229,-0.118,0.087
-332.940,-122.817,940.014,-0.201,-0.059,0.382
-334.000,-128.000,939.000,-0.630,0.000,0.420
-335.774,-131.379,936.328,-1.026,-0.003,0.410
-336.898,-136.316,934.672,-0.943,0.052,0.478
-337.071,-141.009,931.331,-0.633,0.055,0.522
-340.206,-141.880,929.500,-0.510,-0.075,0.593
-343.457,-140.816,931.661,-0.332,-0.167,0.503
-339.818,-144.177,931.785,-0.086,-0.221,0.422
-336.961,-148.121,930.930,0.246,-0.288,0.493
-337.890,-147.163,930.005,0.860,-0.413,0.428
-338.954,-145.374,931.464,1.431,-0.430,0.359
-338.359,-143.193,932.261,1.908,-0.437,0.299
-337.753,-140.080,931.782,2.372,-0.584,0.319
-337.659,-138.661,933.524,2.585,-0.647,0.495
-335.110,-139.190,932.359,2.719,-0.740,0.449
-335.499,-138.828,932.082,3.078,-0.851,0.344
-341.000,-137.000,931.000,3.570,-0.910,0.350
-344.114,-133.597,931.296,4.070,-0.978,0.401
-341.207,-130.958,936.263,4.249,-0.936,0.537
-338.647,-131.795,937.143,4.039,-0.838,0.561
-339.383,-131.541,939.274,4.029,-0.668,0.590
-338.323,-130.719,939.133,4.202,-0.507,0.628
-338.247,-127.881,938.095,4.496,-0.391,0.537
-340.154,-121.556,938.959,4.763,-0.273,0.489
-341.916,-118.119,937.129,4.450,-0.213,0.487
-341.482,-117.119,935.578,3.990,-0.201,0.593
-340.205,-116.564,932.839,3.761,-0.259,0.707
-342.705,-114.069,934.460,3.685,-0.308,0.654
-341.641,-110.758,936.096,3.717,-0.406,0.634
-338.098,-111.819,938.056,3.429,-0.516,0.607
-335.525,-115.586,941.040,2.864,-0.566,0.470
-334.000,-119.000,938.000,2.730,-0.560,0.420
-340.632,-121.095,937.008,3.195,-0.495,0.426
-346.770,-116.379,935.626,3.752,-0.488,0.333
-345.841,-104.387,934.861,3.821,-0.511,0.142
-344.043,-97.528,936.534,3.060,-0.654,0.042
-342.250,-99.485,934.678,1.832,-0.835,0.087
-342.371,-105.400,931.326,0.886,-1.031,0.063
-345.163,-109.126,932.309,0.549,-1.197,0.153
-344.256,-109.947,935.141,0.373,-1.312,0.220
-341.896,-109.037,929.950,-0.026,-1.663,-0.017
-342.656,-103.715,930.433,-0.629,-1.955,-0.143
-338.587,-105.762,934.838,-1.682,-2.172,-0.151
-332.719,-115.687,932.560,-2.729,-2.406,-0.294
-332.529,-124.755,933.722,-2.989,-2.577,-0.452
-336.795,-132.932,935.077,-2.382,-2.743,-0.403
-340.000,-132.000,937.000,-1.330,-2.660,-0.420
-336.085,-119.362,940.632,-0.444,-2.588,-0.623
-328.762,-107.071,942.353,-0.166,-2.562,-0.460
-325.585,-108.719,944.760,-0.894,-2.417,-0.165
-329.281,-113.871,946.025,-2.133,-2.359,-0.204
-328.805,-112.186,943.701,-2.994,-2.259,-0.441
-327.509,-113.548,941.655,-3.323,-2.155,-0.452
-334.582,-112.755,940.963,-3.283,-2.091,-0.112
-338.017,-112.542,940.125,-3.282,-1.907,0.129
-337.757,-123.075,937.613,-3.332,-1.717,0.256
-338.949,-133.648,936.231,-2.880,-1.545,0.280
-337.710,-137.274,937.586,-1.817,-1.370,0.007
-334.787,-130.138,935.619,-0.731,-1.326,-0.373
-335.586,-117.923,937.173,-0.198,-1.327,-0.482
-335.705,-116.352,939.936,-0.529,-1.336,-0.324
-334.000,-117.000,937.000,-1.540,-1.400,-0.210
-336.020,-116.340,940.069,-2.433,-1.406,-0.087
-331.104,-124.554,943.094,-2.713,-1.352,-0.049
-322.502,-135.052,937.343,-2.280,-1.259,-0.118
-324.670,-142.163,933.768,-1.103,-1.090,-0.184
-335.377,-139.069,936.006,0.458,-0.934,-0.338
-340.984,-125.848,938.333,1.573,-0.913,-0.324
-333.238,-116.545,940.218,1.565,-0.909,-0.204
-328.000,-113.077,943.755,0.462,-0.909,-0.146
-328.432,-115.929,945.244,-0.979,-0.867,-0.073
-325.500,-127.754,942.536,-1.933,-0.767,-0.084
-325.960,-139.147,938.046,-2.091,-0.814,-0.011
-329.580,-140.119,933.711,-1.219,-0.849,-0.068
-333.303,-135.542,928.482,0.220,-0.967,-0.226
-338.851,-129.886,930.020,1.134,-1.133,-0.033
-341.000,-121.000,939.000,1.260,-1.120,-0.000
-335.152,-115.495,941.972,0.966,-1.122,-0.128
-330.555,-111.082,943.103,0.579,-1.070,-0.235
-333.383,-105.252,945.487,-0.120,-1.042,-0.277
-332.394,-106.524,945.375,-1.302,-1.033,0.075
-329.604,-107.807,942.482,-2.422,-0.947,0.220
-332.720,-107.474,941.155,-3.259,-0.901,0.339
-331.756,-115.910,943.007,-3.967,-0.833,0.563
-330.823,-126.435,939.370,-4.278,-0.712,0.369
-333.058,-132.403,937.654,-3.783,-0.531,0.269
-331.824,-140.562,936.948,-2.719,-0.387,0.272
-333.616,-142.052,931.991,-1.429,-0.298,0.036
-334.641,-129.236,935.401,-0.375,-0.306,-0.252
-330.556,-120.562,937.728,-0.430,-0.483,-0.254
-327.854,-120.205,935.953,-1.348,-0.651,-0.315
-329.000,-125.000,937.000,-2.240,-0.770,-0.560
-328.718,-131.824,937.591,-2.490,-0.893,-0.443
-321.448,-128.013,941.848,-2.037,-0.974,-0.482
-315.813,-124.471,942.933,-1.686,-0.955,-0.666
-317.894,-128.728,940.920,-1.505,-0.827,-0.527
-325.095,-134.125,940.645,-1.181,-0.616,-0.372
-332.193,-138.534,938.220,-0.489,-0.468,-0.250
-334.032,-135.553,935.942,0.561,-0.417,-0.133
-334.907,-131.105,937.682,0.928,-0.357,-0.072
-334.694,-132.198,942.261,0.377,-0.195,-0.062
-330.487,-136.699,942.935,-0.216,0.027,-0.147
-327.985,-142.289,939.547,-0.090,0.098,-0.289
-330.794,-144.311,936.760,0.849,0.216,-0.218
-337.308,-141.542,935.707,1.903,0.396,-0.142
-344.955,-132.206,934.895,2.501,0.509,-0.214
-346.000,-123.000,935.000,2.450,0.630,-0.070
-341.523,-124.391,933.603,1.972,0.582,0.184
-339.396,-125.241,930.015,1.465,0.413,0.241
-338.086,-122.454,931.491,1.104,0.183,0.114
-338.300,-131.280,929.880,1.110,-0.038,0.044
-339.391,-139.320,926.302,1.546,-0.208,-0.048
-341.592,-132.846,929.881,2.402,-0.381,-0.153
-343.033,-125.590,931.039,3.344,-0.420,-0.136
-344.705,-120.394,934.557,3.521,-0.481,-0.076
-347.516,-117.644,938.123,3.150,-0.563,-0.009
-341.675,-120.316,936.802,2.930,-0.511,0.039
-337.338,-120.655,937.190,2.762,-0.482,0.102
-337.948,-119.914,936.163,2.561,-0.493,0.016
-335.027,-121.760,935.940,2.304,-0.494,0.029
-335.380,-124.291,933.351,2.259,-0.583,0.054
-338.000,-123.000,931.000,2.450,-0.770,-0.140
-338.292,-115.357,933.609,2.415,-0.951,-0.204
-334.567,-108.559,935.392,2.059,-1.177,-0.275
-330.739,-109.694,937.661,1.460,-1.417,-0.182
-332.323,-113.566,939.839,0.946,-1.479,0.016
-334.497,-109.206,941.230,0.711,-1.486,-0.058
-335.190,-99.792,940.741,0.575,-1.663,-0.253
-337.181,-91.515,942.296,-0.242,-1.824,-0.352
-337.270,-90.608,945.034,-1.842,-1.758,-0.350
-331.424,-98.132,943.731,-3.074,-1.692,-0.278
-327.630,-106.563,946.411,-3.954,-1.569,0.161
-329.377,-119.272,944.499,-4.292,-1.306,0.522
-332.642,-127.024,941.628,-3.774,-1.085,0.591
-337.257,-127.143,946.252,-3.468,-0.700,0.749
-336.230,-130.661,944.140,-3.506,-0.305,0.756
-330.000,-134.000,938.000,-3.500,-0.140,0.630
-331.944,-136.921,931.953,-3.340,-0.178,0.505
-337.658,-132.950,926.338,-2.963,-0.498,0.442
-336.770,-123.710,922.712,-2.822,-0.950,0.311
-335.224,-118.612,925.262,-3.217,-1.491,0.123
-330.099,-114.823,932.162,-3.895,-2.000,0.018
-323.047,-117.259,934.073,-4.220,-2.394,-0.290
-326.590,-123.363,935.088,-3.952,-2.675,-0.413
-333.640,-125.108,935.019,-3.221,-2.795,-0.283
-336.599,-120.732,937.050,-2.324,-2.812,-0.337
-338.161,-113.881,938.481,-1.955,-2.745,-0.320
-340.890,-114.503,934.444,-2.381,-2.713,-0.214
-343.703,-121.760,939.200,-3.347,-2.575,-0.059
-338.350,-130.515,943.023,-4.049,-2.414,-0.041
-330.122,-133.992,942.287,-3.942,-2.277,-0.410
-327.000,-134.000,948.000,-3.710,-1.960,-0.490
-321.008,-142.506,951.057,-3.612,-1.607,-0.172
-318.066,-146.216,949.133,-3.078,-1.080,-0.157
-321.481,-136.575,945.341,-2.121,-0.644,-0.269
-321.354,-131.655,945.686,-1.517,-0.483,-0.068
-321.147,-131.666,946.639,-1.676,-0.250,0.092
-322.359,-128.247,944.633,-2.251,-0.021,-0.034
-326.457,-131.759,945.041,-2.914,0.233,0.018
-330.926,-144.270,943.287,-3.163,0.539,0.331
-329.502,-145.189,940.146,-2.689,0.745,0.384
-327.799,-134.637,941.391,-2.013,0.816,0.261
-324.442,-130.346,944.157,-2.001,0.909,0.374
-320.583,-129.920,939.945,-2.784,1.011,0.383
-322.077,-134.268,935.173,-3.293,0.953,0.272
-327.965,-144.481,934.816,-3.081,0.906,0.452
-332.000,-149.000,931.000,-2.310,0.840,0.420
-334.375,-144.979,930.472,-1.142,0.772,0.213
-337.508,-139.180,933.706,-0.381,0.740,0.277
-333.174,-136.121,933.593,-0.211,0.566,0.194
-330.386,-133.851,934.819,-0.493,0.446,0.155
-330.698,-135.093,935.794,-1.031,0.390,0.199
-330.449,-138.519,934.939,-1.187,0.243,0.039
-335.271,-137.827,937.215,-1.115,0.135,0.076
-332.540,-135.207,936.394,-0.937,0.076,-0.047
-328.457,-133.085,930.738,-0.509,-0.039,-0.234
-332.944,-134.175,929.167,-0.194,-0.161,-0.067
-337.870,-134.664,927.504,0.235,-0.331,-0.234
-343.554,-128.594,927.502,0.772,-0.631,-0.517
-344.241,-124.873,930.824,0.791,-0.798,-0.573
-340.765,-130.054,932.219,0.611,-0.848,-0.637
-343.000,-135.000,935.000,0.560,-0.840,-0.630
-341.969,-137.635,937.719,0.760,-0.659,-0.631
-334.695,-137.634,938.926,1.459,-0.518,-0.584
-331.101,-130.686,938.651,1.969,-0.436,-0.542
-331.447,-127.170,939.516,1.760,-0.424,-0.578
-334.121,-131.078,938.965,0.996,-0.396,-0.532
-336.387,-139.098,933.587,0.328,-0.353,-0.488
-339.346,-147.532,929.876,0.537,-0.423,-0.487
-343.808,-151.907,929.894,1.393,-0.359,-0.363
-343.116,-148.357,932.798,2.355,-0.286,-0.269
-335.898,-137.366,938.284,2.710,-0.237,-0.344
-326.401,-135.453,939.898,2.248,-0.214,-0.312
-326.993,-139.502,935.963,1.782,-0.337,-0.279
-335.148,-139.964,936.826,1.567,-0.342,-0.263
-335.454,-138.451,936.219,1.643,-0.456,-0.211
-332.000,-132.000,928.000,1.890,-0.700,-0.280
-337.381,-127.309,926.457,1.912,-0.819,-0.173
-345.951,-126.049,930.661,1.662,-0.996,-0.008
-340.697,-127.127,934.947,1.275,-1.116,-0.032
-332.708,-131.762,938.100,1.241,-1.103,-0.129
-334.075,-136.561,939.596,1.687,-0.992,-0.251
-336.447,-136.038,942.319,2.545,-0.795,-0.282
-339.257,-125.979,939.664,3.477,-0.616,-0.360
-341.880,-112.825,937.903,3.414,-0.430,-0.427
-342.893,-106.806,938.484,2.440,-0.404,-0.162
-342.654,-110.527,935.893,1.205,-0.442,0.168
-339.581,-117.208,936.740,-0.037,-0.389,0.184
-331.935,-127.035,936.012,-0.688,-0.485,0.131
-326.118,-135.833,936.931,-0.623,-0.562,0.120
-328.583,-137.053,940.058,-0.105,-0.474,-0.117
-330.000,-140.000,936.000,0.770,-0.420,-0.350
-331.368,-140.865,933.827,1.856,-0.420,-0.413
-335.433,-131.015,934.921,2.912,-0.418,-0.472
-335.992,-119.246,935.168,3.372,-0.447,-0.508
-336.068,-114.268,936.500,2.763,-0.557,-0.420
-335.630,-116.797,937.239,1.559,-0.665,-0.187
-334.680,-125.218,941.100,0.585,-0.700,-0.058
-330.488,-134.712,944.032,0.129,-0.619,-0.074
-323.424,-144.279,942.229,0.494,-0.436,-0.195
-320.701,-150.775,938.870,1.639,-0.198,-0.391
-324.731,-148.852,934.983,3.132,-0.006,-0.472
-332.865,-142.938,932.510,4.831,-0.066,-0.494
-334.822,-129.683,931.581,6.009,-0.186,-0.298
-334.102,-113.961,932.207,5.934,-0.362,-0.118
-336.459,-108.899,933.261,4.819,-0.761,-0.135
-340.000,-111.000,937.000,3.150,-0.980,-0.000
-341.465,-115.291,940.775,1.639,-1.035,-0.098
-335.873,-119.718,941.559,0.938,-1.123,-0.288
-331.806,-123.123,942.956,1.134,-1.022,-0.218
-333.158,-120.182,941.099,1.985,-0.781,-0.245
-338.309,-109.464,935.739,2.882,-0.701,-0.276
-344.063,-100.584,932.669,3.029,-0.786,-0.176
-347.173,-100.315,934.202,2.385,-0.767,0.013
-347.219,-107.379,935.088,1.526,-0.828,0.013
-343.551,-114.022,935.102,1.066,-0.925,-0.183
-342.016,-116.815,940.275,1.138,-0.806,-0.249
-337.386,-116.304,942.221,1.215,-0.746,-0.364
-332.109,-113.354,942.159,1.143,-0.617,-0.427
-330.397,-108.278,944.735,0.848,-0.460,-0.435
-327.649,-104.897,946.090,0.150,-0.405,-0.487
-327.000,-108.000,945.000,-0.770,-0.210,-0.350
-326.890,-113.882,941.471,-1.380,-0.077,-0.336
-329.420,-122.849,938.813,-1.124,-0.026,-0.343
-335.106,-131.124,936.451,-0.365,0.076,-0.087
-340.326,-130.529,938.448,0.414,0.237,0.009
-337.598,-124.221,939.781,1.034,0.398,-0.132
-329.363,-116.164,940.665,1.052,0.417,-0.214
-325.829,-112.016,945.246,0.351,0.421,-0.130
-323.190,-117.335,945.121,-0.507,0.420,-0.007
-321.469,-125.566,944.317,-0.963,0.467,0.057
-318.126,-130.183,939.972,-0.703,0.522,0.117
-318.155,-131.059,932.790,0.426,0.404,0.192
-328.136,-128.740,932.459,1.581,0.330,0.393
-335.342,-128.381,934.309,2.035,0.232,0.600
-337.250,-131.587,933.760,2.105,0.048,0.539
-340.000,-136.000,932.000,2.240,-0.000,0.490
-344.403,-139.246,932.702,2.815,-0.002,0.565
-346.332,-132.115,933.992,3.608,0.049,0.417
-344.902,-119.451,933.679,3.889,0.060,0.294
-345.853,-114.014,934.068,3.285,-0.082,0.460
-347.062,-112.696,933.053,2.286,-0.157,0.593
-345.551,-114.910,928.796,1.663,-0.239,0.642
-345.078,-118.026,926.038,1.705,-0.440,0.705
-346.897,-113.613,929.661,2.200,-0.746,0.766
-345.970,-105.489,931.985,2.569,-1.006,0.781
-341.100,-101.456,932.207,2.442,-1.219,0.746
-340.279,-105.387,933.682,1.792,-1.488,0.858
-342.856,-113.741,933.875,1.184,-1.530,0.875
-341.084,-117.308,935.664,1.310,-1.577,0.615
-340.130,-115.647,937.084,1.920,-1.683,0.484
-341.000,-114.000,937.000,2.520,-1.610,0.420
-340.786,-113.155,936.086,3.015,-1.610,0.288
-342.890,-111.726,937.066,3.358,-1.525,0.322
-340.537,-108.468,938.851,3.565,-1.389,0.370
-336.148,-102.522,935.912,3.663,-1.462,0.332
-338.103,-97.658,937.528,3.258,-1.566,0.370
-336.908,-98.850,942.647,2.274,-1.518,0.319
-330.679,-105.659,940.677,1.427,-1.472,0.126
-332.489,-113.616,937.144,1.305,-1.538,0.006
-338.497,-113.518,937.323,1.951,-1.490,-0.103
-337.989,-104.925,940.372,2.892,-1.453,-0.256
-335.680,-94.278,939.871,3.265,-1.502,-0.256
-334.225,-82.782,939.159,2.555,-1.605,-0.190
-332.422,-75.549,943.265,1.131,-1.809,-0.221
-330.768,-76.906,945.078,-0.541,-1.896,-0.204
-330.000,-89.000,945.000,-2.030,-1.960,-0.210
-331.512,-101.976,941.749,-2.655,-2.027,-0.215
-335.621,-103.420,938.578,-2.397,-2.031,-0.235
-338.825,-97.037,941.365,-1.943,-2.002,-0.397
-338.690,-88.680,943.259,-2.051,-1.912,-0.371
-339.070,-85.565,942.846,-2.930,-1.883,-0.233
-335.587,-86.336,946.034,-4.250,-1.788,-0.101
-328.505,-91.704,950.198,-5.705,-1.674,0.081
-322.482,-102.288,950.146,-6.681,-1.557,0.141
-317.901,-109.507,948.297,-6.834,-1.305,0.093
-321.645,-116.530,946.342,-6.543,-1.169,-0.026
-326.026,-121.278,941.277,-6.008,-1.000,-0.137
-328.389,-122.220,935.382,-5.203,-0.902,-0.272
-333.359,-121.412,934.369,-4.404,-1.001,-0.234
-333.586,-117.138,940.257,-4.043,-0.879,-0.056
-327.000,-111.000,948.000,-4.270,-0.770,-0.140
-316.120,-113.084,949.359,-4.932,-0.725,-0.160
-316.025,-129.601,946.532,-5.410,-0.498,-0.052
-326.060,-137.128,945.634,-4.982,-0.258,-0.223
-330.513,-131.424,945.528,-3.778,0.020,-0.438
-333.003,-125.789,942.022,-2.644,0.317,-0.372
-335.612,-119.965,936.893,-2.304,0.531,-0.254
-340.493,-121.440,933.838,-2.462,0.633,-0.048
-344.964,-128.505,932.100,-2.521,0.631,0.201
-342.201,-132.793,931.753,-2.437,0.633,0.219
-336.465,-132.157,933.058,-2.041,0.590,0.177
-330.067,-134.046,935.612,-1.493,0.536,0.054
-327.288,-141.097,939.628,-1.049,0.612,-0.016
-326.640,-140.741,940.856,-0.253,0.730,-0.133
-326.181,-133.968,939.891,0.959,0.775,-0.373
-330.000,-129.000,938.000,1.960,0.840,-0.280
-335.125,-124.858,931.107,2.424,0.859,0.023
-341.809,-118.556,927.286,2.367,0.640,0.331
-346.803,-116.296,930.707,1.806,0.428,0.575
-342.015,-120.953,931.523,1.119,0.213,0.648
-332.994,-128.277,931.375,0.745,-0.115,0.612
-332.775,-139.510,936.040,0.846,-0.211,0.530
-336.084,-142.719,936.880,1.627,-0.211,0.253
-335.078,-135.564,935.970,3.031,-0.151,0.004
-336.133,-128.826,935.019,4.442,-0.059,0.057
-340.800,-119.573,929.701,5.218,-0.165,0.063
-345.582,-111.669,930.283,5.298,-0.269,0.140
-344.488,-107.077,934.163,4.842,-0.444,0.228
-339.705,-106.699,933.378,4.125,-0.592,0.215
-339.326,-111.647,933.347,3.668,-0.731,0.287
-343.000,-111.000,939.000,3.570,-0.910,0.210
-343.491,-106.502,944.688,3.522,-0.856,0.085
-339.684,-103.866,944.028,3.302,-0.787,-0.027
-338.723,-100.329,939.607,3.099,-0.716,-0.139
-339.523,-94.880,933.667,3.066,-0.742,-0.095
-344.515,-91.343,931.774,2.761,-0.893,0.072
-349.407,-95.634,931.677,1.949,-1.018,0.242
-346.673,-103.534,931.166,0.985,-1.282,0.275
-342.396,-107.864,936.521,0.498,-1.465,0.091
-336.219,-108.727,941.178,0.547,-1.478,-0.170
-333.935,-110.887,945.167,0.493,-1.398,-0.298
-336.388,-112.689,948.151,0.338,-1.190,-0.469
-334.369,-110.770,947.069,0.438,-0.916,-0.587
-331.466,-106.003,945.271,0.845,-0.607,-0.545
-332.217,-96.538,942.690,1.122,-0.400,-0.466
-332.000,-93.000,942.000,0.700,-0.350,-0.140
-330.809,-97.467,939.562,-0.085,-0.349,0.131
-332.906,-100.283,937.507,-0.899,-0.389,0.093
-330.805,-109.455,939.811,-1.414,-0.486,0.057
-328.363,-122.073,941.376,-1.201,-0.439,0.070
-330.997,-122.200,942.192,-0.576,-0.300,-0.088
-330.513,-112.710,943.144,0.168,-0.180,-0.314
-328.974,-104.395,944.087,0.646,-0.065,-0.269
-329.862,-96.452,944.153,0.465,-0.068,-0.147
-332.275,-96.391,940.192,-0.436,-0.068,-0.034
-335.582,-102.319,936.069,-1.425,-0.140,0.073
-338.697,-99.159,936.494,-1.717,-0.327,0.052
-337.633,-98.694,936.240,-2.016,-0.512,0.106
-332.520,-97.954,934.824,-2.659,-0.791,0.148
-332.520,-96.551,937.639,-3.419,-1.003,0.228
-338.000,-106.000,941.000,-4.200,-1.120,0.280
-342.518,-112.410,942.768,-4.422,-1.141,0.213
-344.753,-116.835,943.331,-4.278,-0.884,0.221
-344.612,-118.076,941.944,-3.909,-0.512,0.134
-343.350,-116.912,941.820,-3.323,-0.173,-0.010
-345.115,-119.781,939.505,-2.833,0.084,-0.239
-348.534,-113.588,936.530,-2.457,0.242,-0.339
-347.815,-104.666,935.982,-2.551,0.357,-0.119
-346.029,-107.362,935.948,-3.282,0.416,0.184
-345.581,-117.501,936.947,-4.389,0.478,0.471
-341.058,-127.674,935.717,-5.031,0.499,0.404
-337.367,-135.091,933.973,-4.569,0.483,0.360
-338.458,-137.193,933.619,-3.602,0.496,0.417
-335.581,-135.316,932.617,-2.668,0.487,0.212
-333.004,-133.867,931.866,-1.931,0.489,0.139
-335.000,-134.000,930.000,-1.330,0.420,0.070
-335.976,-135.777,928.089,-0.667,0.301,-0.000
-335.565,-135.358,928.473,0.050,0.097,-0.061
-332.720,-128.585,930.219,0.776,-0.224,-0.400
-329.251,-119.366,930.661,1.285,-0.491,-0.670
-330.104,-116.964,929.714,1.566,-0.854,-0.694
-336.418,-116.364,933.103,1.801,-1.175,-0.716
-336.638,-110.492,937.203,1.970,-1.342,-0.852
-331.215,-105.296,938.878,2.090,-1.466,-0.974
-331.462,-101.794,940.613,2.226,-1.467,-1.041
-333.788,-97.912,942.080,2.128,-1.518,-1.027
-336.958,-92.782,944.068,1.578,-1.524,-0.888
-337.817,-90.710,945.197,0.822,-1.417,-0.835
-336.593,-93.042,946.231,-0.218,-1.280,-0.823
-334.672,-100.765,944.318,-1.333,-1.094,-0.674
-336.000,-114.000,939.000,-1.820,-0.980,-0.630
-342.576,-117.480,939.454,-1.669,-0.862,-0.815
-340.124,-114.808,941.554,-1.232,-0.730,-0.863
-334.640,-115.802,938.231,-1.036,-0.650,-0.839
-333.693,-112.505,936.313,-1.303,-0.621,-1.011
-334.741,-109.457,937.354,-1.688,-0.645,-1.025
-337.168,-110.175,939.634,-2.158,-0.721,-0.984
-332.385,-112.431,942.054,-2.858,-0.769,-0.970
-326.111,-124.682,939.369,-3.417,-0.707,-0.720
-330.550,-139.412,936.578,-3.082,-0.600,-0.568
-340.530,-140.367,940.198,-2.047,-0.377,-0.522
-339.584,-133.657,943.039,-1.274,-0.155,-0.465
-331.529,-126.818,942.109,-1.124,0.009,-0.520
-330.611,-122.366,940.519,-1.480,0.189,-0.434
-336.079,-127.411,939.966,-2.042,0.297,-0.171
-343.000,-138.000,939.000,-2.310,0.490,-0.000
-344.425,-144.589,936.498,-1.771,0.740,0.117
-340.691,-144.304,931.917,-0.504,0.886,0.256
-341.450,-139.228,926.383,0.835,0.926,0.290
-349.772,-134.853,926.477,1.758,0.880,0.261
-352.768,-129.386,926.266,2.100,0.800,0.152
-349.339,-121.206,924.884,2.079,0.554,-0.046
-349.018,-115.658,926.152,1.866,0.183,-0.223
-348.090,-111.277,928.760,1.495,-0.119,-0.406
-348.541,-109.846,930.938,1.322,-0.372,-0.547
-349.133,-108.948,930.995,1.420,-0.527,-0.534
-345.049,-103.629,933.671,1.544,-0.621,-0.424
-342.005,-104.311,932.289,1.674,-0.781,-0.465
-342.325,-105.511,929.836,1.764,-0.974,-0.591
-344.346,-100.086,932.434,1.643,-1.233,-0.636
-345.000,-96.000,934.000,1.190,-1.470,-0.700
-340.080,-95.544,934.966,0.309,-1.648,-0.761
-334.483,-100.921,934.761,-0.846,-1.882,-0.856
-334.521,-106.671,936.223,-1.835,-2.133,-1.072
-334.601,-112.918,936.227,-2.176,-2.334,-1.297
-333.987,-122.343,934.437,-1.709,-2.380,-1.304
-335.191,-124.716,935.058,-0.943,-2.389,-1.274
-335.006,-121.786,933.866,-0.230,-2.455,-1.490
-337.619,-119.230,932.971,0.259,-2.515,-1.672
-341.832,-116.294,934.987,0.327,-2.581,-1.743
-339.012,-117.636,939.166,-0.022,-2.596,-1.721
-330.498,-124.593,939.485,-0.400,-2.568,-1.625
-325.568,-129.717,941.650,-0.169,-2.450,-1.600
-326.497,-131.543,945.325,0.249,-2.240,-1.499
-326.931,-134.520,942.614,0.637,-1.990,-1.384
-327.000,-137.000,944.000,1.260,-1.750,-1.190
-329.500,-138.627,943.678,1.812,-1.514,-0.875
-332.844,-141.403,939.426,2.349,-1.209,-0.762
-336.678,-141.359,939.246,2.876,-0.945,-0.810
-337.577,-134.588,940.550,3.266,-0.726,-0.859
-330.338,-125.895,942.822,3.346,-0.587,-0.803
-321.237,-119.644,945.617,3.172,-0.449,-0.664
-316.816,-113.550,948.119,2.832,-0.270,-0.474
-316.785,-109.207,947.215,2.218,-0.212,-0.291
-321.636,-107.788,945.087,1.666,-0.157,-0.125
-326.158,-111.175,944.184,1.088,-0.093,0.133
-328.319,-118.020,939.434,0.852,-0.025,0.270
-334.354,-117.454,935.628,1.323,-0.010,0.271
-342.017,-110.796,934.512,1.923,-0.102,0.162
-345.174,-102.501,932.879,2.251,-0.238,-0.029
-345.000,-91.000,934.000,1.820,-0.490,-0.210
-344.934,-80.399,934.935,0.917,-0.734,-0.289
-344.715,-72.063,936.644,-0.187,-1.015,-0.209
-341.019,-67.122,941.228,-1.759,-1.324,-0.267
-337.616,-68.390,943.627,-3.370,-1.436,-0.222
-338.468,-72.413,943.897,-4.954,-1.509,-0.136
-337.278,-74.316,943.820,-6.380,-1.634,-0.221
-333.839,-78.588,941.767,-7.426,-1.683,-0.131
-334.726,-89.116,938.253,-8.459,-1.804,-0.133
-339.610,-100.241,936.132,-9.450,-2.007,-0.122
-345.350,-114.330,935.034,-10.309,-2.030,0.149
-348.083,-131.238,930.945,-10.786,-2.089,0.177
-347.493,-145.166,928.172,-10.461,-2.195,0.001
-346.788,-159.347,929.375,-9.550,-2.029,0.016
-345.809,-168.791,930.168,-8.344,-1.877,-0.116
-344.000,-170.000,933.000,-7.140,-1.750,-0.490
-339.167,-170.135,935.785,-6.170,-1.445,-0.736
-330.071,-166.482,937.244,-5.040,-1.231,-0.985
-321.119,-157.341,939.437,-3.674,-1.076,-1.093
-318.651,-148.351,939.509,-2.722,-0.884,-0.980
-323.189,-142.165,938.263,-2.353,-0.842,-0.857
-329.319,-142.822,934.843,-2.089,-0.828,-0.646
-334.346,-147.208,929.688,-1.393,-0.769,-0.483
-337.834,-145.443,927.974,-0.109,-0.832,-0.484
-338.402,-139.094,929.422,1.213,-0.904,-0.601
-335.410,-136.306,931.476,2.204,-0.943,-0.686
-332.333,-134.329,932.059,2.963,-1.057,-0.752
-331.956,-127.229,934.079,3.525,-1.170,-0.908
-332.066,-119.937,936.332,3.830,-1.310,-0.871
-333.151,-111.383,937.321,3.546,-1.502,-0.765
-331.000,-102.000,941.000,2.520,-1.750,-0.770
-324.731,-103.850,942.144,1.013,-2.003,-0.646
-322.086,-111.613,941.214,-0.403,-2.134,-0.694
-322.821,-120.932,939.469,-1.025,-2.266,-0.909
-329.093,-133.485,936.112,-0.696,-2.304,-0.839
-335.599,-136.465,936.572,0.267,-2.202,-0.764
-334.207,-128.597,939.707,1.122,-2.163,-0.760
-330.743,-115.997,943.309,1.156,-2.094,-0.699
-327.229,-106.365,946.821,0.125,-2.094,-0.765
-325.918,-104.797,948.003,-1.823,-2.166,-0.773
-325.579,-106.881,946.910,-3.733,-2.165,-0.841
-324.799,-113.533,943.615,-4.893,-2.184,-0.966
-330.177,-118.508,940.437,-5.436,-2.136,-0.828
-336.462,-119.010,936.502,-5.524,-2.105,-0.772
-339.409,-118.974,932.663,-5.553,-2.184,-0.662
-342.000,-121.000,932.000,-5.880,-2.310,-0.350
-342.898,-131.757,928.702,-6.304,-2.553,-0.221
-344.788,-146.133,925.790,-6.747,-2.714,-0.142
-348.272,-157.301,927.411,-6.906,-2.762,-0.262
-344.188,-163.940,930.879,-6.331,-2.833,-0.592
-330.017,-166.791,935.479,-5.470,-2.736,-0.744
-319.499,-166.480,936.996,-4.290,-2.561,-0.984
-318.065,-161.556,938.222,-2.599,-2.518,-1.190
-319.809,-157.200,940.934,-1.200,-2.397,-0.937
-322.499,-155.311,940.766,-0.402,-2.154,-0.710
-323.470,-154.890,943.412,0.040,-1.894,-0.676
-320.831,-159.712,945.511,0.643,-1.456,-0.534
-315.555,-166.628,944.418,1.947,-0.997,-0.490
-316.402,-163.716,945.086,3.563,-0.671,-0.479
-324.006,-152.106,943.783,4.856,-0.287,-0.505
-325.000,-141.000,945.000,5.530,0.070,-0.560
-321.398,-133.575,945.534,5.337,0.320,-0.264
-319.885,-132.074,940.978,4.791,0.467,-0.063
-321.729,-130.958,939.024,4.609,0.532,-0.091
-326.440,-129.317,938.510,4.680,0.580,-0.044
-328.071,-128.380,939.649,4.958,0.532,-0.106
-326.232,-125.285,942.552,5.222,0.487,-0.137
-320.506,-123.945,944.065,5.326,0.490,-0.144
-316.983,-120.565,944.043,5.332,0.489,-0.206
-318.590,-110.601,944.469,4.977,0.499,-0.262
-320.535,-100.917,946.245,4.128,0.411,-0.307
-324.759,-98.426,943.658,2.705,0.240,-0.195
-328.618,-102.238,940.987,1.066,0.066,-0.131
-333.668,-109.762,939.016,-0.415,-0.014,-0.131
-335.924,-120.673,935.659,-1.159,-0.088,-0.061
-336.000,-128.000,935.000,-0.910,-0.210,-0.070
-341.376,-129.074,933.213,-0.477,-0.213,-0.131
-341.448,-127.885,933.930,-0.167,-0.246,-0.189
-335.991,-123.756,937.011,-0.342,-0.363,-0.282
-328.826,-117.889,938.319,-1.280,-0.502,-0.418
-324.081,-116.334,939.252,-2.498,-0.715,-0.375
-326.803,-123.121,941.705,-3.590,-0.857,-0.270
-326.772,-132.678,944.020,-4.302,-0.834,-0.278
-323.185,-140.468,941.312,-4.182,-0.713,-0.152
-323.221,-146.157,938.934,-3.163,-0.484,-0.027
-327.840,-148.664,939.184,-1.882,-0.221,0.136
-332.594,-148.501,937.653,-0.673,-0.026,0.257
-334.383,-145.482,936.501,0.220,0.143,0.157
-333.461,-145.694,935.156,0.783,0.221,0.146
-331.880,-148.060,930.194,1.165,0.201,0.038
-333.000,-144.000,929.000,1.400,0.070,-0.140
-335.055,-136.163,933.589,1.597,-0.113,-0.141
-331.331,-129.524,933.421,1.576,-0.330,-0.150
-324.659,-125.281,933.982,1.483,-0.613,-0.062
-324.945,-123.231,936.699,1.468,-0.778,0.030
-328.551,-125.141,933.099,1.478,-1.019,-0.032
-335.986,-127.025,932.238,1.586,-1.212,-0.073
-339.859,-124.776,932.970,2.001,-1.268,-0.069
-335.214,-122.204,932.916,2.375,-1.454,-0.068
-336.857,-118.862,933.928,2.151,-1.637,-0.122
-340.232,-115.985,934.981,1.479,-1.833,-0.191
-337.530,-117.987,940.540,0.520,-1.915,-0.243
-330.911,-126.419,940.267,0.015,-1.861,-0.302
-331.460,-133.028,934.662,0.273,-1.801,-0.245
-337.430,-128.709,936.882,0.868,-1.742,-0.131
-333.000,-119.000,943.000,1.190,-1.680,-0.210
-325.705,-114.752,943.458,0.615,-1.668,-0.343
-323.001,-119.196,940.900,-0.069,-1.751,-0.347
-323.999,-124.125,941.910,-0.467,-1.700,-0.390
-325.781,-128.537,940.343,-0.502,-1.690,-0.431
-328.057,-131.180,938.966,0.016,-1.636,-0.417
-330.049,-126.630,941.382,0.402,-1.531,-0.411
-327.793,-122.865,940.929,0.408,-1.536,-0.265
-326.123,-122.020,941.807,0.042,-1.409,-0.140
-323.012,-123.209,943.884,-0.564,-1.391,-0.202
-319.801,-127.259,943.223,-1.073,-1.369,-0.168
-321.422,-132.014,942.947,-1.252,-1.289,-0.171
-323.621,-137.168,944.416,-1.071,-1.188,-0.377
-322.219,-139.444,943.271,-0.571,-0.881,-0.401
-321.155,-141.249,941.975,0.378,-0.677,-0.350
-324.000,-139.000,942.000,1.470,-0.490,-0.350
-324.291,-131.072,942.603,2.295,-0.300,-0.286
-322.320,-125.483,945.043,2.571,-0.179,-0.247
-322.373,-121.170,943.019,2.233,-0.079,-0.052
-326.902,-123.013,941.434,1.606,-0.060,0.170
-330.393,-126.527,942.117,0.950,0.059,0.213
-325.231,-122.936,943.234,0.463,0.145,0.208
-318.695,-122.254,942.867,0.035,0.142,0.212
-319.548,-129.286,941.107,-0.278,0.205,0.275
-327.973,-136.705,938.257,0.089,0.219,0.291
-333.850,-131.979,933.553,1.009,0.166,0.229
-332.576,-118.930,935.896,1.653,0.083,0.202
-329.646,-111.208,933.329,1.498,-0.112,0.217
-329.670,-106.785,930.092,0.561,-0.470,0.204
-336.190,-106.405,934.599,-0.675,-0.815,0.215
-340.000,-111.000,936.000,-1.680,-1.050,0.210
-335.075,-112.938,938.701,-2.255,-1.236,0.088
-328.963,-114.585,938.327,-2.525,-1.370,0.046
-328.272,-120.140,939.478,-2.736,-1.426,0.156
-331.513,-126.148,943.508,-2.781,-1.335,0.237
-329.665,-132.342,941.542,-2.397,-1.227,0.177
-329.698,-134.818,938.302,-1.842,-1.184,0.138
-333.034,-129.472,937.035,-1.530,-1.193,0.056
-329.357,-125.874,938.032,-1.653,-1.255,-0.133
-328.238,-131.864,935.647,-2.078,-1.314,-0.094
-331.129,-139.708,934.392,-2.341,-1.382,-0.082
-328.944,-141.216,935.091,-2.049,-1.427,-0.235
-326.081,-140.917,934.862,-1.142,-1.514,-0.302
-327.956,-138.835,936.524,-0.272,-1.526,-0.375
-330.005,-133.083,938.336,0.208,-1.466,-0.425
-327.000,-127.000,941.000,0.700,-1.470,-0.490
-324.065,-118.221,941.950,0.824,-1.409,-0.562
-324.742,-114.745,943.145,0.229,-1.398,-0.470
-324.633,-120.762,945.582,-0.410,-1.345,-0.323
-323.385,-127.151,944.557,-0.601,-1.149,-0.246
-324.830,-130.947,940.562,-0.358,-1.003,-0.184
-325.755,-129.070,943.264,-0.009,-0.880,-0.137
-321.583,-124.719,946.996,-0.016,-0.763,-0.222
-317.192,-122.098,944.196,-0.324,-0.703,-0.408
-317.127,-123.112,943.207,-0.635,-0.647,-0.449
-323.026,-126.273,940.818,-0.871,-0.604,-0.271
-328.951,-123.750,939.798,-0.908,-0.714,-0.183
-327.454,-121.663,941.300,-0.977,-0.766,-0.217
-324.310,-123.932,940.665,-1.283,-0.677,-0.090
-324.100,-127.544,939.802,-1.300,-0.713,-0.096
-325.000,-129.000,938.000,-0.980,-0.770,-0.350
-325.830,-128.022,937.919,-0.729,-0.767,-0.366
-326.974,-126.805,937.924,-0.607,-0.814,-0.325
-325.233,-118.511,939.222,-0.872,-0.914,-0.390
-320.509,-114.568,942.075,-1.694,-1.076,-0.247
-320.911,-123.008,941.077,-2.816,-1.242,-0.106
-324.803,-133.197,939.815,-3.610,-1.246,-0.052
-327.117,-141.548,938.861,-3.457,-1.189,0.081
-327.141,-146.739,936.194,-2.720,-1.192,0.202
-324.490,-148.857,935.524,-1.983,-1.134,0.276
-323.954,-149.369,937.609,-1.291,-1.113,0.247
-327.231,-151.398,937.205,-0.706,-1.103,0.140
-329.364,-151.466,937.137,-0.148,-0.991,0.005
-327.037,-149.451,937.931,0.600,-0.876,-0.079
-326.139,-146.098,936.904,1.357,-0.751,0.027
-327.000,-137.000,938.000,1.680,-0.700,0.210
-326.033,-129.684,939.826,1.473,-0.762,0.336
-326.258,-126.363,940.195,0.854,-0.774,0.406
-324.149,-127.374,939.152,0.236,-0.792,0.454
-322.503,-133.439,938.491,0.217,-0.910,0.540
-323.214,-136.245,937.299,0.730,-1.011,0.533
-324.482,-132.833,937.063,1.529,-1.056,0.394
-327.144,-127.670,936.918,2.284,-1.048,0.429
-327.900,-125.085,935.974,2.585,-1.047,0.493
-331.088,-124.825,937.518,2.503,-1.106,0.429
-332.734,-125.778,938.798,2.251,-1.164,0.390
-331.321,-125.662,938.106,2.088,-1.235,0.260
-335.339,-124.423,935.954,1.961,-1.265,0.209
-338.292,-123.943,938.198,1.746,-1.253,0.186
-336.497,-123.980,941.108,1.408,-1.169,0.054
-331.000,-123.000,940.000,1.120,-1.050,0.000
-325.358,-121.978,939.938,1.400,-1.105,-0.121
-324.967,-121.834,940.488,1.691,-1.138,-0.157
-323.614,-116.758,942.326,1.568,-1.094,-0.150
-320.096,-109.486,942.490,1.274,-1.184,-0.266
-318.855,-110.976,941.594,0.469,-1.302,-0.113
-320.515,-119.933,940.595,-0.465,-1.438,0.091
-322.035,-122.997,940.104,-1.010,-1.623,-0.015
-321.975,-125.459,941.974,-1.252,-1.745,-0.199
-322.844,-133.655,940.439,-1.241,-1.761,-0.320
-322.517,-137.125,939.952,-0.783,-1.671,-0.482
-321.190,-139.580,942.574,0.313,-1.494,-0.662
-320.999,-135.339,944.118,1.495,-1.337,-0.690
-322.903,-121.737,942.217,2.272,-1.223,-0.595
-326.363,-111.865,943.682,2.142,-1.108,-0.471
-325.000,-108.000,947.000,0.980,-1.120,-0.350
-321.296,-114.278,943.535,-0.440,-1.125,-0.224
-320.260,-124.851,941.531,-1.326,-1.147,-0.228
-319.212,-129.784,938.735,-1.285,-1.294,-0.424
-318.585,-132.215,938.159,-0.936,-1.348,-0.523
-315.053,-132.729,938.466,-0.496,-1.455,-0.606
-312.009,-130.497,938.611,0.139,-1.547,-0.712
-317.546,-130.004,944.361,0.589,-1.540,-0.701
-320.212,-127.459,944.224,0.954,-1.541,-0.826
-316.345,-120.435,943.443,1.178,-1.531,-0.921
-317.496,-115.395,945.154,1.133,-1.592,-0.850
-320.729,-112.048,943.594,0.848,-1.616,-0.849
-323.312,-110.389,942.605,0.425,-1.594,-0.799
-326.972,-110.452,943.166,-0.109,-1.517,-0.655
-327.996,-117.530,942.785,-0.618,-1.555,-0.547
-328.000,-124.000,942.000,-0.840,-1.540,-0.490
-326.569,-120.561,945.495,-1.136,-1.290,-0.486
-322.087,-119.436,945.833,-1.410,-1.162,-0.504
-320.557,-122.573,944.080,-1.721,-0.985,-0.409
-324.401,-130.766,945.328,-2.453,-0.858,-0.337
-327.952,-130.887,942.287,-2.878,-0.671,-0.486
-329.211,-119.655,941.111,-2.767,-0.474,-0.442
-330.033,-117.182,940.828,-2.902,-0.568,-0.116
-329.987,-122.372,938.084,-3.578,-0.564,0.066
-330.866,-133.214,939.343,-4.220,-0.560,0.034
-328.820,-142.958,941.018,-4.043,-0.486,-0.177
-320.384,-147.197,939.859,-2.943,-0.350,-0.401
-315.980,-146.621,938.068,-1.323,-0.374,-0.374
-317.681,-135.785,938.342,0.038,-0.449,-0.265
-319.124,-122.164,940.213,0.028,-0.583,-0.375
-319.000,-116.000,940.000,-1.400,-0.770,-0.420
-317.989,-126.088,938.338,-3.093,-1.076,-0.342
-319.770,-145.996,935.636,-3.761,-1.253,-0.503
-323.478,-157.814,935.219,-2.852,-1.257,-0.591
-322.493,-156.983,938.555,-0.892,-1.262,-0.551
-316.736,-143.169,938.384,1.282,-1.269,-0.710
-315.251,-122.483,939.717,2.412,-1.356,-0.858
-318.266,-110.550,943.167,1.795,-1.481,-0.834
-321.751,-108.101,943.962,0.266,-1.665,-0.772
-323.332,-107.513,944.788,-1.298,-1.810,-0.774
-320.791,-112.074,945.447,-2.439,-1.789,-0.696
-319.384,-119.735,946.242,-3.059,-1.676,-0.532
-318.143,-127.819,944.903,-3.260,-1.553,-0.487
-316.787,-134.591,943.816,-3.044,-1.440,-0.480
-317.040,-137.359,942.654,-2.484,-1.397,-0.410
-317.000,-140.000,941.000,-1.750,-1.330,-0.420
-316.269,-139.381,942.861,-1.353,-1.201,-0.543
-314.760,-137.865,941.131,-1.267,-1.186,-0.583
-317.168,-138.170,938.899,-1.337,-1.184,-0.473
-320.030,-138.611,941.197,-1.628,-1.225,-0.383
-319.598,-145.102,941.789,-1.625,-1.244,-0.314
-318.877,-150.598,942.079,-1.310,-1.073,-0.187
-320.260,-149.849,941.956,-0.710,-0.897,-0.218
-323.910,-147.256,941.929,0.088,-0.714,-0.282
-320.689,-144.282,942.965,0.609,-0.578,-0.222
-314.459,-144.083,941.755,0.988,-0.510,-0.172
-315.491,-142.692,939.796,1.311,-0.480,-0.086
-319.530,-139.840,940.146,1.593,-0.493,-0.078
-317.337,-138.698,939.395,1.666,-0.504,-0.051
-310.103,-138.053,937.956,1.520,-0.659,0.004
-310.000,-142.000,938.000,1.540,-0.770,0.070
-316.046,-150.771,935.292,1.982,-0.824,0.205
-321.202,-155.412,936.485,2.905,-0.912,0.125
-321.512,-151.507,940.407,3.922,-0.866,-0.031
-318.403,-143.110,940.916,4.994,-0.819,-0.089
-320.600,-133.342,942.555,5.706,-0.720,-0.041
-326.117,-126.862,942.889,5.596,-0.614,0.001
-327.925,-121.491,944.190,5.221,-0.554,0.003
-324.342,-115.287,944.280,4.797,-0.491,0.065
-322.451,-114.572,940.222,4.266,-0.493,0.167
-325.489,-116.383,941.332,3.654,-0.477,0.371
-325.041,-117.996,940.575,3.151,-0.538,0.428
-323.662,-119.926,938.451,2.953,-0.540,0.442
-323.873,-123.224,940.559,2.958,-0.480,0.490
-321.541,-127.687,941.134,3.114,-0.492,0.406
-320.000,-132.000,944.000,3.430,-0.490,0.350
-320.995,-131.872,944.354,3.909,-0.439,0.287
-319.065,-124.508,943.265,4.389,-0.302,0.311
-317.051,-123.364,945.749,4.488,-0.282,0.451
-318.939,-125.382,944.686,4.102,-0.244,0.468
-316.348,-120.927,944.182,3.895,-0.222,0.265
-313.720,-117.308,946.360,3.904,-0.282,0.232
-311.717,-112.524,947.050,3.608,-0.204,0.355
-308.947,-108.056,947.970,3.124,-0.207,0.409
-312.731,-110.256,946.741,2.466,-0.207,0.606
-317.834,-110.854,942.988,1.900,-0.317,0.559
-323.608,-104.840,940.887,1.496,-0.564,0.455
-326.802,-100.958,940.611,0.870,-0.669,0.496
-329.121,-103.261,937.797,0.120,-0.825,0.382
-333.417,-108.794,937.607,-0.485,-0.912,0.346
-332.000,-110.000,945.000,-0.490,-0.910,0.210
-326.128,-104.924,947.197,0.000,-0.863,0.072
-319.159,-98.843,947.697,0.249,-0.675,0.078
-318.280,-94.381,950.864,-0.088,-0.583,0.052
-321.952,-97.550,946.900,-0.887,-0.501,0.113
-325.094,-100.191,945.115,-1.855,-0.394,0.138
-325.473,-100.657,947.085,-2.898,-0.433,0.151
-319.448,-108.808,944.762,-3.765,-0.415,0.213
-314.197,-119.204,942.193,-4.313,-0.413,0.212
-314.215,-129.786,939.473,-4.370,-0.537,0.164
-318.522,-136.915,938.135,-3.647,-0.605,0.012
-320.828,-138.759,936.479,-2.457,-0.696,-0.196
-321.307,-138.362,933.993,-1.160,-0.829,-0.323
-321.844,-132.574,935.971,-0.170,-0.947,-0.359
-319.657,-123.749,939.479,0.327,-1.068,-0.436
-319.000,-118.000,942.000,0.280,-1.190,-0.490
-319.028,-115.182,943.745,-0.369,-1.317,-0.373
-319.467,-116.840,945.462,-1.123,-1.346,-0.245
-321.380,-125.648,946.673,-1.729,-1.260,-0.119
-321.402,-133.672,946.351,-1.910,-1.091,-0.069
-316.969,-136.473,943.535,-1.408,-0.924,-0.181
-315.227,-133.904,942.035,-0.365,-0.815,-0.096
-318.204,-127.480,944.152,0.531,-0.691,0.076
-319.861,-121.372,944.102,0.582,-0.631,0.070
-321.910,-119.392,943.743,0.224,-0.632,0.165
-319.720,-123.523,943.849,-0.091,-0.625,0.333
-316.660,-125.896,940.622,-0.079,-0.639,0.318
-319.909,-126.056,940.428,0.188,-0.604,0.269
-322.238,-125.828,942.030,0.310,-0.550,0.277
-321.999,-126.170,939.517,0.542,-0.565,0.194
-323.000,-125.000,938.000,0.910,-0.630,0.140
-323.267,-116.425,938.048,1.121,-0.805,0.090
-320.654,-109.803,937.786,0.848,-1.042,-0.052
-319.975,-108.422,938.928,-0.021,-1.324,-0.034
-321.985,-110.615,940.530,-0.982,-1.605,-0.020
-321.219,-114.260,940.957,-1.561,-1.701,-0.235
-320.138,-118.131,942.441,-1.556,-1.766,-0.353
-324.449,-123.248,944.055,-1.075,-1.741,-0.274
-327.992,-121.477,943.999,-0.525,-1.617,-0.275
-326.998,-114.376,944.731,-0.220,-1.514,-0.299
-327.895,-111.042,945.041,-0.377,-1.275,-0.150
-326.276,-115.529,944.911,-0.926,-1.107,0.036
-322.381,-121.179,946.721,-1.527,-0.977,0.030
-320.160,-125.669,946.390,-1.869,-0.787,-0.228
-315.081,-131.664,943.607,-1.503,-0.690,-0.347
-311.000,-131.000,942.000,-0.630,-0.630,-0.280
-312.432,-128.869,941.887,0.064,-0.624,-0.343
-315.706,-130.189,942.278,0.463,-0.679,-0.308
-315.270,-127.270,940.800,0.779,-0.745,-0.287
-315.684,-119.627,942.243,0.975,-0.800,-0.421
-316.693,-115.306,946.077,0.644,-0.856,-0.374
-311.642,-117.540,946.966,-0.011,-0.828,-0.271
-310.173,-115.656,946.999,-0.602,-0.847,-0.361
-312.918,-113.754,946.122,-1.031,-0.912,-0.425
-312.886,-120.261,945.004,-1.090,-0.849,-0.257
-314.331,-125.609,944.978,-0.804,-0.846,-0.128
-314.756,-125.121,944.077,-0.328,-0.796,-0.188
-313.949,-123.799,941.118,0.160,-0.786,-0.195
-319.448,-127.481,936.718,0.741,-0.850,-0.120
-328.099,-128.568,936.320,1.063,-0.841,-0.156
-331.000,-123.000,939.000,0.910,-0.910,-0.280
-330.096,-120.879,939.809,0.563,-0.972,-0.285
-328.990,-122.355,942.110,0.054,-1.036,-0.308
-324.412,-124.477,943.816,-0.184,-1.030,-0.457
-319.945,-124.308,944.096,-0.003,-0.897,-0.459
-318.562,-120.243,947.590,0.330,-0.672,-0.267
-316.110,-117.844,951.461,0.409,-0.452,-0.119
-310.554,-119.124,949.702,0.433,-0.340,-0.065
-307.865,-119.111,946.983,0.628,-0.155,0.059
-312.058,-119.097,949.375,0.427,-0.019,0.139
-313.184,-124.867,949.444,0.205,0.085,0.167
-310.343,-127.988,944.747,0.293,0.202,0.277
-312.829,-126.001,941.983,0.540,0.202,0.243
-316.856,-126.567,942.234,0.615,0.221,0.218
-316.760,-129.451,942.939,0.577,0.197,0.190
-315.000,-131.000,940.000,0.980,0.070,0.000
-317.092,-130.117,937.826,1.579,0.001,0.048
-324.178,-129.131,939.708,2.268,0.008,0.067
-327.452,-122.331,939.639,2.665,-0.067,-0.192
-326.386,-111.563,940.958,2.569,-0.223,-0.313
-327.494,-109.293,943.779,2.191,-0.282,-0.236
-326.340,-111.038,945.151,1.532,-0.175,-0.123
-323.928,-107.637,944.915,1.177,-0.068,-0.142
-324.006,-104.992,943.154,0.944,-0.132,-0.022
-323.805,-105.874,941.315,0.318,-0.203,0.257
-325.420,-106.978,940.150,-0.442,-0.248,0.205
-325.635,-115.196,938.621,-0.994,-0.325,0.102
-324.828,-126.431,935.548,-0.908,-0.380,0.174
-324.494,-126.811,936.796,-0.152,-0.562,0.090
-320.371,-119.887,937.848,0.569,-0.804,-0.091
-320.000,-113.000,937.000,0.700,-1.050,-0.140
-321.964,-106.562,938.967,0.139,-1.412,-0.194
-322.307,-107.117,936.815,-0.843,-1.740,-0.278
-325.128,-113.332,936.526,-1.575,-1.990,-0.266
-325.566,-115.669,941.721,-1.849,-2.200,-0.336
-322.642,-116.092,944.341,-1.719,-2.225,-0.462
-319.384,-116.068,943.540,-1.302,-2.163,-0.483
-320.312,-118.179,941.979,-0.956,-2.169,-0.416
-325.661,-115.654,942.944,-0.647,-2.105,-0.478
-327.400,-106.301,942.284,-0.710,-2.135,-0.574
-323.961,-104.274,942.108,-1.562,-2.252,-0.455
-319.376,-107.009,943.679,-2.799,-2.181,-0.417
-319.633,-116.048,943.974,-3.657,-2.206,-0.398
-319.308,-124.995,945.397,-3.620,-2.215,-0.334
-316.884,-132.781,946.109,-3.232,-1.990,-0.269
-317.000,-144.000,948.000,-2.660,-1.750,-0.350
-310.347,-133.160,949.822,-1.405,-1.508,-0.736
-305.396,-118.458,951.364,-0.291,-1.266,-0.634
-308.283,-119.521,952.331,-0.120,-1.017,-0.236
-308.999,-117.105,951.312,-0.572,-0.790,-0.280
-311.184,-121.347,952.230,-1.230,-0.512,-0.350
-312.959,-133.529,950.005,-1.549,-0.220,-0.253
-310.799,-139.150,946.934,-1.056,0.020,-0.129
-308.219,-138.236,947.045,-0.075,0.267,0.054
-305.964,-134.698,946.023,0.723,0.346,0.206
-308.209,-132.756,945.859,1.037,0.390,0.131
-312.284,-134.711,941.101,1.063,0.440,0.007
-315.559,-138.088,936.918,1.435,0.392,0.007
-318.453,-133.684,940.009,2.196,0.324,-0.009
-316.558,-126.145,939.589,2.709,0.185,0.011
-316.000,-123.000,937.000,2.800,-0.000,0.140
-319.218,-120.277,935.299,2.577,-0.296,0.269
-326.836,-120.271,933.882,2.160,-0.621,0.291
-334.581,-123.201,934.666,1.786,-0.864,0.244
-330.420,-126.989,933.835,1.627,-1.118,0.154
-326.321,-127.295,931.050,1.786,-1.344,0.015
-327.076,-121.155,934.404,2.312,-1.606,-0.087
-325.818,-111.132,941.471,2.740,-1.830,-0.145
-320.658,-101.398,946.592,2.371,-1.827,-0.208
-312.072,-102.895,952.100,1.502,-1.713,-0.164
-311.395,-113.294,953.339,1.022,-1.521,-0.082
-315.550,-121.079,953.078,1.335,-1.155,-0.027
-319.976,-119.988,956.344,2.127,-0.691,0.174
-320.061,-109.688,956.644,2.566,-0.195,0.305
-315.620,-107.886,955.925,2.022,0.276,0.455
-317.000,-119.000,953.000,0.840,0.630,0.630
-315.622,-125.683,946.672,0.209,0.882,0.456
-313.441,-126.380,944.355,0.564,0.985,0.339
-315.306,-122.912,941.838,1.247,0.941,0.343
-313.678,-113.732,937.780,1.816,0.866,0.186
-315.963,-107.003,936.959,1.930,0.674,0.158
-323.195,-103.138,938.143,1.596,0.336,0.205
-320.432,-100.973,936.778,1.395,-0.028,0.056
-315.844,-101.105,934.079,1.397,-0.392,-0.005
-322.837,-97.311,935.252,1.423,-0.752,0.026
-329.979,-92.219,938.098,1.089,-1.164,-0.178
-330.431,-90.263,939.723,0.094,-1.555,-0.411
-324.711,-96.063,942.233,-1.097,-1.733,-0.526
-318.369,-110.756,945.973,-1.930,-1.742,-0.444
-314.485,-120.795,946.934,-1.801,-1.663,-0.351
-314.000,-120.000,947.000,-0.980,-1.540,-0.420
-319.316,-113.834,948.926,-0.450,-1.418,-0.309
-321.092,-111.786,947.098,-0.534,-1.301,-0.163
-321.801,-117.651,944.549,-1.242,-1.142,-0.094
-323.398,-124.224,945.045,-1.896,-0.959,-0.064
-320.330,-127.970,942.483,-1.868,-0.907,-0.057
-316.109,-125.835,941.078,-1.320,-0.907,0.007
-313.955,-119.646,943.162,-0.821,-0.914,-0.079
-314.055,-119.686,944.024,-0.950,-1.038,-0.080
-311.725,-124.267,943.213,-1.300,-1.173,0.015
-309.761,-125.906,942.565,-1.195,-1.203,-0.144
-310.535,-126.619,943.727,-0.446,-1.158,-0.219
-311.305,-129.128,945.940,0.639,-1.072,-0.069
-312.144,-127.896,948.614,1.477,-0.945,-0.118
-312.031,-122.090,947.463,2.038,-0.909,-0.295
-315.000,-117.000,944.000,2.450,-0.840,-0.210
-320.582,-112.391,946.307,2.487,-0.709,-0.019
-319.491,-113.326,949.158,2.108,-0.667,0.057
-315.755,-118.600,947.867,1.664,-0.472,0.087
-316.576,-121.122,948.277,1.525,-0.237,0.010
-315.101,-124.067,946.461,2.026,-0.075,-0.096
-317.234,-121.553,942.278,2.925,0.110,-0.056
-323.315,-113.477,942.035,3.369,0.214,-0.077
-324.926,-110.069,941.107,3.300,0.213,-0.141
-326.074,-109.886,942.044,3.227,0.198,-0.083
-323.618,-110.294,945.187,3.177,0.269,-0.064
-320.398,-108.556,942.604,3.150,0.251,-0.071
-322.617,-105.604,940.208,3.299,0.187,-0.085
-327.028,-99.214,941.851,3.186,0.097,-0.169
-323.744,-88.764,946.784,2.348,-0.098,-0.208
-314.000,-89.000,948.000,1.050,-0.210,-0.140
-310.995,-94.591,945.809,-0.136,-0.328,-0.131
-310.440,-97.163,948.611,-0.857,-0.457,-0.164
-309.506,-105.199,947.000,-1.097,-0.572,-0.043
-311.318,-111.119,942.676,-0.888,-0.680,-0.012
-318.635,-110.394,939.889,-0.477,-0.700,-0.099
-328.767,-108.319,940.668,-0.259,-0.704,-0.163
-328.621,-103.625,944.126,-0.368,-0.781,-0.370
-324.107,-101.855,943.133,-0.675,-0.967,-0.554
-325.417,-104.658,942.766,-0.983,-1.052,-0.565
-326.108,-104.447,943.520,-1.254,-1.043,-0.559
-322.404,-104.423,944.206,-1.393,-1.057,-0.539
-320.801,-107.387,942.825,-1.394,-1.045,-0.433
-322.652,-109.835,942.246,-1.407,-1.047,-0.321
-324.096,-114.972,944.144,-1.388,-0.963,-0.281
-323.000,-120.000,943.000,-1.190,-0.910,-0.350
-321.759,-122.565,941.293,-0.881,-0.917,-0.420
-325.001,-124.931,939.652,-0.706,-0.855,-0.376
-325.954,-123.878,943.059,-0.759,-0.810,-0.296
-319.874,-122.345,947.623,-0.946,-0.702,-0.297
-310.434,-121.999,948.005,-1.095,-0.593,-0.372
-307.151,-125.229,950.592,-1.100,-0.443,-0.336
-310.147,-130.166,950.928,-0.719,-0.191,-0.355
-309.151,-127.468,950.916,0.256,0.050,-0.298
-309.321,-120.747,951.307,1.495,0.348,-0.038
-312.546,-111.938,948.971,2.372,0.626,0.046
-316.914,-102.170,945.973,2.526,0.768,0.149
-321.629,-94.780,944.584,1.971,0.733,0.213
-319.743,-90.223,944.615,0.916,0.569,0.092
-316.899,-92.688,940.235,0.043,0.306,-0.102
-318.000,-95.000,940.000,-0.350,0.070,-0.210
-315.831,-93.115,946.287,-0.603,-0.051,-0.140
-310.069,-94.639,947.722,-0.695,-0.181,-0.236
-309.759,-99.594,944.748,-0.714,-0.250,-0.308
-318.384,-104.294,943.583,-0.612,-0.326,-0.241
-328.299,-106.443,943.600,-0.291,-0.332,-0.197
-332.221,-105.499,941.500,-0.145,-0.279,-0.227
-329.679,-102.877,942.153,-0.544,-0.357,-0.280
-326.140,-104.651,941.352,-1.407,-0.415,-0.273
-325.842,-108.047,937.053,-1.971,-0.570,-0.497
-326.050,-106.682,939.045,-2.226,-0.830,-0.655
-326.186,-110.557,939.021,-2.656,-1.002,-0.552
-327.445,-120.759,937.985,-2.785,-1.065,-0.448
-326.357,-127.305,940.515,-2.324,-1.035,-0.429
-324.914,-127.790,939.878,-1.465,-0.969,-0.497
-324.000,-126.000,942.000,-0.630,-0.910,-0.490
-319.779,-124.422,945.699,-0.180,-0.856,-0.549
-315.635,-120.904,946.301,-0.010,-0.730,-0.531
-314.866,-119.510,944.594,-0.034,-0.688,-0.423
-317.959,-120.125,943.509,-0.089,-0.686,-0.415
-320.303,-117.752,943.981,-0.042,-0.603,-0.289
-318.376,-114.134,944.012,-0.006,-0.653,-0.204
-316.992,-110.846,945.084,-0.240,-0.698,-0.212
-317.866,-112.581,944.226,-0.614,-0.634,-0.273
-320.857,-117.790,941.272,-0.564,-0.625,-0.302
-326.238,-113.843,941.688,-0.227,-0.637,-0.173
-328.929,-104.706,944.738,-0.108,-0.601,-0.132
-326.290,-103.366,946.089,-0.402,-0.510,-0.141
-323.335,-105.845,945.796,-1.053,-0.379,-0.141
-323.127,-111.080,944.767,-1.497,-0.263,-0.141
-324.000,-116.000,944.000,-1.260,-0.140,-0.210
-320.940,-110.434,946.635,-0.650,-0.015,-0.284
-314.952,-101.980,946.638,-0.227,0.058,-0.221
-314.077,-96.030,945.765,-0.461,0.079,-0.215
-315.410,-93.172,947.133,-1.385,0.047,-0.180
-314.492,-97.044,943.019,-2.246,-0.050,-0.112
-313.861,-101.924,943.804,-2.874,-0.264,0.046
-312.947,-106.468,944.774,-3.384,-0.426,0.135
-314.641,-114.368,941.087,-3.377,-0.484,0.006
-320.123,-120.391,941.904,-3.183,-0.602,0.004
-321.002,-122.152,940.944,-2.997,-0.688,-0.090
-318.753,-125.028,941.724,-2.621,-0.705,-0.158
-319.305,-128.357,940.354,-2.148,-0.692,-0.153
-318.808,-130.638,937.878,-1.575,-0.715,-0.216
-321.839,-132.157,940.198,-1.132,-0.779,-0.126
-326.000,-133.000,938.000,-0.700,-0.840,-0.140
-325.081,-133.212,938.444,-0.258,-0.908,-0.147
-325.335,-130.821,940.999,0.026,-0.863,-0.166
-322.143,-128.482,940.868,0.455,-0.826,-0.293
-318.778,-123.605,943.453,0.720,-0.849,-0.208
-318.667,-114.670,945.277,0.663,-0.835,-0.131
-315.067,-112.486,946.070,0.512,-0.838,-0.130
-315.330,-118.499,944.798,0.267,-0.761,0.014
-322.389,-121.168,942.123,0.387,-0.639,0.138
-328.509,-116.340,941.845,0.930,-0.514,0.135
-327.575,-111.523,941.589,1.329,-0.468,0.220
-324.267,-106.389,939.350,1.444,-0.533,0.347
-326.691,-98.231,939.290,1.253,-0.591,0.322
-329.150,-94.760,941.559,0.467,-0.770,0.273
-324.929,-97.718,941.895,-0.565,-1.020,0.280
-317.000,-104.000,940.000,-1.330,-1.330,0.210
-315.279,-110.409,937.235,-1.853,-1.644,0.030
-322.585,-111.573,936.860,-1.795,-1.871,-0.157
-328.314,-109.537,936.762,-1.482,-2.186,-0.311
-328.566,-108.938,937.705,-1.549,-2.396,-0.358
-325.209,-111.462,941.298,-1.772,-2.480,-0.359
-319.964,-117.378,944.730,-1.995,-2.519,-0.436
-319.098,-119.966,948.251,-1.866,-2.441,-0.414
-319.187,-118.115,949.984,-1.614,-2.259,-0.351
-316.221,-117.302,949.935,-1.706,-2.005,-0.356
-317.200,-114.556,949.982,-1.943,-1.864,-0.305
-317.530,-111.732,949.333,-2.448,-1.715,-0.229
-314.896,-115.674,948.082,-3.087,-1.539,-0.025
-315.276,-123.350,944.580,-3.519,-1.444,0.182
-314.788,-129.906,940.522,-3.355,-1.404,0.214
-314.000,-135.000,938.000,-2.590,-1.540,0.280
-314.775,-137.116,935.171,-1.679,-1.725,0.230
-317.092,-134.437,936.191,-0.876,-1.897,0.141
-318.444,-129.484,937.324,-0.418,-2.122,0.120
-314.368,-123.712,937.070,-0.185,-2.378,0.011
-313.281,-118.284,942.189,-0.465,-2.594,0.012
-313.607,-118.722,945.035,-1.007,-2.770,-0.009
-310.925,-123.320,945.142,-1.200,-2.870,0.086
-312.837,-125.878,948.717,-1.330,-2.745,0.274
-311.838,-128.154,950.944,-1.050,-2.561,0.319
-310.346,-131.981,949.459,-0.397,-2.347,0.509
-315.528,-133.114,944.951,0.314,-2.076,0.560
-319.307,-130.663,944.339,1.148,-1.874,0.626
-321.386,-128.329,946.143,1.621,-1.701,0.797
-319.473,-125.514,944.769,1.585,-1.599,0.674
-318.000,-124.000,944.000,1.400,-1.540,0.630
-319.115,-126.641,942.214,1.380,-1.535,0.640
-317.856,-126.283,942.447,1.593,-1.550,0.567
-319.391,-122.248,942.919,1.839,-1.521,0.584
-319.607,-123.673,940.185,1.910,-1.584,0.717
-321.651,-128.969,938.339,2.040,-1.596,0.900
-328.310,-132.869,936.779,2.412,-1.528,0.886
-328.750,-138.570,939.409,2.998,-1.460,0.763
-322.604,-145.644,942.950,4.029,-1.214,0.706
-315.186,-145.583,942.687,5.551,-0.950,0.549
-311.589,-135.018,944.432,7.247,-0.809,0.291
-310.810,-118.159,945.902,8.255,-0.741,0.103
-313.454,-99.231,949.690,7.973,-0.825,-0.108
-313.157,-84.633,949.395,6.655,-0.938,-0.349
-309.738,-82.312,949.213,4.920,-0.983,-0.508
-311.000,-84.000,948.000,3.570,-0.980,-0.560
-313.720,-79.973,948.992,2.922,-1.030,-0.557
-313.226,-73.126,952.941,2.673,-1.165,-0.576
-309.303,-66.653,949.979,2.261,-1.199,-0.453
-309.662,-60.620,955.088,1.297,-1.187,-0.239
-309.784,-55.988,953.875,-0.231,-1.189,-0.086
-310.041,-60.841,958.635,-2.246,-1.196,0.010
-306.588,-68.559,955.244,-4.349,-1.267,-0.084
-304.771,-78.921,953.384,-5.925,-1.329,-0.271
-307.176,-91.380,954.703,-6.951,-1.281,-0.296
-306.732,-96.777,946.676,-7.679,-1.205,-0.225
-309.992,-108.141,953.917,-8.230,-1.162,-0.185
-310.071,-121.461,941.611,-8.386,-1.083,-0.094
-313.879,-128.576,950.477,-7.824,-1.039,-0.090
-306.278,-131.434,941.902,-7.112,-0.968,-0.236
-306.000,-137.000,942.000,-6.510,-0.980,-0.420
-313.806,-140.220,942.091,-6.012,-1.104,-0.608
-317.628,-139.799,928.605,-5.536,-1.214,-0.697
-323.864,-143.696,947.327,-4.760,-1.360,-0.673
-313.556,-144.681,923.746,-4.027,-1.428,-0.563
-320.579,-152.286,949.170,-3.075,-1.493,-0.463
-311.499,-151.585,930.921,-1.680,-1.447,-0.526
-317.602,-145.635,942.819,-0.091,-1.402,-0.792
-320.596,-136.086,947.907,1.126,-1.405,-0.976
-308.649,-127.007,931.012,1.774,-1.335,-0.986
-318.768,-124.169,969.997,2.093,-1.303,-0.910
-300.010,-113.270,912.873,1.783,-1.192,-0.734
-326.518,-124.083,993.271,1.556,-1.202,-0.703
-296.030,-112.412,899.147,1.548,-1.057,-0.705
-321.820,-115.526,988.980,1.803,-1.080,-0.875
-308.000,-107.000,949.000,1.540,-0.980,-0.770
-32.805,-11.329,100.840,0.154,-0.103,-0.076
