acc_x[mg],acc_y[mg],acc_z[mg],gyro_x[dps],gyro_y[dps],gyro_z[dps]
-442.000,645.000,843.000,81.760,51.660,-10.570
-522.252,701.443,858.615,61.247,49.732,-11.835
-519.665,647.252,815.686,27.894,42.815,-12.395
-600.174,718.237,951.201,10.772,48.213,-14.149
-576.173,579.659,889.211,-22.940,44.112,-14.510
-558.031,454.582,943.383,-32.714,48.598,-17.015
-504.227,320.436,876.645,-41.796,46.794,-17.315
-471.399,249.764,836.176,-33.415,47.186,-16.554
-445.157,200.844,817.549,-19.336,45.135,-13.598
-474.400,224.465,825.132,-6.792,41.890,-10.702
-538.584,305.786,847.736,4.312,40.893,-10.075
-552.331,327.301,791.531,5.204,38.993,-10.551
-555.365,362.730,732.191,6.381,42.695,-12.151
-504.145,369.328,642.073,0.899,46.172,-13.159
-468.615,390.729,629.816,-7.571,53.142,-14.750
-474.000,415.000,620.000,-22.540,59.780,-17.640
-485.888,397.727,633.252,-35.563,65.364,-21.462
-526.689,385.000,692.826,-46.364,69.674,-23.843
-583.026,414.639,743.507,-54.495,68.840,-24.972
-613.270,419.222,773.651,-57.142,64.751,-24.904
-592.576,353.649,724.533,-66.795,57.766,-22.398
-533.603,283.770,668.667,-78.175,52.915,-21.429
-458.893,180.925,610.192,-90.869,49.840,-23.476
-419.880,78.722,607.829,-95.432,47.863,-27.159
-423.385,29.740,649.527,-83.951,45.480,-29.425
-439.933,32.897,668.980,-63.742,41.953,-27.094
-444.279,48.753,683.446,-43.320,39.515,-21.109
-452.206,42.525,701.205,-29.902,37.992,-14.920
-519.259,84.669,871.281,-19.679,36.102,-10.830
-600.855,119.620,1053.112,-12.262,28.890,-7.642
-564.000,71.000,974.000,-2.590,19.250,-5.180
-417.848,25.573,801.152,10.125,14.711,-4.327
-348.923,34.432,701.313,12.914,14.391,-3.891
-396.363,39.941,643.668,8.796,15.600,-3.306
-459.960,9.993,644.351,7.127,17.956,-2.924
-520.236,6.678,732.608,6.922,19.986,-3.697
-570.155,51.236,864.769,6.004,19.684,-6.579
-588.039,102.693,936.997,3.258,16.728,-8.982
-571.991,149.242,926.271,0.834,13.304,-8.947
-554.834,205.555,901.051,-1.990,10.994,-8.164
-574.679,255.235,880.587,-10.594,8.605,-7.310
-606.229,227.494,838.511,-23.132,6.040,-6.722
-623.219,142.580,804.666,-32.800,4.698,-7.078
-631.809,71.229,803.008,-35.184,5.195,-8.432
-632.858,12.403,805.535,-29.579,7.827,-10.458
-632.000,-38.000,815.000,-19.110,11.970,-11.900
-623.842,-78.816,819.156,-6.225,15.768,-12.318
-600.604,-104.128,805.808,9.268,19.522,-11.964
-587.674,-91.170,784.431,25.952,24.075,-10.251
-593.446,-17.494,759.743,45.900,28.674,-6.561
-587.846,54.860,736.498,66.961,32.386,-0.819
-578.577,116.555,708.779,81.284,33.929,5.385
-572.293,233.695,692.288,90.017,32.873,9.613
-564.167,334.797,682.865,91.670,29.408,11.543
-566.104,427.478,675.734,85.898,23.990,11.825
-558.910,530.303,675.968,75.986,17.094,11.008
-551.361,547.019,659.647,58.033,8.691,10.437
-572.840,528.968,642.848,37.342,0.334,9.833
-620.440,495.179,641.036,20.121,-6.570,8.153
-676.413,404.648,654.657,6.017,-11.721,6.427
-728.000,315.000,665.000,-1.260,-14.910,5.180
-771.506,229.488,673.556,-1.501,-16.369,3.737
-778.885,170.855,699.760,4.855,-16.315,2.343
-727.789,183.625,705.996,16.813,-14.944,1.678
-655.182,268.716,706.821,29.368,-12.370,2.490
-613.176,380.442,739.377,35.391,-9.906,4.854
-595.846,395.167,784.281,29.655,-9.076,6.795
-585.246,346.645,793.650,18.565,-9.815,6.549
-573.023,313.966,793.553,9.409,-10.859,4.519
-567.594,298.722,792.510,2.999,-11.468,2.541
-586.337,301.240,788.777,-1.058,-11.484,1.675
-614.487,287.029,802.537,-3.786,-10.114,1.747
-637.236,272.323,794.459,-5.625,-7.939,2.015
-631.559,267.571,812.168,-7.350,-5.781,1.252
-594.191,287.940,814.385,-7.757,-3.664,-0.247
-531.000,299.000,799.000,-6.370,-1.540,-1.820
-496.622,312.601,775.368,-4.301,0.066,-2.536
-514.319,326.785,750.955,-3.075,0.588,-2.094
-553.548,299.901,766.093,-4.198,0.624,-1.449
-599.886,289.225,746.437,-5.462,0.500,-1.345
-606.395,264.805,767.669,-5.890,0.633,-2.291
-617.245,281.587,739.113,-5.548,0.591,-2.792
-605.797,286.887,755.655,-5.491,0.573,-3.346
-593.420,306.383,770.225,-5.924,0.693,-3.471
-580.502,333.907,681.624,-6.985,1.162,-3.351
-542.339,264.189,791.858,-10.787,1.755,-4.141
-627.652,235.152,764.942,-15.386,-0.323,-1.961
-686.684,70.440,690.075,-18.488,-1.572,-0.036
-721.944,40.742,757.133,-14.297,0.417,-0.780
-718.203,204.309,729.659,-0.762,3.120,-1.419
-553.000,205.000,757.000,15.610,6.230,-1.400
-506.657,367.958,768.726,24.829,7.343,0.840
-545.342,483.035,792.938,16.896,6.383,1.713
-583.144,402.723,768.630,-0.502,4.219,0.090
-643.005,332.665,711.190,-16.004,1.252,-1.910
-660.513,256.376,734.952,-24.436,-0.362,-4.327
-659.268,253.155,708.085,-22.870,-1.030,-5.730
-614.144,236.282,710.385,-17.599,-1.348,-5.838
-593.424,255.829,711.353,-14.073,-1.890,-4.483
-604.641,287.869,736.207,-16.627,-2.929,-2.848
-617.391,255.675,773.953,-24.474,-3.777,-1.974
-617.991,201.199,760.661,-31.627,-4.451,-1.500
-588.931,111.156,754.601,-34.750,-4.770,-1.134
-574.478,64.216,729.783,-29.721,-4.570,-0.488
-577.441,57.850,727.900,-18.711,-3.850,0.283
-616.000,97.000,738.000,-7.910,-2.870,1.540
-648.436,168.136,747.730,-0.889,-2.057,2.782
-652.260,213.424,756.825,-0.116,-1.592,3.742
-653.453,243.816,752.303,-3.477,-1.620,4.295
-650.101,255.795,743.375,-7.616,-2.128,4.107
-649.512,252.111,718.168,-10.955,-2.783,3.822
-645.087,240.765,697.459,-12.491,-3.773,3.595
-648.529,247.642,694.752,-13.529,-4.977,3.579
-648.733,275.187,718.620,-14.736,-5.518,3.762
-632.980,284.061,744.791,-16.645,-5.631,4.092
-608.745,259.160,759.405,-19.580,-5.845,4.557
-585.828,217.472,759.188,-21.389,-6.169,4.837
-568.478,174.904,745.801,-21.006,-6.930,5.137
-546.926,150.082,741.728,-17.849,-8.039,5.765
-544.411,164.320,740.618,-13.051,-9.039,6.743
-560.000,195.000,738.000,-8.960,-10.150,7.770
-584.652,215.640,743.621,-7.459,-11.379,8.640
-621.526,226.173,762.983,-9.226,-12.422,9.106
-644.268,218.322,770.566,-11.624,-13.514,8.861
-647.278,200.631,756.717,-13.642,-14.740,8.305
-630.269,190.031,740.807,-14.510,-16.034,7.816
-612.877,193.834,740.421,-13.526,-17.053,7.739
-614.195,215.683,744.760,-11.754,-17.611,8.154
-609.687,223.452,735.504,-10.383,-18.400,8.341
-605.143,219.787,739.770,-11.219,-19.503,7.973
-609.894,236.514,749.669,-12.625,-20.439,7.370
-604.688,247.077,743.607,-12.380,-21.488,6.787
-587.623,251.546,733.374,-11.014,-23.205,6.350
-577.560,270.329,735.374,-10.561,-25.109,6.486
-580.976,279.822,762.828,-13.203,-26.416,6.995
-586.000,260.000,781.000,-17.780,-27.510,7.070
-581.712,207.502,780.783,-21.263,-28.788,6.661
-569.543,154.220,783.539,-21.881,-29.876,6.154
-564.713,137.009,785.073,-19.829,-30.361,5.773
-560.959,137.459,791.975,-16.574,-30.343,5.680
-550.880,136.072,793.769,-14.541,-30.484,6.250
-545.947,129.968,804.652,-14.769,-30.882,7.103
-555.078,117.884,827.092,-15.789,-30.923,7.500
-561.641,95.517,824.165,-14.305,-30.550,7.375
-542.015,61.563,809.279,-8.523,-30.240,7.045
-532.152,64.520,804.564,-1.391,-29.780,7.004
-546.529,108.799,813.988,4.739,-28.888,7.193
-544.249,142.453,821.847,9.277,-28.114,7.332
-525.455,177.413,820.701,11.859,-27.829,7.493
-519.290,217.158,824.971,12.496,-28.061,7.910
-524.000,238.000,830.000,11.200,-28.490,8.120
-518.882,240.263,831.268,8.461,-28.952,7.891
-504.945,228.613,828.247,5.621,-29.683,7.428
-495.079,226.348,831.804,3.722,-30.153,6.715
-493.851,229.090,841.292,1.622,-30.107,6.410
-491.765,217.602,837.844,0.400,-29.999,6.176
-497.051,210.857,829.855,0.491,-29.937,5.920
-519.800,219.043,836.193,-0.233,-29.558,5.787
-528.791,235.695,858.194,-1.917,-28.519,5.346
-502.636,248.596,877.143,-5.064,-27.225,5.287
-458.807,250.741,887.119,-8.676,-26.153,5.318
-427.653,242.778,892.377,-10.947,-25.389,5.135
-425.752,228.766,893.446,-11.984,-24.546,4.904
-446.523,223.311,901.210,-12.628,-23.217,4.352
-465.879,217.107,908.148,-13.980,-21.857,3.679
-465.000,197.000,901.000,-15.540,-20.650,3.080
-448.740,180.683,892.846,-15.793,-19.380,2.592
-433.836,184.269,886.052,-14.635,-18.080,2.204
-427.116,189.347,876.367,-13.363,-17.029,2.254
-429.883,186.944,872.503,-12.361,-16.492,2.222
-437.988,193.174,872.398,-11.535,-16.040,1.811
-424.347,199.014,882.252,-10.847,-15.374,1.786
-397.288,204.285,894.573,-10.572,-14.649,2.055
-383.553,195.687,898.644,-10.363,-14.162,2.425
-381.000,175.338,904.890,-8.475,-13.886,2.509
-386.500,179.881,906.681,-5.837,-13.303,2.184
-383.209,185.095,909.621,-4.561,-12.623,2.096
-377.643,175.460,916.675,-5.590,-12.255,2.207
-383.508,159.677,917.752,-7.572,-12.043,1.981
-392.425,145.311,915.347,-7.747,-11.693,1.460
-402.000,135.000,908.000,-6.860,-11.200,1.050
-412.367,124.512,902.318,-5.390,-10.723,0.750
-418.272,127.092,900.798,-2.580,-10.055,0.357
-402.243,132.553,896.792,1.027,-9.176,-0.098
-377.250,141.957,889.578,5.326,-8.256,-0.181
-367.896,152.796,883.207,9.648,-7.526,0.309
-380.252,170.971,888.371,13.041,-7.024,0.983
-393.176,199.664,902.001,14.609,-6.472,1.340
-383.980,204.595,909.851,14.648,-6.229,1.275
-378.129,196.224,908.594,14.366,-6.257,1.043
-384.374,193.487,907.348,14.049,-5.981,0.747
-394.813,194.789,908.206,14.335,-5.534,0.461
-404.478,188.473,904.312,14.781,-5.125,0.292
-408.117,176.860,898.490,14.866,-4.548,0.295
-416.711,168.690,898.488,15.200,-3.619,0.360
-425.000,162.000,903.000,16.030,-2.520,0.420
-418.547,163.741,901.939,17.676,-1.585,0.423
-401.244,164.278,894.210,19.637,-0.940,0.488
-405.613,177.570,889.298,20.672,-0.337,0.708
-425.141,200.317,892.058,20.810,0.422,0.571
-420.145,210.978,895.862,20.509,1.047,0.389
-409.702,215.121,895.668,19.148,1.397,0.416
-409.019,208.250,893.840,18.114,1.706,0.266
-409.005,202.136,892.046,18.688,2.132,0.147
-406.682,201.723,892.796,19.598,2.674,0.028
-398.224,205.927,891.104,20.539,3.194,-0.026
-400.882,217.771,885.280,21.312,3.595,0.044
-415.910,231.647,883.563,22.221,3.948,0.105
-422.526,247.913,882.332,22.373,4.298,0.260
-417.863,259.186,880.914,20.686,4.502,0.259
-411.000,263.000,880.000,18.830,4.690,0.070
-413.521,259.165,878.890,16.951,4.994,0.113
-424.498,252.147,879.565,15.571,5.293,0.229
-428.032,250.667,875.545,15.646,5.617,0.093
-423.185,254.794,870.002,15.900,5.849,-0.115
-424.572,261.029,864.606,15.725,6.016,-0.396
-428.023,261.673,858.511,15.498,6.081,-0.578
-422.463,262.248,850.239,15.308,5.854,-0.556
-420.642,265.898,841.428,14.817,5.490,-0.438
-427.649,264.041,838.434,14.371,5.077,-0.137
-429.960,260.201,835.710,14.469,4.597,0.083
-427.609,261.977,834.773,14.660,4.139,0.264
-432.158,269.847,837.124,14.728,3.723,0.570
-439.685,275.170,841.499,14.789,3.180,0.830
-439.624,282.912,845.335,14.954,2.663,0.822
-438.000,298.000,846.000,15.330,2.310,0.770
-437.997,303.107,845.441,15.009,1.950,0.961
-439.431,304.198,841.114,13.544,1.506,0.908
-446.174,310.709,839.643,11.788,0.877,0.751
-453.450,314.777,842.157,9.241,0.200,0.822
-456.606,317.987,843.032,5.632,-0.463,0.815
-455.303,314.017,844.458,2.211,-1.020,0.655
-450.564,303.319,847.196,-0.536,-1.431,0.481
-444.469,299.131,848.041,-2.537,-1.799,0.483
-439.024,294.495,848.430,-3.968,-1.991,0.603
-434.982,280.398,850.233,-5.214,-2.208,0.694
-433.391,264.838,848.849,-6.009,-2.441,0.655
-434.056,255.458,851.890,-5.938,-2.579,0.450
-430.327,250.904,851.833,-4.919,-2.687,0.223
-426.818,250.274,849.327,-3.414,-2.736,0.231
-426.000,254.000,856.000,-2.310,-2.730,0.420
-421.506,253.553,856.376,-1.560,-2.554,0.487
-422.617,252.227,856.228,-0.108,-2.365,0.534
-431.384,261.693,857.252,1.786,-2.127,0.630
-437.405,274.814,857.700,2.911,-1.783,0.809
-440.035,286.169,862.454,2.851,-1.671,0.914
-445.373,294.277,861.160,1.910,-1.672,0.711
-449.129,294.748,858.917,0.668,-1.607,0.553
-450.807,287.760,856.323,-0.794,-1.670,0.377
-451.279,277.863,854.281,-2.097,-1.760,-0.050
-441.676,271.168,858.758,-2.863,-1.655,-0.314
-430.699,264.809,859.158,-3.264,-1.575,-0.414
-421.069,258.161,857.905,-2.622,-1.454,-0.531
-409.911,255.981,862.828,-1.134,-1.033,-0.445
-404.524,259.897,867.497,0.275,-0.474,-0.342
-403.000,266.000,869.000,1.470,-0.000,-0.280
-406.133,271.933,866.687,2.184,0.253,-0.153
-411.592,279.501,862.544,2.339,0.433,-0.129
-415.983,287.886,861.576,2.164,0.586,-0.179
-419.381,295.818,858.412,1.799,0.689,-0.230
-420.501,298.336,853.434,0.876,0.800,-0.188
-427.175,299.058,854.626,-0.765,0.752,-0.239
-435.340,293.045,855.950,-2.499,0.779,-0.354
-435.140,277.141,854.134,-3.655,0.843,-0.349
-436.535,266.500,853.674,-4.129,0.771,-0.404
-443.345,260.267,855.373,-4.420,0.820,-0.461
-444.657,255.164,855.603,-4.435,0.838,-0.565
-438.267,257.459,854.470,-4.103,0.868,-0.655
-429.435,270.551,855.214,-3.903,0.912,-0.605
-424.564,281.103,854.882,-4.311,0.921,-0.564
-422.000,289.000,855.000,-5.110,1.050,-0.700
-419.981,294.100,854.366,-5.319,0.954,-0.677
-420.411,277.719,852.600,-5.588,0.641,-0.328
-417.813,259.468,854.958,-6.246,0.423,-0.370
-417.438,247.185,855.326,-5.758,0.276,-0.560
-419.419,237.815,853.322,-3.812,0.190,-0.377
-420.525,242.982,854.460,-1.230,0.232,0.151
-425.418,249.303,858.427,0.651,0.360,0.811
-429.678,253.566,862.963,1.122,0.424,1.050
-435.973,258.586,858.666,0.931,0.226,0.954
-444.297,257.127,853.476,0.398,-0.159,0.721
-450.861,252.018,850.629,-0.182,-0.431,0.534
-455.236,254.099,844.029,-0.224,-0.669,0.454
-452.725,260.830,845.003,0.108,-0.784,0.433
-451.098,262.936,845.705,0.284,-0.867,0.584
-452.000,260.000,845.000,0.210,-1.120,0.630
-451.821,256.303,847.150,0.415,-1.247,0.625
-453.235,255.603,843.954,1.001,-1.397,0.636
-449.687,258.880,842.395,1.564,-1.635,0.648
-441.014,269.084,843.656,1.839,-1.923,0.762
-433.366,279.697,848.004,1.426,-2.323,0.742
-429.310,287.204,852.525,0.461,-2.671,0.705
-428.065,284.302,851.860,-0.569,-3.119,0.775
-433.299,274.525,850.086,-1.488,-3.548,0.773
-441.837,269.397,851.068,-1.861,-3.702,0.757
-444.897,262.658,854.284,-2.050,-3.710,0.859
-448.314,259.698,851.509,-2.267,-3.734,0.963
-450.131,255.744,852.442,-2.042,-3.813,0.986
-448.024,258.568,856.644,-2.110,-3.728,0.961
-440.122,269.040,855.891,-2.319,-3.559,0.814
-425.000,270.000,857.000,-2.380,-3.710,0.700
-417.144,275.713,857.940,-2.800,-3.967,0.638
-418.417,279.946,858.037,-3.205,-4.086,0.686
-418.968,275.373,859.014,-3.937,-4.240,1.013
-415.889,269.260,866.271,-5.122,-4.231,1.130
-410.773,255.434,867.904,-5.635,-4.074,1.004
-406.611,237.440,863.382,-4.614,-3.961,0.986
-414.092,233.349,864.015,-2.885,-3.761,1.059
-428.337,241.386,861.274,-1.378,-3.519,1.184
-428.837,250.610,859.875,0.150,-3.270,1.193
-419.310,268.439,859.415,0.716,-3.163,1.255
-412.976,280.586,858.561,-0.216,-3.417,1.455
-416.883,279.067,858.707,-1.653,-3.837,1.600
-423.541,269.115,857.755,-3.095,-4.260,1.696
-424.896,257.787,858.046,-4.165,-4.580,1.576
-422.000,253.000,859.000,-4.060,-4.550,1.400
-419.869,247.179,866.339,-3.041,-4.312,1.458
-419.330,253.719,876.543,-1.942,-3.952,1.440
-407.166,264.211,883.327,-1.007,-3.315,1.357
-393.826,260.888,888.031,-0.884,-2.703,1.488
-391.091,254.674,888.184,-0.922,-2.160,1.519
-398.341,248.684,883.899,-0.318,-1.540,1.360
-406.276,245.996,882.049,0.399,-1.012,1.173
-407.703,247.826,883.026,0.766,-0.466,0.929
-415.739,247.408,881.495,0.766,0.144,0.689
-423.022,238.711,878.271,1.493,0.708,0.429
-429.362,236.425,870.973,2.680,1.215,0.289
-436.003,244.919,866.808,3.915,1.691,0.264
-431.662,248.942,864.803,5.523,2.171,0.191
-424.049,256.635,859.323,6.651,2.478,0.220
-422.000,266.000,858.000,7.630,2.520,0.210
-426.521,272.026,856.321,8.217,2.461,0.083
-424.591,276.853,856.139,7.546,2.362,0.063
-416.247,275.633,858.868,6.470,2.150,0.050
-412.127,274.710,860.800,5.568,1.925,-0.075
-408.487,273.195,862.280,5.206,1.917,-0.157
-407.013,275.239,863.286,5.467,2.070,-0.127
-409.300,282.450,865.100,5.595,2.255,-0.065
-415.383,284.964,865.045,5.351,2.438,-0.004
-423.999,285.152,865.010,4.798,2.565,0.012
-431.838,283.245,863.707,3.956,2.679,-0.086
-435.349,280.096,862.165,3.257,2.831,-0.219
-434.037,278.158,860.537,3.029,3.040,-0.336
-432.624,276.401,855.687,2.981,3.170,-0.444
-432.009,274.864,856.363,2.658,3.141,-0.403
-433.000,274.000,855.000,2.100,3.080,-0.280
-432.277,266.709,850.354,1.645,2.908,-0.216
-432.031,258.288,847.617,1.690,2.693,-0.169
-435.719,259.548,842.900,2.136,2.627,-0.006
-437.146,259.730,847.578,2.236,2.506,0.327
-434.217,265.245,850.686,2.352,2.309,0.550
-427.449,271.418,847.526,2.931,2.117,0.656
-426.287,270.021,849.218,2.980,1.792,0.778
-431.699,273.721,850.944,2.358,1.487,0.838
-432.529,274.209,851.151,1.892,1.303,0.843
-429.690,275.879,850.037,1.587,1.113,0.859
-429.223,280.344,849.913,1.296,0.977,1.052
-432.221,281.528,849.609,0.901,0.824,1.277
-431.273,285.380,850.293,0.173,0.531,1.328
-431.334,288.208,849.675,-0.607,0.240,1.242
-433.000,288.000,848.000,-1.400,-0.000,1.190
-433.579,286.227,847.384,-1.991,-0.248,1.315
-436.102,285.234,844.407,-2.016,-0.395,1.333
-435.293,284.554,843.609,-1.836,-0.511,1.416
-441.488,286.176,841.514,-1.983,-0.820,1.675
-448.965,286.165,843.066,-3.014,-1.184,1.762
-451.497,280.577,841.614,-4.210,-1.571,1.734
-451.822,276.885,837.141,-4.798,-2.068,1.600
-448.205,276.966,844.559,-5.406,-2.491,1.602
-446.486,275.798,843.241,-6.083,-2.903,1.635
-444.548,273.214,842.639,-6.720,-3.355,1.531
-445.766,276.070,850.700,-7.128,-3.680,1.596
-436.609,270.117,854.340,-7.081,-3.816,1.592
-423.005,258.775,859.242,-6.819,-3.741,1.645
-419.527,261.945,857.186,-6.072,-3.628,1.662
-415.000,264.000,854.000,-4.830,-3.570,1.470
-418.670,266.751,856.491,-3.690,-3.451,1.461
-426.814,274.363,859.907,-3.370,-3.358,1.484
-434.427,273.012,862.511,-4.078,-3.406,1.383
-439.753,268.840,862.896,-5.032,-3.405,1.058
-435.496,263.687,862.313,-5.294,-3.193,0.755
-430.119,261.373,859.381,-4.521,-2.961,0.701
-430.227,268.686,861.389,-3.671,-2.706,0.781
-433.840,274.766,864.987,-3.619,-2.398,0.909
-433.500,276.831,863.979,-4.085,-2.294,0.808
-431.472,274.826,864.437,-5.156,-2.435,0.677
-430.460,266.938,860.862,-6.309,-2.651,0.500
-431.499,265.761,856.447,-6.453,-2.757,0.250
-427.802,270.272,857.612,-6.305,-2.703,0.235
-418.789,273.498,859.147,-6.755,-2.666,0.469
-412.000,275.000,860.000,-7.630,-2.870,0.770
-401.484,267.695,862.408,-8.622,-3.182,0.783
-396.045,257.523,866.211,-9.190,-3.380,0.754
-395.943,248.617,867.612,-9.188,-3.529,0.786
-397.319,235.440,868.216,-8.686,-3.585,0.758
-405.912,224.599,869.353,-7.536,-3.537,0.774
-416.041,218.690,871.478,-5.877,-3.274,0.781
-421.134,212.570,871.900,-3.741,-2.837,0.921
-420.138,209.923,870.078,-1.369,-2.416,0.919
-419.746,214.642,870.514,0.933,-1.884,0.884
-419.955,227.538,872.932,3.223,-1.321,0.987
-415.657,238.771,874.071,4.923,-0.827,0.951
-409.179,242.945,871.677,5.812,-0.522,1.024
-408.593,254.127,872.598,6.501,-0.372,0.904
-411.267,261.041,871.307,6.884,-0.185,0.684
-414.000,258.000,867.000,6.790,-0.140,0.630
-422.800,261.237,868.744,6.543,-0.153,0.388
-424.895,263.988,867.456,6.389,0.006,0.233
-417.837,264.478,862.507,6.400,0.178,0.129
-416.058,269.140,859.769,6.753,0.232,0.044
-421.486,279.344,860.097,7.173,0.323,0.086
-424.886,288.564,858.159,6.749,0.324,0.056
-419.571,294.589,857.201,5.721,0.043,-0.004
-419.605,302.691,860.059,4.211,-0.260,-0.005
-423.837,298.202,856.494,2.156,-0.544,0.068
-424.641,284.383,857.698,0.788,-0.963,-0.008
-433.222,277.477,857.789,-0.238,-1.284,-0.149
-438.922,269.580,856.681,-1.200,-1.330,-0.285
-434.166,261.267,865.566,-1.289,-1.329,-0.463
-429.167,262.650,865.388,-1.179,-1.235,-0.488
-421.000,265.000,866.000,-1.050,-1.050,-0.490
-414.324,263.314,871.735,-1.188,-0.870,-0.377
-414.403,259.972,870.771,-1.633,-0.712,-0.273
-416.688,253.313,867.771,-1.601,-0.713,-0.294
-418.536,252.803,863.703,-1.234,-0.638,-0.279
-417.674,255.777,862.990,-0.600,-0.539,-0.409
-421.225,255.899,862.774,-0.574,-0.573,-0.390
-423.944,254.861,863.108,-1.077,-0.634,-0.279
-421.217,252.251,863.168,-1.075,-0.636,-0.346
-418.643,248.066,860.492,-0.371,-0.515,-0.311
-416.532,246.290,857.978,1.192,-0.438,-0.147
-418.673,256.555,856.281,2.587,-0.399,0.049
-420.480,265.879,859.202,2.988,-0.481,0.216
-423.067,265.132,856.381,2.434,-0.710,0.409
-424.910,261.415,855.507,2.015,-1.035,0.490
-422.000,259.000,859.000,2.030,-1.330,0.490
-418.548,258.264,860.328,1.723,-1.510,0.558
-415.097,256.732,864.812,1.636,-1.675,0.514
-409.922,259.424,863.830,1.876,-1.602,0.445
-402.188,265.507,868.020,2.381,-1.490,0.416
-405.972,271.885,868.713,2.488,-1.302,0.567
-412.977,269.886,865.931,2.619,-1.101,0.603
-418.797,270.512,864.540,3.089,-1.117,0.412
-431.300,276.126,857.174,2.643,-0.926,0.480
-434.881,269.397,860.372,2.202,-0.883,0.507
-436.919,267.208,857.001,2.093,-0.940,0.471
-437.413,263.942,852.786,2.295,-0.897,0.512
-435.593,264.248,858.288,2.753,-1.085,0.444
-435.035,276.102,858.714,2.373,-1.216,0.299
-423.618,275.111,859.099,1.588,-1.362,0.113
-408.000,273.000,859.000,1.610,-1.540,-0.000
-398.412,277.399,859.882,2.415,-1.546,-0.009
-400.858,281.280,860.754,2.726,-1.494,0.094
-406.688,287.681,867.055,2.301,-1.416,0.236
-408.606,289.412,869.222,1.269,-1.414,0.286
-409.225,279.467,862.705,0.417,-1.520,0.129
-415.471,275.500,863.510,0.456,-1.617,-0.012
-430.034,281.322,862.813,0.323,-1.447,-0.002
-436.903,281.174,861.947,-0.103,-1.197,-0.128
-437.586,279.439,861.506,-0.722,-1.239,-0.210
-439.570,276.735,860.065,-1.543,-1.244,-0.235
-438.721,276.256,863.060,-2.223,-1.096,-0.367
-429.566,276.353,865.874,-2.928,-1.042,-0.436
-418.362,271.019,867.246,-3.630,-1.046,-0.397
-417.324,263.711,868.252,-4.120,-0.961,-0.253
-418.000,254.000,871.000,-4.410,-0.840,-0.140
-415.372,245.260,872.137,-4.402,-0.726,-0.252
-412.989,236.663,870.564,-3.586,-0.507,-0.363
-409.003,228.922,868.582,-1.932,-0.192,-0.269
-404.789,227.134,867.049,0.223,0.262,-0.135
-402.097,237.065,864.662,2.410,0.712,0.117
-402.566,248.843,861.357,4.010,0.947,0.403
-408.596,252.268,861.101,4.874,1.056,0.573
-415.573,260.176,862.877,5.235,1.117,0.758
-420.781,267.790,863.385,5.290,1.129,0.835
-425.130,265.435,860.215,5.010,1.069,0.879
-427.208,263.752,857.823,4.858,1.044,0.933
-433.039,268.158,857.649,5.117,1.048,0.873
-433.741,268.263,856.903,5.381,1.063,0.844
-426.022,267.364,858.114,5.361,1.126,0.926
-424.000,274.000,856.000,5.110,1.120,0.980
-418.555,282.553,855.584,5.274,1.179,0.917
-408.878,293.290,856.794,5.227,1.133,0.943
-405.242,304.802,854.474,4.015,0.818,1.068
-408.332,311.629,858.960,2.235,0.625,1.170
-413.455,308.869,860.269,0.490,0.499,1.163
-414.021,302.737,857.559,-0.729,0.316,1.024
-418.615,297.591,856.970,-1.760,0.282,1.058
-425.711,294.076,856.980,-2.498,0.283,1.059
-427.494,291.837,855.740,-2.610,0.225,0.968
-431.871,280.386,853.810,-3.022,0.136,1.060
-439.968,272.013,856.391,-3.401,-0.073,0.900
-442.985,266.944,852.017,-3.418,-0.310,0.553
-434.385,259.104,852.283,-3.303,-0.457,0.379
-423.686,257.993,854.664,-2.929,-0.581,0.267
-416.000,256.000,851.000,-2.030,-0.700,0.280
-405.553,260.199,855.241,-0.668,-0.708,0.453
-398.012,273.462,858.147,0.081,-0.683,0.706
-396.321,282.277,862.389,0.111,-0.780,0.840
-398.545,284.227,866.493,-0.207,-0.891,0.831
-405.047,281.705,868.981,-0.653,-0.892,0.850
-415.281,276.221,871.313,-0.960,-0.708,0.825
-421.239,265.098,874.340,-0.795,-0.312,0.685
-423.818,257.270,873.691,0.303,0.296,0.439
-423.215,255.192,863.528,2.020,0.980,0.283
-419.474,256.881,867.728,3.722,1.541,0.322
-430.873,266.310,867.421,4.405,2.100,0.373
-439.025,273.854,861.555,4.607,2.563,0.285
-429.483,282.044,864.296,4.808,2.779,0.088
-422.215,289.361,859.152,3.845,2.876,0.081
-418.000,284.000,859.000,2.520,2.800,0.070
-420.132,277.485,856.868,1.699,2.669,-0.065
-423.621,274.439,853.581,1.372,2.657,-0.017
-419.813,269.377,854.517,1.610,2.657,-0.029
-416.532,268.061,852.940,2.161,2.684,-0.089
-416.245,271.267,852.700,3.145,2.751,-0.061
-420.123,271.489,850.309,4.123,2.707,-0.071
-424.279,267.779,848.936,5.050,2.582,0.011
-430.260,268.663,846.319,6.094,2.522,0.135
-441.014,273.866,843.208,6.665,2.477,0.147
-445.876,278.330,842.401,6.771,2.289,0.130
-446.154,282.317,840.678,6.512,1.950,0.173
-446.893,285.222,839.270,5.952,1.570,0.243
-441.842,289.701,839.173,5.340,1.106,0.280
-436.511,295.825,841.364,4.638,0.637,0.192
-434.000,298.000,842.000,3.710,0.280,0.140
-428.075,296.131,841.782,2.881,-0.144,0.146
-422.086,297.669,843.646,2.564,-0.490,0.120
-420.188,301.649,843.801,2.426,-0.719,0.228
-422.334,304.744,844.600,2.338,-0.963,0.313
-425.123,310.052,846.174,1.913,-1.097,0.383
-432.180,311.772,846.053,0.753,-1.325,0.413
-441.530,308.729,848.147,-0.353,-1.552,0.346
-444.058,305.257,846.367,-1.317,-1.730,0.290
-442.434,302.510,843.579,-2.461,-2.035,0.106
-440.971,299.233,845.857,-3.646,-2.284,0.050
-440.905,292.861,844.996,-4.894,-2.563,0.062
-437.950,287.833,848.222,-5.817,-2.858,-0.053
-432.154,282.005,852.827,-6.264,-3.056,-0.055
-425.971,277.596,854.281,-6.450,-3.070,0.007
-419.000,274.000,856.000,-6.300,-3.010,-0.000
-413.545,265.421,857.403,-5.781,-2.963,-0.068
-412.317,256.985,862.089,-4.872,-2.745,-0.020
-414.381,253.519,863.010,-3.358,-2.418,-0.023
-412.051,260.693,862.880,-1.315,-1.801,-0.084
-411.921,263.911,860.340,0.616,-1.213,0.081
-418.697,266.980,859.633,1.914,-0.805,0.237
-425.538,279.710,864.144,2.552,-0.321,0.360
-433.372,278.572,860.490,2.736,-0.206,0.423
-441.265,274.588,856.231,2.381,-0.179,0.321
-447.396,275.897,855.783,1.839,0.008,0.100
-445.465,272.776,855.741,1.749,0.174,-0.115
-436.561,271.772,853.387,1.926,0.358,-0.133
-429.139,270.681,852.056,2.441,0.441,-0.145
-427.043,273.943,852.932,3.097,0.591,-0.042
-427.000,279.000,851.000,3.570,0.770,0.070
-421.130,278.174,851.042,4.113,0.838,0.002
-415.642,278.937,848.902,4.664,0.797,0.050
-414.322,283.187,847.669,5.168,0.744,0.099
-413.081,289.516,850.113,5.383,0.803,0.233
-411.639,294.200,851.341,5.210,0.704,0.402
-415.481,295.092,853.283,4.690,0.532,0.527
-422.423,296.078,851.750,4.254,0.489,0.712
-426.616,296.059,849.084,4.149,0.490,0.831
-433.904,295.850,849.002,3.615,0.449,0.918
-441.872,295.787,847.412,2.840,0.279,0.780
-446.092,293.299,843.464,2.201,0.129,0.637
-446.694,293.742,843.202,1.454,0.004,0.603
-443.822,294.778,842.053,0.704,-0.216,0.433
-439.276,291.503,840.144,0.313,-0.453,0.347
-435.000,292.000,844.000,0.070,-0.630,0.350
-427.817,296.490,844.993,-0.200,-0.810,0.352
-414.425,298.477,846.858,-0.082,-0.961,0.338
-407.419,301.705,849.079,0.172,-1.008,0.451
-409.995,309.056,848.970,0.360,-1.123,0.679
-417.466,311.845,852.377,-0.108,-1.209,0.814
-428.238,304.641,853.926,-1.557,-1.293,0.935
-433.130,294.363,852.930,-2.795,-1.482,0.896
-433.932,290.101,852.066,-3.211,-1.542,0.647
-434.819,288.060,851.802,-3.269,-1.488,0.548
-435.595,282.598,852.658,-3.362,-1.412,0.618
-436.103,279.699,852.825,-3.286,-1.406,0.625
-435.801,277.525,852.934,-3.198,-1.359,0.655
-435.990,272.239,852.753,-3.083,-1.221,0.710
-434.659,267.317,851.933,-2.646,-1.094,0.694
-432.000,264.000,852.000,-1.820,-0.840,0.630
-429.315,265.317,850.425,-0.106,-0.652,0.559
-428.538,271.348,848.140,1.763,-0.444,0.649
-430.726,281.729,848.327,2.755,-0.178,0.797
-432.419,294.733,849.345,2.980,-0.159,0.879
-428.823,301.619,850.031,2.579,-0.255,0.917
-422.926,303.166,849.873,1.743,-0.485,0.909
-422.096,301.680,850.046,0.770,-0.711,0.908
-423.817,294.635,849.249,0.158,-0.829,0.785
-428.285,287.923,844.272,0.252,-1.010,0.639
-435.736,285.202,840.032,0.735,-1.152,0.638
-440.357,285.328,841.359,1.094,-1.236,0.586
-442.576,285.871,845.747,1.046,-1.278,0.577
-439.145,282.707,846.968,0.916,-1.360,0.635
-432.023,279.769,848.500,1.457,-1.396,0.545
-427.000,280.000,852.000,2.240,-1.330,0.560
-421.749,283.245,853.657,2.672,-1.271,0.631
-418.306,287.555,855.892,2.996,-1.202,0.622
-418.243,286.787,854.862,2.779,-1.163,0.625
-419.613,282.663,856.435,2.317,-1.047,0.427
-420.207,280.726,856.571,2.567,-0.950,0.218
-424.468,282.485,848.328,3.238,-0.784,0.120
-430.241,284.195,850.570,3.903,-0.548,0.068
-430.110,291.144,852.574,4.636,-0.493,0.010
-429.221,300.954,841.687,5.142,-0.428,-0.128
-427.752,303.015,840.177,5.123,-0.486,-0.101
-431.123,306.760,842.419,4.897,-0.681,-0.040
-439.044,306.496,840.203,4.618,-0.837,0.064
-437.340,302.608,844.764,4.192,-0.923,0.133
-429.676,306.660,847.007,3.719,-0.906,-0.025
-419.000,306.000,850.000,3.500,-0.910,-0.070
-411.907,305.463,855.953,3.121,-0.911,-0.065
-416.744,307.837,852.231,2.343,-0.909,-0.079
-423.209,303.275,851.670,1.961,-0.913,-0.056
-429.101,303.044,855.271,1.503,-0.878,-0.116
-429.982,306.930,854.485,0.661,-0.670,-0.293
-421.843,303.759,854.966,0.129,-0.456,-0.546
-415.775,301.094,851.639,0.088,-0.337,-0.708
-415.807,305.603,849.045,0.583,-0.091,-0.767
-419.803,308.729,847.087,1.025,0.118,-0.777
-424.881,310.592,842.480,0.926,0.129,-0.726
-430.615,313.241,841.429,0.442,-0.075,-0.681
-436.117,309.303,837.447,-0.083,-0.313,-0.735
-438.519,305.705,834.844,-0.465,-0.592,-0.771
-440.167,308.430,836.116,-0.915,-0.963,-0.776
-439.000,307.000,836.000,-1.400,-1.260,-0.840
-438.534,301.565,836.873,-1.937,-1.619,-0.786
-441.908,299.410,837.474,-2.519,-1.996,-0.743
-439.111,297.650,840.154,-2.871,-2.318,-0.865
-431.968,296.757,843.022,-2.972,-2.587,-0.922
-423.187,297.050,844.758,-2.868,-2.806,-0.915
-414.434,300.600,848.978,-2.490,-2.857,-1.006
-410.716,311.849,852.219,-2.239,-2.720,-1.048
-403.685,316.156,855.711,-2.489,-2.662,-0.984
-399.010,314.543,858.061,-2.909,-2.610,-0.975
-408.221,316.371,856.174,-3.379,-2.509,-0.985
-423.986,309.267,852.599,-3.844,-2.328,-0.974
-442.877,301.114,849.537,-4.274,-2.215,-1.000
-456.821,297.897,847.363,-4.899,-2.242,-1.073
-456.106,293.435,847.232,-5.560,-2.155,-1.129
-447.000,292.000,850.000,-6.300,-2.170,-1.260
-434.162,288.138,851.025,-7.009,-2.241,-1.455
-421.042,280.107,850.964,-7.056,-2.228,-1.442
-413.694,274.577,850.396,-6.552,-2.290,-1.281
-413.711,271.029,849.676,-6.034,-2.309,-1.082
-417.369,268.147,852.138,-5.550,-2.328,-0.934
-418.929,267.934,855.667,-5.082,-2.385,-0.801
-415.597,264.588,856.978,-4.647,-2.298,-0.619
-410.279,261.002,855.170,-3.737,-2.114,-0.562
-410.034,263.154,854.556,-2.349,-1.937,-0.463
-415.147,268.326,856.939,-1.086,-1.706,-0.273
-418.504,278.163,858.739,-0.239,-1.497,-0.108
-419.103,280.518,858.267,0.124,-1.495,0.097
-420.738,279.389,856.593,0.349,-1.534,0.241
-424.691,283.492,857.091,0.507,-1.364,0.282
-428.000,284.000,855.000,0.630,-1.190,0.280
-428.029,286.543,852.753,0.607,-1.186,0.279
-429.125,286.864,855.477,0.158,-1.192,0.282
-431.559,284.545,856.129,-0.328,-1.192,0.278
-431.890,281.866,858.345,-0.830,-1.169,0.282
-431.753,273.530,857.853,-0.916,-1.084,0.277
-427.283,268.173,856.183,-0.330,-0.929,0.286
-418.409,264.756,859.086,0.417,-0.603,0.358
-414.129,265.533,856.270,1.577,-0.360,0.481
-413.583,273.508,856.359,2.684,-0.245,0.593
-417.552,276.514,855.659,2.801,-0.124,0.814
-422.302,275.291,848.673,2.819,-0.250,0.991
-424.160,277.006,848.250,3.472,-0.392,0.968
-433.476,278.062,845.454,3.714,-0.452,1.114
-440.392,279.458,843.122,3.724,-0.669,1.177
-441.000,282.000,844.000,3.640,-0.910,1.050
-441.459,276.325,839.613,3.382,-1.265,1.164
-436.358,271.638,838.320,4.278,-1.620,1.257
-433.859,279.410,841.026,5.381,-1.760,1.312
-429.184,287.983,845.210,5.717,-1.916,1.520
-417.343,294.699,849.313,5.665,-2.086,1.627
-409.749,301.052,852.551,5.204,-2.195,1.608
-406.968,303.157,852.960,4.797,-2.320,1.692
-409.667,307.566,854.645,4.070,-2.441,1.817
-412.173,310.982,858.800,2.973,-2.564,1.771
-410.472,311.469,858.248,1.940,-2.624,1.701
-409.433,315.787,861.786,0.934,-2.462,1.619
-408.287,313.416,863.461,0.188,-2.183,1.475
-408.541,306.233,860.250,-0.229,-1.974,1.367
-415.670,303.587,859.810,-0.268,-1.789,1.244
-429.000,298.000,856.000,-0.140,-1.540,1.260
-436.820,293.247,854.872,0.099,-1.288,1.338
-435.044,292.293,853.960,0.237,-1.158,1.188
-431.576,292.208,852.214,0.178,-0.973,0.990
-423.438,297.248,856.426,0.504,-0.705,0.804
-409.842,302.614,857.679,0.713,-0.611,0.682
-401.641,305.612,856.901,0.374,-0.536,0.807
-396.666,306.955,857.022,-0.344,-0.492,0.834
-395.764,303.459,857.893,-1.025,-0.558,0.770
-399.516,296.583,858.907,-1.033,-0.516,0.783
-400.412,291.324,859.347,-0.788,-0.370,0.679
-402.802,291.916,860.359,-0.147,-0.075,0.559
-406.879,293.401,858.697,1.089,0.322,0.434
-413.212,296.758,856.392,2.195,0.656,0.450
-418.419,305.146,856.143,2.958,0.957,0.573
-420.000,307.000,858.000,3.080,1.260,0.630
-423.638,305.851,858.109,2.448,1.510,0.703
-423.548,304.725,858.482,1.453,1.657,0.564
-422.650,291.410,858.580,0.436,1.693,0.352
-422.865,278.366,854.609,0.071,1.683,0.186
-423.778,277.575,854.010,0.637,1.824,0.020
-427.776,279.285,852.164,1.316,1.985,0.005
-429.087,281.184,849.973,1.708,2.033,-0.003
-431.802,282.106,848.368,2.189,2.095,-0.065
-430.493,280.620,842.781,3.044,2.154,-0.131
-423.691,286.376,841.099,4.113,2.227,-0.144
-419.860,298.518,840.287,4.977,2.222,-0.142
-416.426,307.724,841.975,5.520,2.106,-0.119
-416.472,315.235,840.697,5.560,1.874,-0.058
-419.728,320.534,836.780,5.258,1.563,-0.071
-429.000,322.000,837.000,4.550,1.260,0.000
-440.181,322.018,834.967,3.497,0.896,0.070
-440.835,322.014,837.935,2.754,0.574,0.063
-438.976,320.943,838.719,1.793,0.293,0.084
-438.643,315.360,837.916,0.487,-0.068,0.034
-437.428,308.728,838.669,-0.580,-0.543,-0.017
-435.299,305.433,836.781,-1.352,-1.004,-0.092
-431.726,302.747,839.239,-2.091,-1.358,-0.139
-426.622,299.199,840.048,-2.711,-1.783,-0.136
-417.409,299.739,840.579,-2.556,-2.228,-0.251
-416.932,306.593,841.292,-2.174,-2.512,-0.309
-424.308,310.957,840.116,-1.995,-2.726,-0.204
-426.703,313.388,839.504,-1.850,-2.997,-0.103
-432.097,318.712,838.951,-2.059,-3.203,-0.055
-434.667,323.808,840.191,-2.347,-3.395,0.008
-429.000,330.000,840.000,-2.730,-3.640,-0.000
-426.898,333.160,839.105,-3.823,-3.927,-0.007
-427.651,329.787,838.171,-5.531,-4.440,0.015
-430.381,322.951,838.536,-7.327,-4.981,-0.026
-439.343,314.107,841.637,-8.990,-5.386,0.045
-446.876,305.546,845.454,-10.352,-5.723,-0.104
-444.624,292.217,849.774,-11.426,-6.015,-0.399
-436.330,276.024,851.036,-12.060,-6.242,-0.498
-427.716,270.084,852.771,-11.755,-6.242,-0.685
-416.839,269.178,854.938,-10.529,-6.010,-0.776
-405.586,271.288,854.938,-8.851,-5.795,-0.733
-401.100,282.179,858.906,-7.885,-5.640,-0.600
-400.664,285.525,863.183,-7.882,-5.458,-0.431
-397.778,278.913,862.484,-7.623,-5.494,-0.419
-394.840,274.308,862.005,-6.858,-5.516,-0.333
-398.000,268.000,861.000,-5.670,-5.320,-0.280
-406.535,265.560,860.651,-4.303,-5.027,-0.118
-415.633,269.836,863.450,-3.447,-4.679,0.171
-421.478,272.473,864.311,-3.039,-4.577,0.217
-420.366,273.052,865.911,-2.901,-4.467,0.201
-414.626,273.421,866.965,-2.997,-4.272,0.066
-410.157,278.389,866.981,-3.200,-4.075,-0.089
-407.927,279.692,865.814,-3.369,-3.836,-0.066
-408.823,273.329,863.977,-3.431,-3.721,-0.006
-410.830,273.914,865.661,-3.297,-3.498,0.064
-410.521,276.861,865.828,-2.914,-3.201,0.065
-408.542,272.671,867.074,-2.739,-2.876,0.108
-405.454,268.948,869.823,-2.652,-2.659,0.133
-403.673,270.797,869.827,-2.096,-2.540,0.040
-402.764,270.593,871.549,-1.465,-2.263,-0.002
-400.000,267.000,876.000,-1.120,-1.960,0.000
-395.795,265.255,876.369,-0.449,-1.543,0.000
-390.739,263.294,875.137,0.815,-1.066,0.032
-391.591,263.513,878.858,1.821,-0.504,0.201
-399.070,263.009,878.997,2.399,0.106,0.313
-402.633,257.956,875.585,3.266,0.616,0.248
-404.705,257.760,871.980,4.602,1.181,0.205
-408.200,265.828,868.940,5.971,1.638,0.214
-409.035,278.028,869.119,6.764,1.941,0.338
-407.699,289.740,865.057,6.744,2.141,0.427
-403.540,297.874,862.603,6.215,2.233,0.364
-400.907,302.352,862.449,5.442,2.194,0.373
-403.562,304.781,859.286,4.374,2.007,0.455
-406.820,302.423,857.633,3.223,1.842,0.504
-409.488,293.425,856.931,2.151,1.646,0.571
-414.000,284.000,856.000,1.400,1.470,0.630
-418.626,276.031,851.735,1.629,1.408,0.689
-419.602,271.869,848.881,2.545,1.350,0.753
-422.923,273.730,849.548,3.204,1.268,0.834
-428.098,275.613,850.157,3.482,1.063,1.017
-424.661,276.383,851.301,3.595,0.833,1.168
-418.866,278.427,852.135,3.554,0.653,1.291
-414.713,278.981,853.063,3.495,0.400,1.407
-412.971,278.977,853.037,3.429,0.219,1.527
-412.687,279.020,853.503,3.659,0.099,1.671
-409.156,280.165,855.531,4.199,0.005,1.637
-410.835,285.609,855.476,4.481,0.008,1.620
-413.670,288.641,854.394,4.790,-0.021,1.742
-414.510,289.589,853.646,5.121,-0.100,1.846
-417.305,293.642,851.586,5.366,-0.230,1.895
-418.000,296.000,849.000,5.670,-0.280,1.960
-424.416,298.366,848.786,5.537,-0.323,2.087
-432.584,302.403,850.447,4.831,-0.560,2.110
-429.829,302.360,852.093,3.945,-0.730,2.092
-420.935,299.031,853.178,3.417,-0.812,2.107
-413.663,295.461,852.711,3.252,-0.832,2.092
-412.195,289.112,854.609,3.207,-0.748,2.116
-415.280,279.211,855.998,3.071,-0.701,2.250
-417.087,270.504,856.755,3.423,-0.765,2.252
-413.391,265.741,861.189,4.781,-0.700,2.102
-406.458,262.389,862.312,6.086,-0.301,2.197
-395.869,259.117,861.597,7.948,0.075,2.221
-387.386,259.941,861.554,10.800,0.521,2.190
-394.969,262.584,859.212,13.463,1.193,2.492
-408.645,264.521,859.180,16.179,1.850,2.759
-413.000,272.000,858.000,18.760,2.520,2.940
-411.315,283.913,851.751,20.953,3.082,3.130
-410.438,299.902,849.774,22.861,3.469,3.211
-413.603,319.953,849.238,23.528,3.743,3.227
-418.492,334.873,846.227,22.747,3.709,3.184
-422.076,342.038,843.526,21.195,3.342,2.969
-422.803,345.748,837.531,19.634,3.024,2.556
-420.844,349.280,834.981,18.712,2.861,2.142
-418.331,352.710,832.455,18.288,2.801,1.838
-412.324,359.242,827.244,18.239,2.757,1.689
-409.400,374.213,827.733,18.227,2.630,1.683
-409.911,390.270,827.847,17.200,2.511,1.648
-405.880,398.773,833.044,15.122,2.229,1.584
-405.174,399.583,835.369,12.548,1.963,1.497
-403.481,396.424,831.935,9.998,1.698,1.204
-404.000,392.000,836.000,7.910,1.400,0.910
-414.401,385.186,836.302,5.844,1.339,0.793
-421.786,378.313,835.767,4.023,1.222,0.540
-425.038,375.858,834.724,2.586,1.187,0.148
-426.508,375.297,830.946,1.070,1.126,-0.124
-429.788,368.377,829.226,-0.311,0.894,-0.243
-436.481,357.494,827.879,-1.847,0.733,-0.288
-440.031,345.987,829.059,-3.140,0.549,-0.359
-434.819,331.113,827.220,-3.136,0.550,-0.544
-423.715,321.335,827.103,-1.979,0.718,-0.694
-419.582,324.652,830.945,-0.262,0.995,-0.662
-416.346,332.296,832.875,1.446,1.269,-0.570
-410.156,334.416,834.165,2.798,1.357,-0.402
-405.794,339.528,832.068,3.513,1.416,-0.240
-404.069,350.593,831.037,3.813,1.387,-0.116
-407.000,357.000,830.000,3.710,1.260,0.070
-411.172,359.732,827.876,2.777,1.027,0.143
-417.774,359.353,829.858,1.618,0.717,0.094
-424.256,353.363,827.504,0.860,0.453,0.016
-430.256,346.244,822.273,0.649,0.259,0.021
-435.684,341.623,820.568,0.776,0.204,0.086
-438.461,341.178,821.203,1.285,0.214,0.066
-438.900,342.003,820.847,2.082,0.289,0.152
-436.207,341.101,818.962,2.441,0.356,0.275
-434.958,340.169,821.544,2.504,0.141,0.333
-434.322,338.815,820.277,2.671,-0.127,0.375
-428.949,337.288,819.057,3.363,-0.378,0.284
-422.441,342.236,824.060,3.933,-0.690,0.346
-420.319,349.619,827.345,3.645,-0.778,0.532
-413.620,348.197,836.230,3.225,-0.859,0.563
-408.000,341.000,833.000,2.870,-0.910,0.630
-408.089,334.584,827.945,3.676,-0.849,0.580
-409.476,332.952,835.119,5.189,-0.721,0.529
-419.969,332.929,825.549,6.336,-0.418,0.609
-425.766,338.224,822.765,8.207,-0.339,0.440
-430.878,352.225,823.531,9.189,-0.184,0.355
-437.565,357.104,818.927,9.325,0.019,0.428
-433.601,360.657,824.256,9.893,0.002,0.422
-431.098,369.683,820.441,9.507,0.132,0.488
-428.639,368.061,820.636,9.043,0.105,0.394
-427.456,365.989,823.769,8.953,-0.030,0.242
-428.355,368.719,822.109,8.521,-0.149,0.126
-426.643,370.823,825.754,8.038,-0.216,-0.112
-418.852,372.417,827.139,7.566,-0.097,-0.228
-411.674,375.844,829.422,7.231,0.019,-0.293
-415.000,381.000,829.000,6.790,0.210,-0.350
-414.508,378.589,826.159,6.345,0.450,-0.348
-413.221,377.962,824.963,6.135,0.743,-0.360
-416.525,379.962,820.747,5.981,1.027,-0.304
-423.075,377.770,817.200,5.698,1.203,-0.273
-431.877,380.795,815.256,5.148,1.262,-0.282
-433.749,384.501,814.987,4.331,1.156,-0.276
-430.679,386.132,813.813,3.196,0.961,-0.201
-425.424,386.207,811.144,2.042,0.596,-0.136
-421.372,382.018,810.138,1.002,0.109,-0.301
-420.733,378.186,809.104,0.123,-0.336,-0.434
-421.146,375.000,809.171,-0.178,-0.724,-0.351
-420.523,373.718,810.065,-0.094,-1.046,-0.222
-421.988,373.839,810.199,-0.072,-1.234,-0.104
-428.050,369.989,813.670,-0.069,-1.346,0.021
-434.000,361.000,816.000,-0.070,-1.400,0.140
-436.248,356.615,817.440,0.134,-1.342,0.149
-431.514,362.584,820.782,0.804,-1.245,0.084
-422.845,369.116,820.103,1.532,-1.017,0.060
-414.860,372.792,820.048,1.870,-0.847,0.096
-411.411,378.907,819.457,1.688,-0.834,0.176
-413.775,387.599,820.458,0.977,-0.748,0.322
-417.274,387.687,819.688,-0.245,-0.782,0.500
-421.583,385.004,816.816,-1.583,-1.029,0.498
-428.228,381.852,822.304,-2.858,-1.282,0.375
-434.457,365.331,819.623,-3.894,-1.447,0.263
-432.682,357.701,815.955,-3.654,-1.435,0.124
-425.476,361.091,820.948,-2.373,-1.200,0.051
-419.409,357.506,818.765,-1.102,-0.876,0.098
-418.293,356.090,821.147,-0.070,-0.496,0.230
-421.000,356.000,829.000,0.700,-0.070,0.280
-416.373,355.698,828.562,1.632,0.353,0.222
-407.769,359.312,825.838,2.968,0.783,0.149
-404.514,365.402,827.976,3.974,1.196,0.192
-409.884,373.524,831.139,4.110,1.645,0.382
-419.302,381.779,830.023,3.715,2.008,0.402
-425.130,383.461,827.198,2.728,2.206,0.336
-431.586,377.504,822.624,1.537,2.317,0.192
-438.570,373.182,819.147,0.939,2.437,-0.055
-443.219,371.863,817.426,0.566,2.621,-0.228
-444.432,373.838,815.892,0.328,2.761,-0.487
-438.431,375.030,815.925,0.167,2.847,-0.582
-430.631,370.203,815.982,-0.132,2.897,-0.567
-425.574,364.001,817.156,-0.022,3.090,-0.652
-421.489,355.475,814.333,0.883,3.312,-0.616
-421.000,346.000,813.000,2.240,3.430,-0.490
-425.284,341.962,815.904,3.892,3.728,-0.309
-428.093,344.471,815.022,6.099,3.996,-0.128
-427.085,350.443,816.441,8.079,4.249,0.068
-427.378,362.058,818.749,9.172,4.580,0.170
-427.737,375.400,818.364,9.633,4.713,0.110
-425.331,382.531,813.249,9.637,4.670,0.065
-425.264,394.122,806.732,9.335,4.539,0.073
-433.163,403.898,806.057,8.121,4.361,0.135
-443.314,400.669,803.044,6.068,3.920,0.157
-447.943,401.353,799.100,4.246,3.359,-0.011
-445.859,403.989,794.968,3.090,3.075,-0.362
-441.057,405.030,789.598,2.678,2.784,-0.519
-443.817,412.733,787.708,2.259,2.415,-0.487
-450.910,419.948,788.199,1.203,2.125,-0.580
-454.000,426.000,790.000,-0.350,1.750,-0.700
-452.657,427.460,791.678,-2.447,1.211,-0.872
-446.936,423.384,793.267,-4.692,0.645,-1.159
-441.364,417.230,790.507,-6.574,0.142,-1.483
-439.826,404.585,788.177,-7.980,-0.545,-1.737
-446.484,395.596,789.314,-9.096,-1.338,-2.005
-455.423,392.075,790.269,-10.061,-1.955,-2.294
-454.576,386.558,792.101,-10.513,-2.565,-2.380
-446.658,381.378,792.029,-10.451,-2.990,-2.379
-439.818,376.746,793.245,-9.929,-3.226,-2.388
-437.624,375.203,796.556,-8.968,-3.497,-2.301
-434.695,378.776,800.015,-8.175,-3.662,-2.146
-429.439,387.223,803.057,-7.967,-3.921,-2.092
-424.614,394.836,806.150,-8.516,-4.201,-2.101
-423.229,398.340,810.474,-9.832,-4.465,-2.103
-428.000,397.000,810.000,-11.550,-4.970,-2.170
-435.513,389.146,808.866,-13.042,-5.469,-2.346
-446.214,384.009,809.799,-14.193,-5.804,-2.549
-451.535,379.585,811.086,-15.446,-6.015,-2.664
-449.782,374.902,814.839,-16.653,-6.169,-2.833
-447.874,372.796,816.107,-17.661,-6.244,-2.980
-441.079,364.727,818.845,-18.391,-6.221,-3.017
-434.637,358.887,821.027,-18.461,-6.151,-3.087
-429.486,359.083,821.791,-18.029,-5.967,-3.151
-423.792,355.919,825.330,-17.615,-5.771,-3.008
-421.407,352.850,827.602,-17.628,-5.681,-2.721
-420.852,348.970,831.364,-18.153,-5.665,-2.627
-423.016,338.037,833.180,-18.892,-5.690,-2.516
-422.185,323.373,834.880,-19.447,-5.753,-2.340
-419.805,307.399,838.389,-19.394,-5.633,-2.309
-419.000,291.000,840.000,-18.410,-5.320,-2.240
-418.786,282.400,842.709,-16.692,-4.966,-2.059
-419.606,282.283,843.537,-14.432,-4.491,-1.914
-417.148,285.232,846.648,-11.971,-4.014,-1.825
-421.893,288.442,849.671,-10.233,-3.479,-1.657
-430.806,291.722,846.132,-8.798,-2.985,-1.616
-434.636,301.711,843.684,-7.356,-2.658,-1.588
-435.907,310.421,842.945,-6.852,-2.362,-1.463
-430.620,315.488,842.097,-6.797,-2.242,-1.405
-422.633,322.076,840.373,-6.846,-2.233,-1.338
-416.366,324.240,839.535,-7.350,-2.322,-1.301
-414.214,326.618,840.232,-7.818,-2.442,-1.166
-416.099,325.141,839.000,-8.090,-2.455,-1.126
-420.767,317.512,837.863,-8.204,-2.567,-1.079
-428.266,309.739,839.298,-8.184,-2.663,-0.887
-437.000,301.000,840.000,-8.050,-2.590,-0.840
-443.533,296.136,838.326,-7.382,-2.468,-0.833
-445.234,297.655,835.840,-6.036,-2.382,-0.910
-448.983,302.433,833.965,-4.891,-2.439,-0.797
-451.565,308.376,836.909,-4.973,-2.639,-0.672
-447.801,315.015,839.355,-6.136,-2.919,-0.845
-438.336,310.410,840.264,-7.819,-3.323,-0.911
-428.556,293.600,840.969,-9.082,-3.737,-0.910
-427.892,275.411,840.852,-8.896,-3.921,-0.848
-426.411,259.265,844.847,-7.326,-3.731,-0.732
-418.523,254.409,849.129,-4.596,-3.276,-0.537
-409.225,256.527,854.233,-1.412,-2.751,-0.221
-402.080,262.279,857.845,1.366,-2.191,0.043
-397.783,272.212,858.145,3.791,-1.657,0.286
-396.191,284.002,860.298,5.705,-1.108,0.526
-403.000,297.000,859.000,6.790,-0.700,0.770
-415.861,306.733,853.825,6.967,-0.508,0.964
-429.818,313.634,848.525,6.567,-0.463,0.994
-442.179,317.870,844.036,5.708,-0.576,0.941
-447.361,325.062,841.900,4.089,-0.716,0.857
-442.127,325.495,839.971,2.266,-1.068,0.715
-437.590,318.665,837.444,0.725,-1.382,0.608
-436.776,314.625,837.102,-0.336,-1.637,0.478
-429.733,309.176,838.915,-0.637,-2.010,0.357
-420.253,312.900,839.016,-0.279,-2.150,0.245
-409.690,320.565,840.130,0.325,-2.271,0.156
-402.600,323.206,845.894,0.626,-2.299,0.397
-404.281,323.863,852.448,0.586,-2.176,0.631
-404.267,320.699,853.855,0.474,-1.929,0.614
-400.609,316.378,854.305,0.685,-1.563,0.545
-403.000,314.000,857.000,0.980,-1.330,0.420
-411.035,317.110,858.591,0.987,-0.919,0.356
-413.629,323.280,862.163,0.851,-0.458,0.301
-411.229,326.978,862.404,0.071,-0.130,0.243
-411.705,322.265,859.111,-1.124,0.115,0.133
-415.862,314.193,856.939,-1.909,0.282,-0.084
-420.954,308.611,852.874,-2.100,0.557,-0.238
-423.127,301.515,848.727,-1.942,0.784,-0.360
-426.603,299.745,845.253,-1.524,1.025,-0.482
-430.193,306.013,843.068,-0.633,1.388,-0.557
-426.734,314.369,843.031,0.092,1.685,-0.521
-423.344,319.923,841.875,0.243,1.802,-0.465
-422.460,323.659,840.247,-0.028,1.831,-0.540
-422.395,326.653,839.722,-0.495,1.789,-0.663
-426.714,326.821,837.589,-1.000,1.569,-0.699
-428.000,323.000,836.000,-1.750,1.330,-0.700
-428.383,315.868,836.063,-2.558,1.094,-0.762
-433.139,312.462,835.203,-3.024,0.793,-0.777
-434.351,310.329,834.777,-3.165,0.496,-0.745
-436.739,307.573,834.807,-3.539,0.160,-0.602
-439.421,304.333,835.052,-3.981,-0.203,-0.470
-438.903,298.839,836.268,-4.053,-0.476,-0.591
-438.919,297.016,837.023,-3.898,-0.719,-0.548
-435.358,297.895,837.817,-3.465,-0.903,-0.483
-432.288,300.236,841.907,-3.166,-0.962,-0.572
-429.955,303.135,844.708,-3.121,-1.076,-0.420
-424.245,305.410,846.058,-3.007,-1.141,-0.298
-420.693,307.865,851.010,-3.084,-1.105,-0.253
-418.074,307.856,849.900,-3.253,-1.130,-0.205
-417.273,309.465,849.394,-3.313,-1.113,-0.205
-422.000,312.000,851.000,-3.850,-1.120,-0.140
-425.740,312.070,848.048,-4.873,-1.298,-0.194
-427.275,310.897,850.272,-6.035,-1.451,-0.269
-429.852,307.365,850.165,-7.328,-1.504,-0.320
-431.629,304.720,847.873,-8.067,-1.586,-0.348
-432.045,301.316,848.303,-8.409,-1.597,-0.222
-433.542,297.223,852.122,-9.062,-1.522,-0.126
-436.083,293.581,854.997,-9.695,-1.466,-0.065
-432.592,284.838,853.971,-9.874,-1.406,-0.003
-425.554,274.220,855.132,-9.807,-1.297,0.051
-426.576,265.095,852.647,-9.652,-1.119,0.126
-428.305,256.753,852.475,-8.584,-0.942,0.159
-425.712,244.892,854.544,-6.965,-0.738,0.283
-424.492,237.733,857.205,-5.304,-0.463,0.329
-417.176,250.815,861.367,-2.793,0.026,0.108
-402.000,264.000,862.000,-0.350,0.700,0.140
-390.034,270.324,864.758,1.202,1.088,0.340
-387.216,284.102,862.770,2.438,1.308,0.340
-392.107,292.835,857.117,3.584,1.602,0.431
-404.721,294.603,851.583,4.510,1.697,0.517
-423.398,294.903,846.539,4.963,1.682,0.455
-440.176,296.932,847.353,5.363,1.784,0.311
-445.919,301.123,846.821,5.843,1.976,0.126
-439.593,299.161,843.337,6.320,2.160,-0.057
-436.219,301.419,838.809,7.022,2.235,-0.148
-441.212,306.746,836.318,7.201,2.220,-0.083
-444.329,306.460,835.034,6.780,1.995,-0.073
-445.226,307.666,835.338,6.018,1.491,-0.067
-444.595,305.986,835.566,4.661,0.833,-0.212
-443.987,305.396,834.083,3.303,0.104,-0.442
-441.000,308.000,838.000,1.960,-0.420,-0.490
-429.787,301.446,838.440,0.814,-0.833,-0.554
-421.797,294.622,836.652,0.358,-1.345,-0.556
-419.839,293.657,837.813,0.627,-1.636,-0.611
-418.012,295.618,837.593,1.664,-1.710,-0.568
-418.237,303.448,838.218,2.481,-1.785,-0.343
-419.271,311.664,839.242,2.870,-1.929,-0.263
-422.363,317.306,841.129,2.674,-2.116,-0.047
-427.633,318.104,840.260,1.557,-2.417,0.140
-431.361,318.232,837.198,0.713,-2.899,0.034
-434.290,321.595,837.368,-0.170,-3.341,-0.092
-438.993,321.635,838.981,-1.658,-3.764,-0.243
-440.779,322.652,842.656,-3.260,-4.165,-0.429
-434.418,320.675,843.697,-4.766,-4.517,-0.496
-427.196,316.730,843.213,-5.808,-4.790,-0.488
-426.000,316.000,846.000,-6.860,-4.900,-0.420
-430.432,309.439,845.920,-8.206,-5.023,-0.234
-429.975,300.421,850.159,-9.336,-5.061,-0.182
-423.205,292.924,858.909,-10.408,-4.967,-0.295
-417.877,286.795,865.027,-11.162,-4.777,-0.417
-407.498,280.272,873.148,-11.118,-4.364,-0.515
-401.515,273.534,878.704,-10.843,-3.770,-0.474
-399.678,267.610,880.071,-9.973,-3.015,-0.500
-395.933,267.492,880.909,-8.250,-2.044,-0.627
-401.943,277.046,883.800,-6.956,-0.897,-0.576
-409.013,282.465,887.928,-6.517,0.194,-0.610
-414.964,288.995,885.517,-6.639,1.114,-0.885
-424.556,302.391,880.691,-7.114,2.050,-1.200
-433.284,316.574,874.735,-7.930,2.874,-1.603
-437.315,332.270,866.909,-9.388,3.252,-2.023
-440.000,344.000,862.000,-12.040,3.360,-2.520
-443.955,352.488,860.937,-15.771,3.312,-3.190
-440.730,346.890,859.749,-19.702,3.144,-3.765
-435.838,324.916,851.855,-23.157,2.842,-4.267
-431.164,304.987,844.299,-25.157,2.285,-4.664
-429.020,289.406,841.299,-25.855,2.109,-4.766
-430.990,279.024,845.703,-25.610,2.264,-4.647
-425.448,270.302,853.452,-24.722,2.237,-4.390
-422.821,264.919,857.676,-24.371,2.240,-4.264
-424.637,270.953,861.613,-23.976,2.188,-4.484
-418.323,277.522,861.966,-23.337,2.157,-4.659
-411.346,276.165,866.616,-24.005,2.148,-4.468
-411.799,265.754,870.002,-25.965,1.847,-4.297
-413.095,242.413,863.770,-27.775,1.288,-4.367
-414.518,211.354,859.556,-28.611,0.773,-4.317
-420.000,187.000,857.000,-28.210,0.420,-4.130
-424.478,170.286,858.557,-26.815,0.218,-3.953
-427.030,158.417,858.448,-24.487,0.255,-3.715
-424.763,157.832,854.336,-21.075,0.296,-3.462
-422.619,161.958,856.713,-17.791,0.256,-2.995
-429.226,163.195,857.677,-15.256,0.158,-2.368
-435.938,164.353,858.490,-12.992,-0.054,-2.050
-435.829,164.867,859.929,-10.753,-0.299,-1.711
-434.003,157.905,857.167,-8.814,-0.544,-1.097
-436.057,146.505,857.457,-6.879,-0.689,-0.583
-439.953,144.527,858.864,-4.003,-0.669,-0.207
-441.154,148.568,859.236,-1.047,-0.591,0.170
-438.165,153.177,862.890,1.286,-0.712,0.654
-435.642,156.680,867.046,2.947,-0.880,1.102
-437.468,160.008,870.637,4.099,-1.003,1.454
-440.000,173.000,875.000,5.390,-1.120,1.750
-439.348,187.361,877.671,6.462,-1.063,1.817
-437.669,197.347,879.731,6.982,-1.001,1.875
-440.540,210.918,878.351,6.770,-0.895,1.814
-445.229,224.989,872.562,5.925,-0.829,1.529
-447.781,231.101,868.633,4.653,-0.995,1.492
-450.827,229.163,864.978,3.384,-1.246,1.536
-455.391,224.580,861.910,2.535,-1.406,1.464
-459.806,217.616,862.010,2.041,-1.405,1.404
-459.179,209.759,861.078,2.261,-1.297,1.383
-451.730,201.522,862.776,2.785,-1.149,1.529
-442.272,192.324,867.482,3.544,-1.097,1.711
-437.475,184.681,863.773,5.080,-0.982,1.755
-437.097,182.551,858.465,7.164,-0.912,1.757
-439.658,194.666,865.459,8.770,-0.992,1.833
-443.000,210.000,869.000,8.960,-1.120,1.820
-436.561,215.354,864.400,8.375,-1.531,1.582
-429.782,222.101,863.360,7.517,-2.026,1.365
-431.968,229.927,861.323,6.554,-2.508,1.305
-429.165,230.193,861.253,5.747,-2.952,1.393
-420.523,228.933,861.927,5.318,-3.257,1.503
-413.830,229.784,863.639,5.897,-3.463,1.556
-413.234,220.897,864.867,7.261,-3.500,1.693
-419.360,208.417,861.223,9.141,-3.501,1.815
-429.280,210.801,860.094,11.498,-3.411,1.870
-440.296,221.321,859.301,13.627,-3.132,2.009
-444.092,234.596,862.998,14.734,-2.857,2.267
-441.078,249.626,869.558,14.336,-2.808,2.409
-434.381,258.931,874.652,12.846,-2.902,2.232
-423.090,259.636,879.382,10.974,-3.036,2.000
-411.000,257.000,879.000,9.240,-3.220,1.750
-404.117,260.822,882.930,8.125,-3.186,1.323
-407.204,268.004,887.810,7.022,-2.856,1.026
-411.814,267.472,887.643,5.550,-2.444,0.876
-414.263,258.680,887.337,4.516,-1.951,0.613
-416.353,250.106,880.173,4.434,-1.264,0.308
-414.312,247.027,871.422,5.290,-0.645,0.114
-414.225,253.826,867.820,6.204,-0.178,0.149
-418.694,263.549,866.050,6.204,0.068,0.271
-420.323,266.066,866.707,5.180,-0.037,0.392
-417.926,263.916,866.252,3.595,-0.151,0.453
-415.954,253.389,862.182,2.602,-0.377,0.332
-416.430,240.695,860.647,2.852,-0.681,0.278
-418.819,232.783,860.865,3.952,-0.789,0.413
-421.326,226.103,859.853,5.140,-0.848,0.762
-423.000,223.000,860.000,6.230,-0.840,1.050
-424.696,226.701,863.995,7.398,-0.669,1.108
-426.636,236.885,870.063,8.238,-0.415,1.194
-426.102,245.640,871.010,8.615,-0.227,1.079
-420.503,252.914,871.258,8.398,-0.028,0.915
-417.877,258.846,871.597,7.541,0.101,0.908
-420.465,263.113,869.453,6.688,0.161,0.804
-419.906,269.547,867.886,6.043,0.288,0.615
-420.789,276.515,866.116,5.434,0.346,0.431
-422.853,280.807,865.224,4.968,0.455,0.307
-423.803,280.661,862.700,4.726,0.589,0.181
-426.929,282.127,857.784,4.369,0.708,0.097
-428.455,280.085,854.665,3.996,0.781,0.040
-433.150,276.826,851.922,4.031,0.649,-0.006
-442.443,282.080,848.686,4.035,0.552,-0.002
-450.000,288.000,850.000,3.570,0.420,-0.070
-451.504,292.594,852.962,2.416,0.059,-0.188
-446.478,292.221,851.017,0.605,-0.268,-0.361
-442.899,287.800,848.542,-1.316,-0.572,-0.524
-440.601,279.363,850.102,-2.867,-1.019,-0.573
-440.658,263.862,852.457,-3.766,-1.370,-0.550
-444.827,253.255,851.543,-3.973,-1.588,-0.574
-444.827,247.635,851.080,-3.523,-1.760,-0.632
-442.188,245.838,852.011,-3.031,-1.877,-0.629
-439.648,250.509,852.329,-2.922,-2.108,-0.683
-436.130,256.485,856.096,-3.139,-2.355,-0.745
-429.031,258.526,855.325,-3.444,-2.651,-0.821
-423.455,258.210,851.772,-3.182,-3.043,-0.807
-427.924,264.560,853.805,-3.018,-3.275,-0.661
-429.570,270.453,855.099,-3.070,-3.462,-0.626
-424.000,272.000,856.000,-3.010,-3.640,-0.490
-419.548,273.330,855.219,-3.425,-3.814,-0.297
-417.386,268.042,855.228,-3.773,-4.063,-0.191
-421.843,263.796,857.699,-4.181,-4.254,0.001
-426.960,263.513,860.737,-5.049,-4.462,0.092
-426.330,256.080,865.441,-5.904,-4.718,0.058
-424.369,244.378,865.595,-6.458,-4.949,0.078
-420.813,235.490,865.071,-6.577,-5.121,0.064
-423.444,232.016,865.965,-6.456,-5.243,-0.061
-429.708,234.071,867.338,-6.212,-5.270,-0.093
-426.908,237.562,869.142,-6.053,-5.148,0.034
-418.482,237.194,868.722,-5.937,-5.081,0.100
-410.953,235.112,873.796,-5.656,-4.958,0.211
-408.679,233.196,877.436,-5.126,-4.659,0.403
-406.454,229.423,879.540,-4.342,-4.270,0.500
-403.000,227.000,881.000,-3.080,-3.710,0.560
-401.115,225.933,877.189,-1.135,-3.156,0.617
-403.014,228.960,878.558,0.466,-2.671,0.735
-409.470,235.593,877.434,1.678,-2.203,0.792
-411.520,240.256,874.971,2.738,-1.875,0.751
-416.958,244.342,874.408,2.885,-1.694,0.786
-423.927,244.692,872.680,2.487,-1.587,0.754
-423.899,244.038,871.897,2.161,-1.458,0.697
-422.214,243.297,870.085,2.468,-1.276,0.635
-418.693,237.339,869.424,3.277,-1.039,0.619
-416.814,234.171,866.069,4.454,-0.792,0.645
-418.339,237.777,864.638,5.895,-0.547,0.629
-422.973,243.449,867.054,6.615,-0.340,0.786
-421.835,246.654,869.781,7.196,-0.259,0.830
-420.169,248.209,871.004,7.381,-0.110,0.858
-419.000,249.000,872.000,7.000,0.000,0.910
-407.650,252.761,874.984,7.345,-0.069,0.662
-400.969,261.799,873.594,7.488,0.024,0.609
-396.936,266.762,878.364,6.874,0.122,0.595
-393.824,269.345,882.956,6.087,0.221,0.342
-394.172,269.297,879.683,5.478,0.568,0.162
-397.104,266.514,879.980,5.223,0.926,0.146
-402.292,265.989,874.287,5.514,1.447,0.134
-407.214,267.535,866.357,6.563,1.937,0.008
-423.493,280.872,864.038,7.335,2.173,-0.055
-439.093,304.275,864.488,6.781,2.503,-0.161
-443.685,320.108,864.371,4.468,2.580,-0.270
-440.801,326.465,861.521,1.170,2.310,-0.486
-437.957,330.543,860.986,-2.419,2.001,-0.882
-441.423,321.545,859.616,-6.412,1.616,-1.068
-439.000,304.000,858.000,-9.660,1.190,-1.260
-432.255,288.931,859.702,-11.884,0.764,-1.511
-421.791,265.704,860.351,-13.445,0.376,-1.689
-411.273,243.499,858.913,-13.444,0.150,-1.869
-407.480,228.176,859.684,-12.015,0.191,-1.830
-407.363,217.930,863.573,-10.348,0.348,-1.566
-408.880,212.635,867.718,-8.375,0.654,-1.259
-402.289,204.367,869.018,-5.726,1.160,-0.957
-397.776,200.836,869.014,-2.566,1.645,-0.655
-405.449,206.794,868.271,0.629,2.082,-0.296
-417.013,216.686,867.543,2.886,2.390,0.044
-429.635,223.680,867.985,3.985,2.480,0.244
-437.810,227.595,865.075,4.243,2.409,0.259
-440.326,228.944,862.357,4.335,2.384,0.070
-438.372,229.569,859.300,4.866,2.368,-0.080
-434.000,241.000,855.000,5.600,2.240,-0.070
-433.170,258.686,854.953,5.923,2.075,-0.013
-429.185,270.418,853.694,5.186,1.641,0.067
-423.401,279.189,852.383,4.079,1.141,0.008
-422.932,288.605,852.965,3.097,0.806,-0.158
-421.189,288.220,850.840,1.919,0.379,-0.207
-424.453,280.262,850.110,0.919,-0.109,-0.120
-429.012,275.761,852.229,0.241,-0.516,-0.150
-424.479,271.495,855.723,0.001,-0.758,-0.277
-419.696,263.737,858.609,0.050,-0.881,-0.226
-417.542,258.467,859.556,0.217,-1.011,-0.235
-420.570,256.983,860.680,0.573,-1.070,-0.338
-426.508,253.186,862.715,0.744,-1.031,-0.346
-431.746,253.632,862.504,0.773,-1.075,-0.360
-437.728,253.798,860.904,0.673,-1.118,-0.438
-439.000,257.000,862.000,0.490,-1.050,-0.560
-438.171,268.701,863.698,0.114,-0.990,-0.512
-435.026,272.707,866.206,-0.890,-0.919,-0.414
-428.121,274.105,867.145,-2.026,-0.941,-0.468
-424.736,271.390,863.339,-2.840,-1.001,-0.496
-426.002,264.666,860.128,-3.107,-0.957,-0.479
-432.956,259.584,861.548,-2.985,-0.891,-0.397
-439.230,252.559,862.973,-2.929,-0.758,-0.351
-439.931,249.235,860.309,-2.501,-0.637,-0.354
-442.405,244.317,857.164,-1.906,-0.522,-0.287
-442.102,240.365,857.895,-1.634,-0.419,-0.288
-435.471,238.924,859.875,-1.346,-0.455,-0.201
-429.287,234.393,859.307,-1.107,-0.524,0.065
-425.060,226.116,859.264,-1.008,-0.704,0.379
-426.632,219.511,862.723,-0.612,-0.936,0.666
-429.000,218.000,867.000,0.070,-0.980,0.840
-423.975,210.940,867.224,0.940,-0.924,1.073
-418.554,211.668,866.561,2.394,-0.775,1.349
-412.640,223.963,868.188,4.168,-0.497,1.449
-408.208,237.955,869.494,5.601,-0.179,1.534
-407.580,255.549,871.876,6.177,0.093,1.790
-404.038,265.257,872.870,5.717,0.227,1.987
-403.152,268.127,871.968,5.072,0.289,2.033
-406.647,266.419,871.186,4.770,0.533,2.097
-413.540,260.741,867.147,4.826,0.860,2.061
-424.922,259.555,862.026,5.230,1.009,1.922
-434.368,260.901,855.846,5.611,1.132,1.877
-442.679,262.532,851.421,5.970,1.195,1.911
-448.345,261.408,850.596,5.912,1.069,1.986
-454.167,261.142,846.007,5.210,0.875,2.029
-460.000,261.000,841.000,4.830,0.560,1.960
-455.258,260.552,842.497,4.669,0.136,1.951
-447.989,264.426,844.180,4.334,-0.288,1.980
-440.234,264.553,844.464,4.199,-0.719,1.898
-431.936,267.776,850.744,3.977,-1.115,1.928
-426.551,275.994,854.396,3.697,-1.457,1.937
-414.764,282.406,855.571,3.634,-1.729,1.793
-404.573,287.200,859.196,3.563,-1.822,1.830
-402.120,287.920,859.938,3.501,-1.881,1.894
-401.397,289.949,862.334,3.465,-2.008,1.777
-407.123,286.133,862.940,3.181,-2.079,1.701
-417.093,280.052,860.168,2.806,-2.122,1.597
-425.411,282.578,860.211,2.919,-2.037,1.358
-429.711,282.538,861.052,3.219,-1.817,1.246
-430.032,284.981,859.569,3.299,-1.574,1.165
-432.000,294.000,856.000,3.430,-1.400,0.910
-436.989,303.401,853.430,3.312,-1.389,0.717
-443.646,313.712,849.407,2.267,-1.527,0.608
-444.872,317.807,846.315,0.360,-1.853,0.429
-440.357,314.939,847.799,-2.035,-2.241,0.283
-435.928,309.607,847.424,-4.431,-2.719,0.138
-426.421,302.219,848.732,-6.038,-3.157,-0.129
-418.695,294.337,853.321,-7.149,-3.377,-0.205
-415.427,284.709,855.888,-7.825,-3.685,-0.138
-407.712,278.522,857.462,-7.738,-3.903,-0.205
-403.300,275.736,860.301,-7.712,-3.963,-0.138
-407.120,265.554,864.275,-7.881,-4.009,0.041
-417.268,248.355,866.681,-8.292,-3.973,0.233
-429.315,225.306,868.579,-8.741,-3.995,0.375
-433.957,201.959,868.673,-7.755,-3.790,0.337
-428.000,191.000,865.000,-4.690,-3.220,0.280
-422.095,195.274,865.590,-0.882,-2.549,0.384
-424.126,210.036,866.447,2.138,-2.004,0.677
-425.484,230.484,866.700,4.082,-1.680,0.945
-423.245,244.261,874.166,4.255,-1.393,1.173
-414.689,240.237,874.539,3.471,-1.351,1.244
-402.421,242.241,870.512,4.087,-1.260,0.978
-395.756,257.054,871.043,5.962,-0.647,0.843
-396.652,268.072,870.950,7.609,-0.162,0.970
-401.449,283.914,872.693,8.307,0.125,1.046
-401.799,298.106,871.975,8.128,0.507,1.029
-404.302,304.311,869.219,7.475,0.786,0.820
-410.863,308.353,865.962,6.721,1.012,0.482
-417.308,307.236,860.074,5.880,1.142,0.316
-427.614,306.003,855.445,4.880,1.104,0.187
-434.000,306.000,853.000,3.710,0.910,0.070
-434.188,304.337,852.163,2.147,0.665,-0.040
-432.462,301.043,850.454,0.540,0.399,-0.243
-432.338,291.568,850.007,-1.018,-0.049,-0.290
-436.022,276.589,851.610,-2.506,-0.528,-0.295
-436.353,260.722,851.962,-3.252,-0.893,-0.395
-433.315,244.535,853.326,-3.126,-1.074,-0.516
-431.988,235.704,854.021,-2.205,-1.122,-0.559
-432.065,234.904,854.880,-0.317,-1.064,-0.557
-428.672,240.077,856.541,2.066,-0.780,-0.578
-419.745,256.181,859.194,4.102,-0.454,-0.426
-410.288,272.220,863.362,5.359,-0.213,-0.260
-402.589,287.279,865.666,5.750,-0.110,-0.177
-398.113,301.577,867.414,5.440,-0.036,-0.120
-398.268,307.552,866.600,4.606,0.079,0.031
-403.000,309.000,863.000,3.430,-0.000,0.140
-416.415,304.726,860.271,1.927,-0.128,0.017
-430.729,302.761,859.135,0.382,-0.189,-0.045
-434.404,301.358,858.066,-1.139,-0.278,-0.189
-432.634,293.341,854.875,-2.674,-0.469,-0.340
-427.749,288.890,851.953,-3.537,-0.719,-0.348
-425.025,286.339,850.765,-4.016,-0.865,-0.349
-428.273,286.237,849.916,-4.118,-0.992,-0.352
-429.969,291.559,848.142,-3.983,-1.173,-0.415
-430.690,296.277,848.226,-4.329,-1.453,-0.476
-432.112,297.394,851.618,-5.300,-1.862,-0.511
-434.666,291.783,849.996,-7.168,-2.310,-0.448
-435.925,285.243,847.123,-8.751,-2.851,-0.605
-432.802,276.042,850.538,-10.139,-3.354,-0.780
-429.478,256.793,857.068,-11.561,-3.686,-0.601
-424.000,239.000,863.000,-11.620,-3.920,-0.560
-416.828,221.931,865.690,-10.654,-3.822,-0.510
-413.757,205.521,867.670,-8.713,-3.563,-0.423
-416.157,201.832,867.420,-5.895,-3.303,-0.375
-418.449,205.678,866.814,-2.546,-2.751,-0.135
-413.289,220.458,868.626,0.752,-2.169,0.062
-408.312,242.356,870.309,2.910,-1.625,0.271
-408.121,251.213,870.957,3.962,-1.244,0.584
-412.463,252.015,869.143,3.947,-1.130,0.829
-419.119,249.973,868.213,3.821,-0.953,0.862
-420.445,246.624,865.495,4.641,-0.781,0.768
-418.861,249.952,862.715,6.164,-0.523,0.837
-417.407,260.969,865.048,7.567,-0.222,0.938
-418.562,276.635,864.320,8.132,-0.014,0.891
-418.792,285.829,864.270,7.886,0.070,0.928
-418.000,290.000,865.000,6.790,-0.000,1.050
-419.945,291.557,862.294,5.436,-0.061,1.003
-418.010,285.125,861.266,4.304,-0.126,0.829
-416.099,280.065,859.742,3.432,-0.168,0.639
-418.680,277.281,857.402,3.107,-0.298,0.486
-422.139,273.816,853.148,3.107,-0.491,0.385
-424.497,273.016,852.284,3.235,-0.674,0.360
-427.176,274.175,854.084,2.974,-0.853,0.503
-425.509,278.523,855.754,2.603,-1.034,0.564
-416.933,284.329,858.213,2.485,-1.182,0.497
-409.437,284.101,855.802,2.423,-1.208,0.489
-403.960,283.574,858.959,2.679,-1.394,0.507
-405.555,292.555,865.097,2.065,-1.473,0.615
-406.104,293.708,867.887,0.892,-1.497,0.599
-400.247,288.710,871.332,0.448,-1.516,0.479
-400.000,289.000,870.000,0.140,-1.120,0.490
-406.431,283.011,866.573,0.167,-0.797,0.494
-418.280,279.931,862.202,0.372,-0.658,0.451
-429.312,278.835,859.708,0.124,-0.617,0.307
-438.686,279.696,859.692,-0.535,-0.631,0.088
-439.639,290.021,858.481,-1.373,-0.656,-0.176
-430.722,292.647,859.139,-2.243,-0.800,-0.380
-421.230,292.143,857.784,-3.221,-0.841,-0.421
-411.528,292.369,855.121,-3.948,-0.962,-0.423
-409.375,282.928,855.304,-4.446,-1.212,-0.318
-412.264,270.486,859.680,-4.768,-1.371,-0.173
-412.719,258.778,864.472,-4.570,-1.394,-0.103
-408.525,248.571,866.739,-3.921,-1.235,-0.037
-405.782,240.858,868.110,-2.663,-0.955,0.000
-405.770,236.679,866.760,-0.462,-0.557,-0.087
-404.000,236.000,868.000,1.820,0.000,-0.070
-409.836,236.426,872.541,3.476,0.494,0.129
-414.014,244.206,872.911,5.047,0.955,0.019
-414.920,256.231,869.252,6.497,1.458,-0.230
-419.011,266.331,866.750,7.407,1.734,-0.313
-420.611,276.836,865.109,7.654,2.006,-0.365
-426.775,282.811,862.128,7.508,2.186,-0.339
-431.067,285.176,857.610,7.095,2.168,-0.356
-432.605,286.924,852.374,6.477,2.110,-0.480
-439.736,288.904,848.538,6.233,1.970,-0.560
-440.905,294.804,846.504,6.188,1.981,-0.517
-435.072,299.208,844.670,5.766,1.809,-0.474
-429.188,302.975,843.540,4.854,1.445,-0.505
-423.364,306.483,844.235,3.808,1.045,-0.464
-420.851,303.153,845.217,2.582,0.473,-0.325
-420.000,298.000,848.000,1.050,0.000,-0.210
-417.595,292.306,850.027,0.011,-0.434,-0.320
-412.130,282.133,849.586,-0.197,-0.670,-0.438
-406.397,274.452,852.140,0.097,-0.801,-0.332
-406.915,275.088,854.907,0.479,-1.033,-0.230
-410.594,278.014,854.473,0.840,-1.158,-0.061
-418.068,282.330,853.915,1.072,-1.296,0.087
-426.557,289.558,854.014,0.880,-1.405,0.066
-433.454,296.433,853.999,0.275,-1.463,0.006
-438.810,304.435,854.658,-0.807,-1.577,-0.062
-436.666,307.535,855.346,-2.293,-1.740,-0.071
-432.620,301.417,853.482,-3.978,-1.965,-0.075
-429.491,293.100,853.019,-5.256,-2.206,-0.056
-427.579,284.120,854.357,-5.891,-2.327,-0.108
-425.535,275.968,856.449,-6.070,-2.303,-0.310
-423.000,272.000,859.000,-5.460,-2.240,-0.420
-422.311,272.617,858.250,-4.600,-2.062,-0.478
-419.458,275.703,857.093,-3.776,-1.911,-0.548
-419.804,280.881,856.803,-3.021,-1.846,-0.567
-421.570,286.627,856.649,-3.102,-1.838,-0.538
-422.514,285.742,855.197,-3.778,-2.067,-0.453
-424.094,280.748,855.214,-4.237,-2.273,-0.432
-422.919,274.498,856.000,-3.621,-2.389,-0.570
-423.011,270.136,856.778,-2.384,-2.452,-0.569
-420.382,266.503,860.483,-1.807,-2.387,-0.484
-413.162,250.314,860.441,-1.492,-2.415,-0.544
-404.905,235.440,859.692,-0.697,-2.501,-0.565
-401.255,234.490,859.393,0.739,-2.489,-0.526
-404.091,234.976,859.613,2.645,-2.188,-0.229
-407.596,236.386,864.730,4.634,-1.856,0.104
-412.000,240.000,865.000,6.440,-1.680,0.210
-412.396,251.941,863.769,8.482,-1.264,0.220
-410.083,273.894,865.171,10.288,-0.893,0.181
-411.072,290.137,863.862,10.239,-0.781,0.325
-416.471,299.384,864.539,8.785,-0.791,0.262
-425.162,301.371,864.122,7.075,-0.853,-0.052
-429.396,294.092,859.813,6.355,-0.717,-0.349
-430.068,291.182,855.826,6.906,-0.391,-0.568
-430.983,297.411,856.727,7.026,0.036,-0.561
-429.817,304.442,859.842,6.481,0.423,-0.608
-423.854,311.493,859.040,5.485,0.652,-0.707
-412.907,315.806,859.779,4.101,0.726,-0.920
-405.509,313.249,860.613,2.736,0.654,-1.120
-405.478,310.065,856.366,1.435,0.505,-1.235
-408.600,304.979,852.556,0.335,0.227,-1.426
-413.000,299.000,849.000,-0.490,-0.140,-1.540
-417.213,297.050,845.195,-0.816,-0.392,-1.614
-424.198,297.550,845.659,-1.092,-0.568,-1.470
-431.696,298.415,845.465,-1.717,-0.790,-1.297
-428.563,297.492,844.824,-2.408,-1.065,-1.200
-417.754,300.946,846.326,-3.135,-1.383,-1.098
-411.043,305.927,845.761,-3.450,-1.674,-1.116
-411.287,311.642,847.260,-3.608,-1.987,-0.882
-418.344,320.522,850.749,-4.822,-2.352,-0.575
-424.570,322.548,855.377,-7.183,-2.712,-0.441
-424.478,317.571,861.711,-10.216,-3.091,-0.393
-422.983,301.149,863.463,-13.085,-3.386,-0.499
-421.068,276.385,867.074,-14.948,-3.568,-0.591
-421.262,252.836,870.361,-15.952,-3.516,-0.658
-419.182,230.960,871.446,-15.587,-3.151,-0.789
-412.000,216.000,875.000,-13.860,-2.660,-0.840
-409.144,207.659,870.236,-11.048,-2.064,-0.782
-407.898,207.819,864.952,-7.265,-1.347,-0.647
-411.767,217.224,865.505,-4.052,-0.658,-0.276
-422.791,229.876,862.867,-1.606,-0.220,0.123
-425.814,242.901,860.380,0.090,-0.003,0.378
-423.452,252.504,861.126,0.611,0.077,0.709
-420.746,253.961,859.803,0.707,0.068,0.917
-418.093,255.684,858.006,0.941,0.010,0.973
-417.295,257.231,858.826,1.648,-0.168,1.095
-416.282,248.497,858.820,2.219,-0.283,1.171
-419.081,242.066,859.580,2.847,-0.246,1.228
-418.491,243.006,861.908,4.335,-0.173,1.282
-412.179,249.805,863.005,5.917,0.005,1.365
-409.929,260.675,861.827,7.365,0.331,1.483
-410.000,272.000,861.000,8.610,0.560,1.540
-414.811,285.212,860.133,8.934,0.628,1.716
-420.641,294.644,859.665,8.310,0.558,1.843
-420.296,301.074,860.498,7.036,0.308,1.698
-419.512,296.414,858.142,5.435,0.123,1.530
-416.938,283.489,857.857,4.052,-0.101,1.445
-419.190,278.263,862.556,2.929,-0.311,1.377
-423.084,274.808,857.493,2.692,-0.349,1.170
-422.899,275.769,859.194,3.450,-0.231,0.983
-425.453,276.392,867.158,3.670,0.086,1.036
-426.728,277.228,863.133,3.723,0.200,1.022
-427.446,284.462,861.216,4.255,0.293,0.928
-429.016,286.273,858.733,4.225,0.509,0.894
-432.945,291.300,859.098,3.952,0.569,0.809
-428.756,299.260,854.117,3.972,0.643,0.672
-422.000,311.000,856.000,3.290,0.630,0.420
-415.464,321.519,853.931,2.082,0.398,0.282
-409.939,321.881,845.112,0.670,0.021,0.252
-421.680,321.870,846.093,-1.057,-0.588,0.081
-437.229,316.378,835.512,-2.480,-1.239,-0.089
-451.993,311.358,843.167,-3.941,-1.725,-0.288
-456.105,307.356,840.181,-5.344,-2.310,-0.463
-454.474,310.461,847.222,-6.598,-2.754,-0.806
-431.610,312.972,846.346,-7.383,-3.052,-1.236
-406.784,319.478,841.455,-7.978,-3.424,-1.442
-398.560,331.540,854.337,-8.921,-3.759,-1.528
-384.514,332.758,843.616,-9.865,-4.196,-1.568
-393.184,341.959,867.996,-11.833,-4.583,-1.628
-387.992,329.446,855.239,-14.533,-5.058,-1.620
-397.041,311.847,874.026,-17.702,-5.426,-1.870
-402.000,287.000,875.000,-19.950,-5.530,-2.030
-404.581,257.567,874.483,-21.127,-5.271,-2.131
-415.844,237.806,900.365,-21.353,-4.574,-2.316
-400.457,211.070,869.676,-19.530,-3.709,-2.327
-419.908,213.757,915.733,-17.472,-2.441,-2.615
-397.363,197.327,859.934,-14.288,-1.388,-2.659
-418.432,213.674,913.275,-11.923,-0.398,-2.964
-393.017,216.050,877.523,-9.735,0.237,-2.910
-378.190,223.316,870.955,-8.421,0.830,-2.957
-421.798,251.953,976.940,-8.312,1.619,-3.198
-118.113,70.323,272.472,-2.237,0.521,-0.867
