acc_l_x[mg],acc_l_y[mg],acc_l_z[mg],gyro_x[dps],gyro_y[dps],gyro_z[dps],acc_h_x[mg],acc_h_y[mg],acc_h_z[mg]
-911.584,-45.872,220.576,40.46,-26.81,9.03,-897.92,-7.808,187.392
-914.512,-47.824,221.552,39.97,-26.81,9.24,-897.92,-23.424,203.008
-915.488,-49.288,220.576,39.62,-27.02,9.45,-913.536,-7.808,187.392
-918.416,-52.216,225.456,39.34,-27.23,9.66,-874.496,-15.616,234.24
-923.296,-56.12,227.408,39.13,-27.58,9.94,-882.304,0.0,203.008
-930.616,-56.608,232.288,39.2,-27.79,10.5,-897.92,-7.808,226.432
-937.936,-58.072,235.704,39.2,-28.14,10.92,-929.152,-23.424,203.008
-946.72,-62.952,241.072,39.34,-28.49,11.06,-944.768,-23.424,234.24
-955.504,-63.928,246.44,39.76,-28.91,11.06,-921.344,-39.04,257.664
-957.456,-68.32,248.88,40.11,-29.61,11.34,-913.536,-31.232,234.24
-959.408,-70.76,259.616,40.32,-30.1,11.34,-936.96,-23.424,249.856
-960.872,-75.152,262.544,40.46,-30.66,11.48,-929.152,-39.04,249.856
-958.92,-78.08,264.008,40.53,-31.15,11.83,-913.536,-46.848,249.856
-957.456,-79.056,261.568,40.6,-31.29,11.83,-921.344,-31.232,257.664
-961.848,-80.032,260.592,40.81,-31.36,11.97,-921.344,-31.232,257.664
-965.752,-79.544,258.152,40.81,-31.57,12.25,-944.768,-7.808,249.856
-968.68,-76.616,255.712,40.67,-32.06,12.39,-960.384,-23.424,218.624
-967.216,-70.272,255.224,40.46,-32.48,12.6,-913.536,-23.424,226.432
-978.44,-63.44,263.52,40.46,-32.2,12.11,-976.0,-23.424,257.664
-986.736,-52.216,262.056,40.46,-32.48,11.27,-968.192,-7.808,242.048
-988.688,-44.896,253.272,40.32,-32.76,10.78,-960.384,-15.616,234.24
-991.616,-38.552,252.784,40.04,-32.9,10.57,-960.384,23.424,218.624
-996.008,-31.232,248.392,39.9,-33.11,10.29,-983.808,23.424,234.24
-1001.864,-19.032,249.368,39.83,-33.04,9.94,-983.808,31.232,210.816
-1006.256,-12.688,254.248,39.48,-33.25,10.01,-1007.232,54.656,234.24
-1010.16,-1.464,259.128,39.13,-33.32,9.87,-983.808,46.848,242.048
-1013.576,5.856,268.888,38.57,-33.32,9.87,-991.616,31.232,226.432
-1014.064,12.688,269.376,38.22,-33.32,9.87,-976.0,54.656,249.856
-1016.016,15.128,269.376,37.59,-33.39,10.15,-976.0,70.272,273.28
-1013.576,20.496,270.352,36.89,-33.39,10.22,-991.616,62.464,249.856
-1015.04,25.864,278.648,36.4,-33.04,10.15,-976.0,62.464,249.856
-1021.384,29.768,283.04,35.7,-32.76,9.87,-1007.232,78.08,234.24
-1021.384,35.136,283.04,35.07,-33.04,9.59,-999.424,85.888,257.664
-1021.384,39.04,284.504,34.51,-32.9,9.03,-983.808,101.504,242.048
-1023.336,46.36,287.92,33.67,-32.76,8.47,-991.616,70.272,296.704
-1020.408,54.168,288.408,32.97,-32.83,7.91,-976.0,101.504,288.896
-1023.336,61.488,292.8,32.48,-32.41,7.0,-999.424,117.12,273.28
-1022.848,66.856,292.8,31.99,-32.2,6.65,-999.424,140.544,281.088
-1019.432,72.712,293.776,31.36,-32.13,6.37,-1022.848,124.928,265.472
-1017.48,77.104,291.336,30.8,-31.92,5.95,-983.808,132.736,296.704
-1014.064,80.52,290.36,30.38,-31.71,5.53,-1015.04,140.544,273.28
-1012.6,83.936,290.36,29.89,-31.22,5.04,-983.808,132.736,281.088
-1019.92,85.888,295.24,29.61,-31.01,4.48,-991.616,117.12,265.472
-1021.384,86.864,301.096,29.19,-30.94,3.78,-976.0,132.736,273.28
-1019.92,86.376,302.072,28.91,-31.08,3.22,-991.616,132.736,273.28
-1013.576,83.448,303.536,28.42,-31.08,2.8,-991.616,124.928,288.896
-1010.648,79.544,306.464,28.14,-30.94,2.38,-952.576,132.736,281.088
-1000.4,72.224,306.464,27.86,-31.08,2.17,-968.192,117.12,288.896
-994.544,64.904,306.952,27.58,-31.08,2.1,-976.0,132.736,296.704
-988.688,62.464,309.392,27.23,-31.01,1.75,-960.384,124.928,281.088
-985.76,58.56,313.784,27.09,-31.08,1.47,-936.96,85.888,281.088
-982.832,56.12,318.664,26.81,-31.08,0.91,-929.152,117.12,288.896
-984.296,55.632,320.616,26.6,-31.22,0.21,-952.576,85.888,296.704
-980.88,54.168,320.128,26.46,-31.64,-0.35,-960.384,117.12,281.088
-976.488,51.728,323.544,26.46,-31.92,-0.7,-936.96,109.312,296.704
-971.12,50.752,329.888,26.32,-32.48,-1.05,-936.96,132.736,296.704
-969.656,47.824,332.816,26.18,-32.97,-1.05,-968.192,93.696,312.32
-968.192,46.848,341.6,25.83,-33.32,-1.26,-936.96,85.888,343.552
-966.728,50.752,343.064,25.76,-33.53,-1.96,-952.576,109.312,320.128
-967.704,53.68,341.112,25.62,-33.95,-2.52,-952.576,101.504,335.744
-965.752,57.096,343.064,25.41,-34.3,-3.01,-921.344,85.888,343.552
-963.312,57.584,341.112,25.13,-34.65,-3.5,-936.96,109.312,327.936
-959.408,61.0,337.208,24.85,-35.0,-3.99,-921.344,132.736,320.128
-958.432,61.0,338.672,24.43,-35.35,-4.34,-944.768,124.928,335.744
-955.016,62.952,339.16,23.87,-35.91,-4.55,-944.768,109.312,296.704
-952.088,61.976,339.16,23.24,-36.47,-4.69,-913.536,109.312,335.744
-949.648,59.536,339.16,22.47,-36.96,-4.9,-913.536,85.888,335.744
-940.376,58.56,340.136,21.84,-37.31,-4.97,-905.728,124.928,312.32
-940.864,58.072,345.504,21.07,-37.73,-5.39,-921.344,93.696,312.32
-941.352,61.0,350.384,20.3,-38.22,-5.81,-905.728,132.736,335.744
-937.448,64.416,352.336,19.39,-38.78,-6.3,-913.536,124.928,335.744
-937.936,67.344,356.728,18.48,-39.13,-6.65,-921.344,140.544,327.936
-937.448,70.272,359.656,17.5,-39.55,-6.79,-921.344,132.736,351.36
-937.448,74.664,364.048,16.38,-39.76,-7.42,-905.728,132.736,343.552
-941.352,76.616,365.024,15.33,-39.9,-7.84,-890.112,124.928,359.168
-941.352,77.592,368.44,14.14,-40.32,-8.19,-913.536,124.928,320.128
-941.84,78.568,367.952,13.09,-40.32,-8.75,-913.536,124.928,359.168
-943.792,77.592,364.536,12.11,-40.32,-9.59,-913.536,132.736,335.744
-947.208,75.152,360.144,11.27,-40.11,-10.29,-921.344,109.312,351.36
-955.992,69.784,361.12,10.78,-39.97,-11.2,-929.152,117.12,351.36
-966.24,65.88,359.656,10.29,-40.18,-11.83,-929.152,117.12,335.744
-980.88,57.096,364.048,9.87,-40.25,-12.32,-936.96,117.12,335.744
-994.056,51.728,367.952,9.73,-40.46,-12.6,-952.576,93.696,351.36
-1005.768,45.872,372.344,9.66,-40.6,-12.81,-983.808,109.312,351.36
-1013.576,43.92,374.784,9.73,-40.74,-13.16,-999.424,117.12,382.592
-1024.312,44.896,381.128,9.87,-40.88,-13.51,-1015.04,93.696,382.592
-1032.608,48.312,384.544,10.15,-40.67,-13.79,-1007.232,85.888,366.976
-1037.976,48.312,386.984,10.57,-40.88,-14.28,-1015.04,78.08,366.976
-1032.608,51.24,379.176,10.92,-40.95,-14.49,-991.616,93.696,359.168
-996.008,56.608,340.624,11.27,-40.6,-14.84,-960.384,93.696,320.128
-1018.456,58.072,364.536,11.48,-39.27,-15.05,-1007.232,109.312,359.168
-1070.672,60.024,397.72,11.83,-39.2,-14.98,-1054.08,101.504,382.592
-1103.368,61.488,397.72,12.04,-40.18,-14.77,-1077.504,117.12,374.784
-1110.2,64.416,382.104,11.97,-41.23,-14.63,-1069.696,140.544,366.976
-1105.32,65.88,368.44,11.9,-41.72,-14.91,-1061.888,101.504,335.744
-1098.0,72.224,355.264,12.11,-41.86,-15.4,-1085.312,140.544,351.36
-1099.952,85.4,347.456,12.39,-41.65,-15.75,-1077.504,148.352,327.936
-1098.0,97.112,345.992,12.53,-41.37,-16.03,-1077.504,140.544,335.744
-1091.656,110.776,346.48,12.53,-41.44,-15.96,-1100.928,148.352,320.128
-1092.144,122.488,344.528,12.18,-41.23,-15.68,-1054.08,179.584,335.744
-1089.216,131.272,349.408,11.41,-41.02,-15.47,-1046.272,187.392,320.128
-1087.264,140.056,351.848,10.85,-40.81,-15.26,-1077.504,179.584,343.552
-1091.168,143.472,357.216,10.29,-40.53,-15.33,-1093.12,187.392,351.36
-1086.288,145.912,359.656,9.59,-40.74,-15.19,-1061.888,171.776,351.36
-1077.992,144.448,361.12,9.03,-40.74,-14.84,-1054.08,179.584,351.36
-1075.064,137.128,367.464,8.47,-40.46,-14.98,-1046.272,171.776,335.744
-1075.064,132.248,371.368,8.05,-40.25,-15.47,-1046.272,163.968,359.168
-1075.552,124.44,369.904,7.77,-40.25,-15.82,-1046.272,187.392,351.36
-1074.088,117.12,372.832,7.63,-39.9,-15.96,-1046.272,163.968,359.168
-1075.064,105.408,374.784,7.56,-39.62,-16.03,-1061.888,171.776,351.36
-1072.136,96.136,375.272,7.7,-39.41,-15.61,-1046.272,163.968,359.168
-1071.648,84.424,380.64,7.84,-38.99,-14.98,-1022.848,124.928,390.4
-1073.6,81.496,391.864,8.12,-38.57,-14.77,-1038.464,140.544,390.4
-1076.04,83.448,396.256,8.47,-38.22,-15.12,-1046.272,140.544,413.824
-1073.112,85.4,399.672,8.89,-38.08,-15.47,-1038.464,148.352,390.4
-1064.816,85.4,403.088,9.1,-37.94,-15.54,-1030.656,132.736,374.784
-1060.424,86.864,407.48,9.17,-37.66,-15.54,-1038.464,140.544,398.208
-1059.448,89.304,415.288,9.1,-37.31,-15.61,-1030.656,156.16,406.016
-1055.056,90.28,424.56,8.82,-37.1,-15.61,-1015.04,156.16,413.824
-1055.056,91.744,431.392,8.4,-37.03,-15.47,-1038.464,140.544,437.248
-1052.616,90.768,438.712,7.7,-37.03,-15.47,-1046.272,124.928,437.248
-1048.712,84.912,446.032,7.14,-37.17,-15.4,-983.808,140.544,429.44
-1045.296,78.568,449.448,6.58,-37.24,-15.4,-1015.04,124.928,421.632
-1042.856,73.688,450.424,6.02,-37.17,-15.4,-1030.656,132.736,429.44
-1041.392,63.44,452.864,5.74,-37.17,-15.47,-1022.848,117.12,437.248
-1041.88,53.192,451.4,5.39,-37.38,-15.75,-1046.272,93.696,437.248
-1038.464,43.92,449.448,5.04,-37.52,-16.03,-1015.04,93.696,445.056
-1040.416,34.648,450.424,4.48,-37.38,-16.45,-1015.04,93.696,445.056
-1039.928,25.864,450.424,3.92,-37.94,-16.87,-1030.656,85.888,437.248
-1036.024,22.936,446.032,3.57,-38.36,-17.15,-999.424,54.656,445.056
-1030.168,20.984,445.056,3.29,-38.5,-17.36,-1007.232,70.272,437.248
-1027.728,17.568,444.08,3.08,-38.71,-17.5,-999.424,70.272,429.44
-1020.408,16.104,434.808,3.15,-39.34,-17.57,-1015.04,54.656,429.44
-1015.04,15.128,430.904,2.94,-39.62,-17.78,-1007.232,62.464,413.824
-1013.576,14.64,431.88,2.66,-39.76,-18.48,-991.616,54.656,413.824
-1012.112,13.176,430.416,2.17,-40.11,-19.18,-968.192,70.272,398.208
-1009.184,10.736,424.56,1.47,-40.46,-19.67,-999.424,78.08,406.016
-1005.28,6.344,420.168,0.84,-40.53,-20.09,-991.616,54.656,406.016
-1001.376,0.488,414.312,0.35,-40.74,-20.44,-968.192,39.04,390.4
-994.056,0.0,403.576,-0.07,-41.09,-20.72,-983.808,46.848,390.4
-988.2,0.488,395.28,-0.56,-41.09,-21.21,-960.384,23.424,374.784
-986.248,3.904,390.888,-1.26,-41.16,-21.35,-952.576,46.848,366.976
-980.392,3.904,387.96,-1.96,-41.23,-21.28,-952.576,62.464,359.168
-978.44,7.32,384.544,-2.73,-41.16,-21.35,-929.152,93.696,366.976
-976.488,8.296,381.616,-3.5,-41.16,-21.49,-936.96,78.08,359.168
-972.096,9.272,380.64,-4.06,-41.09,-21.35,-952.576,62.464,374.784
-968.68,16.592,382.592,-4.62,-41.02,-21.49,-936.96,78.08,366.976
-965.752,20.008,382.104,-5.25,-41.02,-21.7,-944.768,54.656,374.784
-960.872,22.936,382.104,-5.67,-41.02,-22.12,-905.728,70.272,343.552
-956.968,24.4,384.544,-6.3,-41.02,-22.47,-929.152,101.504,382.592
-952.576,24.888,386.984,-6.93,-41.02,-22.61,-929.152,85.888,359.168
-950.136,23.424,386.984,-7.7,-40.95,-22.68,-905.728,93.696,382.592
-949.648,23.424,391.864,-8.4,-40.88,-22.68,-905.728,85.888,351.36
-949.16,24.888,390.4,-8.89,-40.67,-22.54,-913.536,101.504,366.976
-948.672,21.96,392.84,-9.17,-40.6,-22.47,-913.536,85.888,366.976
-947.696,22.448,392.84,-9.38,-40.46,-22.33,-936.96,70.272,374.784
-949.16,20.984,395.28,-9.24,-40.18,-22.47,-936.96,93.696,390.4
-950.136,17.08,401.136,-9.1,-39.76,-22.68,-929.152,62.464,366.976
-949.648,8.784,401.624,-9.03,-39.55,-22.68,-913.536,54.656,390.4
-945.256,1.464,398.208,-8.75,-39.55,-22.54,-905.728,39.04,398.208
-942.816,-3.416,394.792,-8.54,-39.27,-22.26,-897.92,46.848,390.4
-941.84,-12.688,393.816,-8.19,-38.92,-21.98,-913.536,54.656,382.592
-943.792,-15.616,392.352,-7.56,-38.64,-21.77,-921.344,39.04,374.784
-944.768,-15.128,388.936,-6.93,-38.22,-21.35,-890.112,46.848,351.36
-943.304,-12.2,389.424,-6.16,-37.94,-20.93,-921.344,46.848,359.168
-943.304,-5.856,392.352,-5.39,-37.52,-20.51,-905.728,46.848,390.4
-942.816,2.44,396.256,-4.83,-36.96,-20.3,-890.112,39.04,351.36
-941.352,7.808,401.136,-4.06,-36.47,-20.02,-882.304,54.656,390.4
-939.4,12.2,402.112,-3.5,-36.12,-19.81,-905.728,62.464,390.4
-936.472,14.64,399.184,-2.8,-35.63,-19.39,-913.536,31.232,359.168
-938.424,13.176,393.328,-2.31,-35.28,-19.11,-921.344,54.656,366.976
-940.864,8.784,385.032,-1.89,-34.86,-18.69,-929.152,62.464,374.784
-945.256,4.88,376.248,-1.47,-34.65,-18.06,-929.152,23.424,335.744
-949.648,-2.44,372.832,-1.33,-34.37,-17.36,-905.728,39.04,351.36
-949.648,-14.152,362.096,-1.12,-34.16,-16.66,-936.96,31.232,366.976
-960.384,-16.104,370.88,-0.63,-33.81,-16.03,-929.152,54.656,359.168
-955.992,-12.2,369.416,-0.42,-34.23,-15.19,-929.152,39.04,343.552
-959.408,-0.976,377.224,-0.28,-33.74,-14.21,-952.576,54.656,374.784
-963.312,3.416,376.736,-0.77,-33.46,-13.58,-960.384,46.848,343.552
-956.968,6.832,371.368,-0.84,-33.11,-12.74,-905.728,31.232,359.168
-953.552,10.248,375.76,-0.63,-32.62,-12.04,-929.152,70.272,359.168
-955.504,16.592,384.056,-0.07,-32.06,-11.34,-929.152,70.272,359.168
-955.992,19.032,386.496,0.49,-31.57,-10.85,-921.344,78.08,366.976
-950.136,13.176,386.008,0.63,-31.08,-10.5,-929.152,54.656,366.976
-946.232,10.248,384.544,0.56,-30.59,-10.5,-929.152,78.08,374.784
-944.768,3.416,386.984,0.42,-30.1,-10.29,-936.96,70.272,374.784
-942.816,-1.464,386.008,0.28,-29.61,-10.01,-913.536,39.04,359.168
-945.744,-5.368,386.008,0.28,-29.05,-9.52,-913.536,31.232,351.36
-948.672,-9.272,383.08,0.21,-28.63,-9.1,-905.728,39.04,359.168
-950.624,-14.152,377.712,0.21,-28.14,-8.68,-905.728,46.848,382.592
-952.088,-17.568,372.344,0.28,-27.51,-8.12,-905.728,39.04,374.784
-954.04,-21.472,373.808,0.14,-26.88,-7.56,-905.728,23.424,351.36
-955.504,-21.472,376.736,0.21,-26.04,-7.14,-921.344,7.808,366.976
-956.48,-23.424,377.712,0.35,-25.48,-6.51,-921.344,15.616,366.976
-955.992,-21.472,378.688,0.56,-24.85,-6.02,-913.536,23.424,359.168
-955.992,-20.984,382.592,0.77,-24.01,-5.67,-960.384,0.0,390.4
-955.992,-17.568,385.52,0.98,-23.31,-5.53,-929.152,15.616,398.208
-957.456,-16.592,389.912,1.12,-22.75,-5.6,-936.96,31.232,390.4
-958.92,-18.544,393.328,1.4,-22.05,-5.6,-936.96,7.808,390.4
-959.408,-23.912,392.84,1.68,-21.49,-5.46,-952.576,15.616,359.168
-958.92,-32.696,389.424,1.89,-21.0,-5.32,-960.384,7.808,390.4
-959.896,-36.112,386.496,2.1,-20.3,-5.04,-952.576,23.424,390.4
-961.36,-42.456,387.472,2.24,-19.74,-4.83,-952.576,7.808,382.592
-965.752,-45.384,391.376,2.38,-19.18,-4.62,-921.344,7.808,374.784
-964.776,-45.384,393.816,2.66,-18.62,-4.41,-936.96,0.0,374.784
-962.824,-47.824,393.816,3.01,-18.06,-4.2,-936.96,-15.616,374.784
-957.944,-48.312,391.864,3.29,-17.43,-3.99,-929.152,-7.808,374.784
-955.992,-50.264,389.912,3.43,-16.8,-3.5,-936.96,31.232,390.4
-954.528,-54.168,391.376,3.78,-16.17,-2.94,-913.536,0.0,359.168
-952.576,-56.12,392.352,4.2,-15.61,-2.1,-936.96,0.0,382.592
-956.48,-54.168,397.232,4.69,-14.91,-1.75,-929.152,15.616,398.208
-961.36,-47.336,408.456,5.11,-14.28,-2.17,-952.576,7.808,398.208
-960.872,-42.456,420.656,5.25,-13.72,-2.45,-936.96,23.424,413.824
-957.456,-38.064,428.464,5.32,-13.3,-2.66,-913.536,15.616,413.824
-952.576,-36.6,438.224,5.32,-12.95,-2.59,-952.576,0.0,421.632
-950.136,-36.6,447.984,5.25,-12.6,-2.52,-929.152,0.0,437.248
-947.696,-37.576,457.256,4.97,-12.18,-2.17,-921.344,23.424,452.864
-946.72,-40.016,464.088,4.76,-11.69,-1.96,-913.536,0.0,445.056
-946.72,-42.456,466.528,4.62,-11.41,-1.82,-913.536,23.424,460.672
-948.672,-46.848,472.872,4.2,-10.92,-1.54,-905.728,0.0,452.864
-952.088,-50.752,478.24,3.92,-10.78,-1.47,-929.152,0.0,460.672
-952.088,-52.704,485.072,3.71,-10.57,-1.33,-960.384,-7.808,460.672
-951.6,-54.656,487.024,3.43,-10.15,-1.12,-936.96,15.616,460.672
-950.136,-55.632,489.464,3.22,-10.01,-0.98,-913.536,-15.616,476.288
-948.184,-58.072,493.368,3.15,-9.66,-0.84,-905.728,7.808,499.712
-948.672,-59.536,496.296,3.08,-9.45,-0.56,-921.344,15.616,491.904
-945.256,-61.0,498.248,3.15,-9.24,-0.28,-905.728,-23.424,491.904
-940.376,-61.488,499.712,3.15,-8.96,0.0,-929.152,0.0,484.096
-938.424,-63.928,502.64,3.15,-8.61,0.28,-913.536,7.808,491.904
-937.936,-63.44,508.496,3.08,-8.47,0.42,-905.728,-15.616,507.52
-935.984,-63.44,512.4,3.29,-8.4,0.49,-905.728,-7.808,499.712
-932.08,-62.952,515.328,3.36,-8.05,0.56,-897.92,0.0,491.904
-930.128,-64.904,517.28,3.36,-7.77,0.77,-929.152,7.808,491.904
-927.688,-66.856,518.256,3.36,-7.63,0.91,-905.728,7.808,484.096
-928.664,-69.784,520.696,3.36,-7.42,0.98,-929.152,-15.616,499.712
-928.664,-72.224,522.648,3.29,-7.21,1.19,-905.728,-7.808,499.712
-929.152,-73.2,523.624,3.15,-7.21,1.33,-890.112,-54.656,491.904
-929.64,-76.128,524.112,3.01,-7.21,1.61,-882.304,-7.808,491.904
-933.056,-80.032,525.576,2.8,-7.21,1.89,-913.536,-54.656,507.52
-932.568,-82.472,525.088,2.59,-7.28,2.17,-929.152,-31.232,499.712
-931.592,-85.888,525.088,2.59,-7.35,2.52,-897.92,-31.232,523.136
-930.616,-89.304,520.696,2.31,-7.28,2.8,-913.536,-15.616,523.136
-931.104,-89.304,519.232,1.96,-7.28,3.08,-929.152,-39.04,491.904
-934.032,-88.816,517.28,1.54,-7.14,3.22,-913.536,-46.848,499.712
-938.912,-84.424,521.184,1.33,-7.07,3.5,-921.344,-31.232,507.52
-938.424,-79.544,524.112,1.05,-7.14,3.64,-913.536,-31.232,484.096
-935.008,-75.64,522.648,0.7,-6.86,3.85,-921.344,-15.616,507.52
-928.664,-74.664,524.112,0.35,-6.51,4.06,-882.304,-23.424,507.52
-924.76,-74.664,530.456,-0.07,-6.09,4.27,-905.728,-39.04,499.712
-925.248,-77.592,534.36,-0.56,-5.74,4.34,-921.344,-23.424,499.712
-925.736,-80.032,537.776,-1.26,-5.46,4.41,-897.92,-23.424,523.136
-925.736,-84.424,540.216,-1.82,-5.32,4.34,-897.92,-31.232,538.752
-920.368,-85.4,539.728,-2.52,-5.25,4.34,-882.304,-39.04,515.328
-915.488,-87.352,542.656,-3.15,-4.83,4.2,-913.536,-31.232,530.944
-915.0,-86.376,543.144,-3.85,-4.34,3.99,-890.112,-31.232,530.944
-915.976,-85.888,545.584,-4.48,-4.06,3.78,-866.688,-7.808,530.944
-915.488,-86.864,548.512,-5.11,-3.85,3.71,-874.496,-31.232,538.752
-916.464,-85.4,550.952,-5.74,-3.78,3.78,-897.92,-23.424,538.752
-917.44,-86.376,552.904,-6.44,-3.64,3.71,-874.496,-46.848,569.984
-918.904,-85.888,555.832,-7.07,-3.36,3.5,-913.536,-39.04,546.56
-919.88,-85.888,559.736,-7.7,-3.29,3.36,-858.88,-23.424,530.944
-919.88,-86.376,560.712,-8.05,-3.08,3.08,-866.688,-15.616,530.944
-918.416,-88.328,562.664,-8.68,-2.87,2.87,-913.536,-46.848,554.368
-918.416,-91.256,564.128,-9.1,-2.73,2.73,-882.304,-54.656,562.176
-916.952,-93.696,567.544,-9.45,-2.66,2.66,-913.536,-62.464,569.984
-919.88,-99.064,569.496,-9.87,-2.52,2.45,-874.496,-62.464,530.944
-921.832,-101.016,570.472,-10.15,-2.45,2.17,-905.728,-62.464,562.176
-921.832,-104.92,571.936,-10.43,-2.24,2.1,-890.112,-46.848,538.752
-920.368,-106.872,572.912,-10.57,-2.24,1.82,-890.112,-70.272,569.984
-919.88,-107.848,573.4,-10.71,-2.24,1.68,-882.304,-46.848,562.176
-920.856,-111.264,572.424,-10.78,-2.17,1.61,-882.304,-54.656,562.176
-922.32,-116.144,569.984,-10.78,-2.1,1.82,-905.728,-62.464,523.136
-922.32,-119.072,560.224,-10.57,-2.17,2.03,-897.92,-70.272,554.368
-925.248,-117.608,552.416,-10.36,-2.24,2.03,-913.536,-54.656,538.752
-927.688,-113.704,546.56,-10.29,-2.24,1.89,-882.304,-46.848,530.944
-929.64,-110.288,545.584,-10.15,-2.52,1.82,-905.728,-62.464,538.752
-929.64,-105.408,545.584,-10.15,-2.66,1.75,-890.112,-31.232,546.56
-930.128,-101.992,543.632,-10.22,-2.8,1.68,-905.728,-46.848,523.136
-928.664,-96.624,539.24,-10.36,-2.94,1.68,-913.536,-46.848,507.52
-924.272,-93.696,535.824,-10.57,-3.08,1.82,-905.728,-39.04,546.56
-924.76,-90.28,535.336,-10.71,-3.01,2.1,-890.112,-23.424,523.136
-923.296,-84.912,538.264,-10.92,-3.01,2.38,-882.304,-23.424,523.136
-920.368,-77.104,537.288,-11.27,-2.94,2.45,-874.496,-7.808,515.328
-914.512,-73.688,535.824,-11.76,-2.94,2.66,-890.112,-15.616,530.944
-912.072,-67.344,536.8,-12.04,-2.8,2.73,-890.112,-15.616,515.328
-909.632,-65.392,536.8,-12.39,-2.73,2.87,-882.304,-7.808,507.52
-907.68,-62.952,540.216,-12.81,-2.52,3.01,-890.112,-7.808,507.52
-907.192,-61.488,540.216,-13.09,-2.31,3.15,-874.496,-23.424,507.52
-905.24,-64.416,545.096,-13.51,-2.17,3.29,-866.688,-7.808,530.944
-903.776,-64.416,544.608,-13.86,-2.17,3.36,-882.304,0.0,507.52
-902.312,-64.904,545.584,-14.14,-1.96,3.5,-882.304,-15.616,530.944
-903.288,-69.784,546.072,-14.35,-1.89,3.64,-882.304,-23.424,546.56
-903.288,-70.272,544.608,-14.7,-1.75,3.71,-874.496,-31.232,530.944
-901.824,-71.736,546.56,-14.77,-1.68,3.92,-905.728,-23.424,523.136
-901.824,-72.224,546.56,-14.91,-1.54,3.92,-874.496,-23.424,530.944
-901.336,-75.64,549.0,-14.91,-1.61,3.99,-866.688,-15.616,523.136
-900.848,-75.64,551.44,-14.98,-1.4,4.06,-858.88,-39.04,546.56
-898.408,-78.568,553.88,-14.84,-1.47,4.13,-897.92,-23.424,546.56
-895.968,-78.08,552.416,-14.7,-1.4,4.13,-858.88,-39.04,523.136
-896.456,-79.056,551.44,-14.63,-1.33,4.27,-874.496,0.0,554.368
-895.968,-78.08,554.368,-14.63,-1.26,4.34,-858.88,-23.424,538.752
-896.944,-77.104,554.856,-14.56,-1.19,4.41,-874.496,-23.424,538.752
-897.432,-77.104,557.296,-14.42,-1.19,4.41,-866.688,0.0,538.752
-897.92,-77.104,555.832,-14.28,-1.12,4.48,-851.072,-23.424,554.368
-897.92,-77.592,555.832,-14.14,-0.98,4.62,-890.112,-23.424,546.56
-900.36,-83.936,557.296,-13.93,-0.84,4.76,-874.496,-31.232,515.328
-901.824,-87.352,560.712,-13.72,-0.98,4.9,-897.92,-39.04,538.752
-900.848,-93.696,564.616,-13.58,-0.91,5.04,-890.112,-70.272,546.56
-898.408,-98.576,565.592,-13.23,-0.84,5.18,-866.688,-54.656,538.752
-897.432,-101.504,565.592,-13.09,-0.7,5.18,-874.496,-62.464,538.752
-896.944,-104.92,568.032,-12.81,-0.63,5.18,-866.688,-39.04,546.56
-897.432,-105.408,569.008,-12.6,-0.56,5.11,-882.304,-31.232,562.176
-900.36,-106.384,568.52,-12.46,-0.35,5.11,-874.496,-93.696,562.176
-903.288,-104.92,569.008,-12.25,-0.28,4.97,-866.688,-46.848,585.6
-907.192,-102.48,566.568,-12.25,-0.28,5.04,-866.688,-54.656,530.944
-913.048,-102.48,562.176,-12.25,-0.21,5.04,-882.304,-54.656,554.368
-914.512,-101.504,558.76,-12.11,-0.28,4.97,-866.688,-54.656,546.56
-917.928,-104.92,552.416,-11.97,-0.21,5.04,-851.072,-46.848,530.944
-923.296,-104.92,546.072,-11.83,-0.28,5.04,-890.112,-46.848,538.752
-930.128,-105.408,540.704,-11.76,-0.28,5.04,-929.152,-70.272,538.752
-936.472,-106.384,533.384,-11.62,-0.35,5.18,-858.88,-70.272,491.904
-935.984,-106.384,523.136,-11.62,-0.56,5.11,-905.728,-39.04,530.944
-940.376,-107.36,518.256,-11.62,-0.56,5.25,-913.536,-70.272,499.712
-944.28,-105.896,513.376,-11.83,-0.63,5.32,-913.536,-62.464,499.712
-945.744,-105.896,512.888,-12.11,-0.63,5.53,-913.536,-62.464,499.712
-947.208,-105.408,511.424,-12.18,-0.49,5.67,-897.92,-62.464,499.712
-947.696,-103.456,509.96,-12.39,-0.35,5.88,-952.576,-46.848,491.904
-946.232,-101.504,512.888,-12.74,-0.28,5.95,-913.536,-46.848,499.712
-942.328,-104.432,515.816,-13.16,-0.28,6.23,-913.536,-54.656,515.328
-941.84,-109.312,519.232,-13.51,-0.07,6.23,-936.96,-70.272,484.096
-938.912,-113.216,519.72,-13.72,0.21,6.44,-897.92,-62.464,515.328
-937.448,-117.12,521.672,-14.0,0.42,6.44,-921.344,-85.888,499.712
-935.008,-121.512,523.136,-14.42,0.7,6.44,-913.536,-54.656,499.712
-934.032,-123.952,523.624,-14.63,0.91,6.37,-913.536,-70.272,523.136
-931.592,-128.832,523.624,-14.77,1.12,6.3,-890.112,-93.696,515.328
-929.152,-133.224,521.184,-14.77,1.33,6.37,-929.152,-93.696,499.712
-928.176,-135.176,523.136,-14.7,1.75,6.3,-890.112,-78.08,491.904
-926.712,-137.616,521.672,-14.49,2.1,6.16,-882.304,-70.272,523.136
-925.736,-138.592,521.672,-14.28,2.45,6.09,-905.728,-93.696,499.712
-925.736,-138.104,524.6,-13.79,2.66,6.02,-890.112,-93.696,507.52
-928.176,-138.592,523.136,-13.44,3.01,5.88,-882.304,-93.696,491.904
-928.664,-140.056,522.648,-13.3,3.15,5.67,-897.92,-93.696,507.52
-931.104,-144.448,524.112,-13.16,3.43,5.67,-897.92,-101.504,507.52
-934.52,-148.352,525.576,-13.02,3.64,5.53,-905.728,-93.696,499.712
-935.496,-150.304,527.528,-13.02,3.71,5.32,-897.92,-109.312,530.944
-934.52,-153.232,530.456,-13.09,3.85,5.18,-913.536,-101.504,546.56
-935.496,-153.232,533.872,-12.95,4.06,5.04,-905.728,-93.696,523.136
-932.08,-153.72,532.408,-12.88,4.13,4.97,-897.92,-93.696,499.712
-930.128,-155.672,537.288,-12.74,4.2,4.9,-929.152,-101.504,515.328
-929.64,-155.672,537.288,-12.46,4.27,4.76,-905.728,-101.504,530.944
-930.616,-157.624,541.68,-12.25,4.55,4.76,-897.92,-109.312,538.752
-928.176,-158.6,544.12,-12.18,4.62,4.69,-913.536,-117.12,554.368
-926.712,-164.944,544.608,-11.97,4.69,4.69,-905.728,-101.504,530.944
-926.224,-169.336,540.216,-11.69,4.83,4.76,-905.728,-101.504,538.752
-925.248,-171.776,536.8,-11.48,4.83,4.69,-882.304,-101.504,515.328
-922.808,-178.608,534.848,-11.34,4.9,4.62,-866.688,-140.544,499.712
-923.784,-181.536,530.944,-11.06,4.97,4.62,-913.536,-140.544,515.328
-921.832,-183.976,522.648,-10.71,5.04,4.62,-913.536,-140.544,491.904
-923.296,-184.464,515.816,-10.36,5.04,4.55,-874.496,-132.736,507.52
-920.856,-183.488,509.472,-10.08,4.97,4.55,-890.112,-140.544,484.096
-921.832,-185.44,504.592,-9.87,4.97,4.69,-882.304,-117.12,476.288
-921.344,-183.488,498.736,-9.66,4.97,4.55,-882.304,-109.312,484.096
-924.272,-182.512,496.296,-9.52,4.83,4.55,-897.92,-117.12,491.904
-925.736,-176.656,495.32,-9.59,4.9,4.69,-890.112,-148.352,476.288
-927.688,-173.728,494.832,-9.73,4.83,4.76,-882.304,-117.12,476.288
-928.176,-170.312,498.736,-9.94,4.76,4.83,-858.88,-109.312,484.096
-928.176,-166.896,496.784,-10.15,4.9,4.97,-890.112,-101.504,476.288
-927.2,-166.408,498.736,-10.43,4.83,5.04,-921.344,-109.312,476.288
-926.224,-163.968,499.712,-10.5,4.97,5.11,-882.304,-93.696,468.48
-924.272,-164.456,497.76,-10.78,5.04,4.97,-874.496,-124.928,491.904
-925.736,-165.432,493.368,-10.99,5.04,5.04,-905.728,-117.12,484.096
-925.736,-166.408,491.416,-11.27,5.18,4.97,-905.728,-101.504,468.48
-925.736,-168.848,489.952,-11.62,5.32,4.83,-905.728,-124.928,468.48
-926.224,-171.288,489.952,-11.9,5.39,4.83,-897.92,-101.504,460.672
-925.248,-174.704,489.464,-12.04,5.53,4.69,-897.92,-109.312,468.48
-923.296,-176.656,488.0,-12.04,5.74,4.48,-897.92,-140.544,460.672
-919.392,-180.56,487.512,-11.97,5.74,4.34,-882.304,-140.544,484.096
-916.952,-184.464,486.536,-11.9,6.02,4.13,-874.496,-148.352,491.904
-914.024,-189.344,488.488,-11.69,6.23,3.85,-866.688,-117.12,452.864
-912.56,-192.272,489.464,-11.41,6.3,3.64,-890.112,-156.16,468.48
-911.584,-196.176,491.416,-11.13,6.3,3.36,-874.496,-132.736,484.096
-909.632,-198.616,491.904,-10.92,6.58,3.01,-866.688,-156.16,476.288
-908.656,-199.592,494.832,-10.57,6.51,2.73,-890.112,-156.16,476.288
-909.632,-203.008,495.32,-10.22,6.37,2.52,-874.496,-148.352,484.096
-908.656,-203.008,498.736,-10.01,6.58,2.24,-897.92,-148.352,476.288
-910.12,-205.936,498.248,-9.73,6.44,1.96,-890.112,-148.352,468.48
-907.192,-205.448,498.736,-9.52,6.3,1.61,-882.304,-171.776,491.904
-905.728,-205.448,498.736,-9.24,6.23,1.19,-882.304,-148.352,452.864
-904.752,-206.424,499.712,-8.82,6.09,0.91,-874.496,-124.928,499.712
-902.8,-204.472,501.176,-8.47,5.88,0.56,-874.496,-171.776,499.712
-902.312,-203.496,503.616,-8.12,5.74,0.07,-874.496,-163.968,468.48
-900.36,-201.056,501.664,-7.7,5.6,-0.28,-874.496,-156.16,476.288
-899.872,-199.592,499.224,-7.28,5.46,-0.63,-890.112,-156.16,507.52
-900.36,-199.104,496.784,-7.14,5.39,-0.91,-874.496,-132.736,507.52
-900.848,-198.128,498.248,-6.86,5.32,-1.26,-905.728,-140.544,491.904
-905.24,-196.176,498.248,-6.58,5.32,-1.61,-874.496,-132.736,507.52
-908.168,-192.76,498.248,-6.51,5.25,-1.89,-905.728,-140.544,484.096
-913.048,-190.32,498.248,-6.37,5.04,-2.17,-874.496,-140.544,499.712
-915.0,-186.904,495.808,-6.23,4.9,-2.66,-882.304,-132.736,484.096
-920.368,-181.048,495.32,-6.23,4.76,-3.01,-890.112,-124.928,468.48
-923.784,-178.12,493.856,-5.95,4.55,-3.29,-882.304,-148.352,499.712
-928.176,-172.752,489.952,-5.74,4.48,-3.43,-913.536,-109.312,468.48
-932.08,-169.336,487.512,-5.53,4.48,-3.43,-905.728,-132.736,476.288
-935.984,-165.432,485.072,-5.46,4.34,-3.64,-905.728,-148.352,460.672
-939.888,-161.528,482.144,-5.32,4.27,-3.92,-890.112,-109.312,460.672
-942.816,-157.624,479.704,-5.25,4.2,-4.06,-921.344,-109.312,452.864
-943.304,-154.208,477.752,-5.32,4.2,-4.13,-929.152,-101.504,484.096
-945.256,-150.792,474.824,-5.53,4.27,-4.27,-921.344,-93.696,445.056
-944.768,-147.864,472.384,-5.81,4.2,-4.34,-913.536,-93.696,468.48
-946.72,-145.424,470.92,-6.09,4.27,-4.48,-913.536,-85.888,468.48
-948.672,-143.96,475.8,-6.3,4.41,-4.41,-936.96,-70.272,452.864
-950.136,-139.568,473.848,-6.65,4.41,-4.55,-929.152,-78.08,452.864
-951.112,-136.64,476.288,-6.86,4.69,-4.69,-929.152,-101.504,468.48
-952.088,-132.736,473.36,-7.07,4.69,-4.69,-944.768,-62.464,468.48
-952.088,-132.736,473.36,-7.35,4.76,-4.76,-929.152,-78.08,452.864
-953.064,-132.248,470.92,-7.35,4.83,-4.76,-952.576,-117.12,445.056
-956.48,-133.712,471.896,-7.49,5.04,-4.76,-936.96,-85.888,484.096
-962.824,-135.664,476.288,-7.42,5.11,-4.83,-952.576,-70.272,452.864
-966.728,-140.544,481.168,-7.42,5.18,-4.83,-936.96,-85.888,476.288
-968.68,-143.472,486.536,-7.28,5.11,-4.97,-929.152,-101.504,468.48
-972.096,-148.84,487.512,-7.0,5.04,-5.11,-929.152,-101.504,484.096
-974.048,-152.256,489.952,-6.93,5.11,-5.18,-944.768,-117.12,491.904
-977.952,-155.184,491.416,-6.72,5.18,-5.32,-968.192,-109.312,491.904
-981.368,-157.136,493.856,-6.58,5.32,-5.67,-952.576,-101.504,476.288
-985.272,-158.112,491.416,-6.3,5.32,-5.95,-983.808,-93.696,476.288
-988.688,-156.16,491.904,-6.02,5.18,-6.16,-976.0,-109.312,476.288
-990.152,-157.624,492.88,-5.6,5.18,-6.23,-936.96,-109.312,484.096
-995.032,-158.112,494.832,-5.32,5.11,-6.37,-991.616,-124.928,484.096
-998.936,-157.136,497.272,-4.83,5.04,-6.44,-968.192,-109.312,499.712
-1001.864,-155.184,496.784,-4.34,4.97,-6.44,-968.192,-101.504,468.48
-1003.816,-155.184,499.712,-3.71,4.9,-6.51,-952.576,-101.504,491.904
-1004.792,-152.744,499.224,-3.08,4.69,-6.58,-991.616,-93.696,452.864
-1006.256,-150.304,501.176,-2.38,4.62,-6.65,-968.192,-124.928,499.712
-1009.184,-151.768,503.616,-1.82,4.83,-6.65,-976.0,-93.696,491.904
-1012.6,-150.792,506.056,-1.19,4.76,-7.0,-976.0,-85.888,484.096
-1015.528,-151.768,510.448,-0.98,4.9,-7.28,-1015.04,-101.504,499.712
-1014.552,-149.816,507.52,-0.77,4.97,-7.56,-999.424,-85.888,484.096
-1014.064,-148.84,506.056,-0.63,5.11,-7.77,-991.616,-46.848,515.328
-1015.528,-148.84,506.056,-0.35,5.11,-8.05,-991.616,-70.272,484.096
-1014.064,-147.376,501.664,0.0,5.25,-8.05,-1007.232,-109.312,476.288
-1015.528,-145.912,497.76,0.49,5.39,-8.05,-976.0,-85.888,476.288
-1016.016,-146.888,489.952,0.98,5.32,-7.98,-976.0,-85.888,460.672
-1016.016,-148.352,487.024,1.26,5.74,-7.84,-976.0,-85.888,460.672
-1023.336,-145.912,482.144,1.47,5.88,-7.56,-999.424,-101.504,445.056
-1027.24,-145.424,476.776,1.68,6.02,-7.7,-1015.04,-109.312,468.48
-1032.608,-139.08,472.384,1.89,6.09,-7.91,-976.0,-93.696,460.672
-1036.024,-135.176,471.408,1.82,6.3,-7.91,-1015.04,-78.08,468.48
-1038.952,-129.808,473.36,1.68,6.23,-7.77,-1015.04,-70.272,445.056
-1037.0,-126.392,471.896,1.61,6.16,-7.84,-1022.848,-62.464,452.864
-1037.488,-118.584,474.824,1.54,6.37,-8.19,-1007.232,-70.272,460.672
-1040.904,-115.168,475.312,1.54,6.58,-8.4,-1030.656,-62.464,437.248
-1038.464,-111.752,475.312,1.33,6.79,-8.61,-1007.232,-70.272,452.864
-1038.952,-114.192,471.408,1.05,7.0,-8.75,-1007.232,-46.848,460.672
-1037.976,-116.632,470.432,0.84,7.35,-8.89,-1015.04,-62.464,460.672
-1039.928,-118.096,471.896,0.63,7.77,-8.96,-1007.232,-78.08,468.48
-1038.952,-118.584,467.504,0.42,7.91,-9.17,-1022.848,-70.272,452.864
-1039.44,-120.048,465.552,0.21,8.33,-9.31,-999.424,-85.888,429.44
-1037.488,-120.536,461.16,0.0,8.61,-9.45,-1015.04,-62.464,452.864
-1035.048,-124.44,456.28,-0.07,8.89,-9.31,-999.424,-62.464,429.44
-1034.072,-128.832,456.28,-0.07,9.31,-9.17,-1022.848,-101.504,429.44
-1036.512,-130.784,458.72,0.0,9.59,-9.1,-1030.656,-54.656,445.056
-1040.416,-132.736,464.088,0.14,9.94,-9.24,-1007.232,-78.08,460.672
-1037.976,-135.176,467.016,0.35,10.15,-9.31,-1030.656,-78.08,468.48
-1036.024,-138.104,467.016,0.49,10.22,-9.45,-1015.04,-78.08,468.48
-1029.192,-140.544,469.456,0.63,10.57,-9.52,-1007.232,-93.696,437.248
-1028.704,-143.96,469.456,0.98,10.99,-9.73,-1007.232,-78.08,460.672
-1029.192,-142.008,467.016,1.4,11.27,-9.94,-999.424,-70.272,452.864
-1029.68,-142.496,467.016,1.82,11.69,-10.15,-999.424,-85.888,437.248
-1030.656,-143.96,465.552,2.38,11.83,-10.29,-999.424,-101.504,460.672
-1032.608,-144.448,466.04,2.73,12.04,-10.15,-1007.232,-101.504,460.672
-1032.12,-144.448,467.016,3.15,12.39,-10.22,-983.808,-93.696,421.632
-1032.608,-142.984,468.48,3.71,12.67,-10.5,-1007.232,-78.08,429.44
-1033.584,-140.544,469.944,4.2,12.81,-10.71,-1038.464,-109.312,468.48
-1031.632,-138.592,472.384,4.55,12.95,-10.71,-1007.232,-78.08,445.056
-1032.12,-135.664,470.92,4.9,13.16,-10.78,-968.192,-85.888,437.248
-1032.12,-132.248,473.848,5.18,13.23,-10.85,-1015.04,-62.464,476.288
-1033.584,-131.76,475.312,5.53,13.3,-10.92,-1007.232,-109.312,452.864
-1032.608,-128.344,471.896,5.81,13.44,-10.99,-1007.232,-62.464,460.672
-1036.512,-130.296,472.384,6.02,13.51,-11.2,-1022.848,-78.08,460.672
-1035.536,-129.32,473.36,6.3,13.44,-11.06,-999.424,-78.08,460.672
-1036.512,-133.224,472.384,6.51,13.51,-11.13,-1007.232,-62.464,452.864
-1037.0,-135.176,467.992,6.79,13.58,-11.2,-991.616,-93.696,452.864
-1036.024,-137.128,463.112,7.35,13.58,-11.27,-1007.232,-78.08,452.864
-1035.536,-140.056,456.768,7.63,13.79,-11.41,-991.616,-93.696,460.672
-1034.56,-140.056,451.4,8.05,13.86,-11.62,-999.424,-78.08,421.632
-1034.072,-140.056,443.104,8.4,13.86,-11.9,-999.424,-101.504,445.056
-1032.608,-139.08,437.248,8.68,14.14,-12.04,-999.424,-78.08,421.632
-1031.632,-137.128,434.32,8.89,14.35,-12.11,-999.424,-101.504,437.248
-1029.192,-133.712,428.952,9.1,14.49,-12.11,-999.424,-78.08,421.632
-1026.752,-128.344,423.096,9.1,14.63,-12.04,-1022.848,-93.696,421.632
-1027.24,-124.44,419.192,9.17,14.91,-12.11,-991.616,-70.272,429.44
-1023.824,-120.048,420.656,9.17,15.12,-12.11,-976.0,-62.464,374.784
-1018.456,-116.632,418.216,8.89,15.26,-11.97,-1015.04,-62.464,413.824
-1016.016,-115.656,418.704,8.75,15.61,-11.97,-991.616,-70.272,390.4
-1009.672,-115.168,418.216,8.47,15.75,-11.9,-999.424,-62.464,421.632
-1006.256,-117.12,413.824,8.26,16.1,-12.04,-999.424,-62.464,413.824
-1002.84,-118.096,413.336,8.05,16.52,-12.11,-983.808,-46.848,406.016
-996.008,-121.512,410.408,7.91,16.73,-12.25,-968.192,-70.272,390.4
-993.08,-125.904,410.408,7.7,17.15,-12.39,-952.576,-70.272,413.824
-987.224,-130.296,411.872,7.49,17.57,-12.39,-976.0,-70.272,382.592
-981.368,-133.712,411.384,7.42,17.85,-12.25,-968.192,-109.312,398.208
-979.904,-138.104,412.36,7.42,18.13,-12.32,-936.96,-70.272,382.592
-976.488,-140.056,412.36,7.63,18.62,-12.39,-952.576,-101.504,398.208
-974.536,-140.056,413.336,7.84,19.04,-12.6,-960.384,-93.696,413.824
-971.12,-144.448,414.312,7.98,19.32,-12.67,-929.152,-101.504,390.4
-967.704,-149.328,413.336,8.05,19.53,-12.81,-944.768,-93.696,390.4
-962.824,-150.792,416.264,8.33,19.95,-12.95,-936.96,-117.12,413.824
-962.336,-154.208,416.264,8.82,20.23,-13.16,-960.384,-117.12,382.592
-959.896,-151.28,415.776,9.1,20.44,-13.3,-913.536,-101.504,406.016
-958.432,-153.72,421.144,9.31,20.79,-13.51,-944.768,-109.312,390.4
-956.48,-157.136,425.048,9.45,20.86,-13.72,-929.152,-124.928,413.824
-953.064,-158.112,425.536,9.66,21.0,-13.79,-913.536,-109.312,398.208
-950.624,-159.576,425.536,9.8,21.14,-13.72,-952.576,-101.504,421.632
-947.208,-158.112,425.536,10.01,21.35,-13.79,-913.536,-109.312,413.824
-946.232,-156.16,426.024,10.15,21.42,-14.14,-913.536,-101.504,406.016
-942.328,-155.184,426.512,10.29,21.56,-14.28,-913.536,-93.696,421.632
-941.84,-152.256,429.44,10.57,21.7,-14.35,-929.152,-140.544,437.248
-936.472,-154.696,428.952,10.64,21.56,-14.28,-874.496,-85.888,429.44
-930.616,-155.672,430.904,10.92,21.63,-13.72,-905.728,-101.504,413.824
-926.712,-155.672,433.832,11.34,21.77,-13.3,-890.112,-101.504,413.824
-926.224,-152.256,428.464,11.76,21.56,-13.44,-905.728,-109.312,413.824
-925.736,-150.792,425.048,12.11,21.56,-13.79,-913.536,-101.504,406.016
-924.272,-147.864,425.536,12.67,21.49,-14.14,-897.92,-93.696,429.44
-922.808,-145.424,424.56,13.16,21.21,-14.49,-890.112,-93.696,390.4
-916.952,-143.472,422.608,13.37,21.0,-14.42,-890.112,-78.08,398.208
-912.56,-144.448,429.44,13.3,20.72,-14.56,-890.112,-93.696,413.824
-909.144,-142.496,427.0,13.3,20.72,-14.84,-866.688,-101.504,406.016
-904.752,-140.544,426.024,13.37,20.65,-15.12,-882.304,-85.888,398.208
-902.312,-134.688,423.584,13.37,20.44,-15.33,-890.112,-78.08,390.4
-898.896,-129.32,420.168,13.23,20.16,-15.4,-882.304,-62.464,413.824
-896.944,-124.44,415.776,13.02,19.95,-15.61,-858.88,-85.888,421.632
-898.896,-118.096,415.776,12.81,19.74,-15.82,-897.92,-70.272,413.824
-896.456,-111.752,415.288,12.74,19.39,-15.82,-858.88,-62.464,390.4
-893.528,-108.824,412.848,12.39,19.25,-15.96,-851.072,-39.04,390.4
-889.624,-105.896,408.456,11.9,19.04,-15.89,-866.688,-46.848,406.016
-883.768,-105.408,401.136,11.48,19.04,-15.82,-851.072,-54.656,382.592
-884.744,-102.968,397.72,10.92,18.76,-15.82,-866.688,-62.464,398.208
-885.72,-103.944,398.696,10.36,18.48,-15.82,-858.88,-54.656,366.976
-886.696,-104.432,398.208,9.8,18.27,-15.82,-874.496,-78.08,406.016
-884.256,-104.432,396.744,9.17,17.85,-15.89,-843.264,-62.464,374.784
-881.328,-104.432,400.648,8.75,17.43,-15.89,-843.264,-78.08,390.4
-878.888,-104.92,405.528,8.33,17.15,-16.03,-858.88,-46.848,366.976
-874.496,-107.848,405.04,7.98,16.8,-15.82,-851.072,-78.08,382.592
-872.544,-110.776,405.528,7.77,16.73,-15.82,-866.688,-39.04,374.784
-868.152,-110.776,405.04,7.7,16.38,-15.75,-812.032,-46.848,366.976
-868.152,-112.728,406.504,7.56,16.1,-15.68,-827.648,-31.232,390.4
-869.128,-116.144,405.04,7.42,15.89,-15.68,-851.072,-54.656,374.784
-870.104,-118.096,404.552,7.42,15.61,-15.68,-827.648,-46.848,390.4
-869.616,-120.048,404.552,7.56,15.33,-15.54,-843.264,-46.848,382.592
-870.104,-122.488,406.016,7.7,14.98,-15.61,-835.456,-62.464,421.632
-869.128,-124.928,406.504,8.05,14.63,-15.33,-812.032,-62.464,382.592
-867.176,-127.368,408.456,8.4,14.14,-15.05,-858.88,-78.08,413.824
-865.712,-130.784,412.848,8.61,13.79,-15.05,-827.648,-85.888,398.208
-865.224,-133.712,414.8,8.96,13.65,-14.98,-827.648,-78.08,374.784
-864.736,-130.296,419.192,9.24,13.37,-15.12,-843.264,-70.272,390.4
-861.808,-129.32,422.608,9.52,12.95,-14.91,-851.072,-101.504,398.208
-859.856,-131.272,420.656,9.8,12.6,-14.63,-827.648,-78.08,398.208
-858.392,-130.296,421.632,10.08,12.32,-14.49,-851.072,-70.272,437.248
-861.808,-129.32,426.024,10.43,12.11,-14.56,-819.84,-78.08,406.016
-858.392,-127.856,426.512,10.92,11.76,-14.77,-835.456,-62.464,413.824
-856.928,-127.368,425.048,11.48,11.55,-15.05,-843.264,-78.08,398.208
-851.56,-129.808,425.536,11.9,11.2,-15.19,-835.456,-85.888,398.208
-847.168,-134.2,427.976,12.46,10.99,-15.19,-835.456,-78.08,413.824
-843.752,-138.592,428.464,12.88,10.71,-15.05,-812.032,-101.504,421.632
-841.312,-145.424,425.048,13.3,10.57,-14.63,-812.032,-93.696,413.824
-840.824,-148.84,422.12,13.79,10.5,-14.56,-804.224,-93.696,390.4
-839.848,-146.888,419.192,14.49,10.36,-14.77,-796.416,-93.696,390.4
-839.36,-147.864,414.312,14.98,10.22,-15.05,-827.648,-85.888,406.016
-840.824,-142.984,412.36,15.4,10.08,-15.4,-804.224,-62.464,413.824
-841.8,-138.104,411.384,15.68,9.94,-15.4,-843.264,-109.312,398.208
-841.312,-133.224,407.48,15.82,9.66,-15.33,-796.416,-85.888,421.632
-840.336,-126.88,406.992,15.89,9.38,-15.33,-804.224,-93.696,374.784
-840.336,-122.976,406.504,15.89,9.17,-15.26,-835.456,-62.464,406.016
-841.8,-115.168,404.064,15.75,9.1,-15.05,-827.648,-54.656,398.208
-843.752,-112.24,408.456,15.4,8.96,-15.05,-804.224,-62.464,390.4
-842.288,-107.848,411.872,14.91,8.68,-15.05,-796.416,-70.272,374.784
-842.776,-104.432,411.384,14.42,8.54,-15.19,-812.032,-54.656,398.208
-840.824,-102.48,411.384,13.72,8.33,-15.4,-819.84,-23.424,398.208
-838.872,-102.48,413.336,13.02,8.12,-15.54,-812.032,-54.656,382.592
-835.944,-104.432,412.848,12.46,7.84,-15.54,-796.416,-62.464,421.632
-836.432,-107.848,412.848,11.83,7.7,-15.61,-804.224,-78.08,382.592
-834.48,-110.288,410.896,11.34,7.56,-15.68,-796.416,-54.656,406.016
-833.504,-112.24,408.944,10.85,7.42,-15.68,-796.416,-46.848,390.4
-831.064,-115.656,410.896,10.43,7.28,-15.61,-804.224,-70.272,406.016
-830.576,-119.072,413.336,10.15,7.14,-15.54,-819.84,-31.232,406.016
-829.6,-119.072,412.36,9.8,6.79,-15.33,-812.032,-62.464,382.592
-826.672,-118.096,413.824,9.45,6.65,-15.33,-812.032,-70.272,390.4
-827.16,-116.632,412.848,9.24,6.72,-15.47,-780.8,-54.656,382.592
-824.72,-111.752,410.408,8.96,6.51,-15.68,-796.416,-62.464,382.592
-823.744,-108.824,409.92,8.75,6.44,-15.96,-780.8,-62.464,406.016
-819.84,-103.944,410.896,8.33,6.23,-16.31,-796.416,-31.232,413.824
-817.888,-98.088,410.896,7.98,6.09,-16.45,-788.608,-62.464,406.016
-814.96,-96.136,408.944,7.42,5.88,-16.59,-788.608,-31.232,390.4
-810.568,-96.624,407.968,6.93,5.74,-16.66,-780.8,-31.232,398.208
-808.616,-96.136,406.992,6.65,5.67,-16.59,-812.032,-39.04,398.208
-807.152,-95.648,407.968,6.23,5.6,-16.66,-796.416,-46.848,366.976
-805.688,-98.088,406.016,5.81,5.53,-16.73,-780.8,-39.04,390.4
-806.664,-101.504,407.48,5.6,5.25,-16.8,-788.608,-70.272,406.016
-805.2,-104.92,408.456,5.18,5.25,-16.8,-765.184,-62.464,398.208
-804.712,-107.848,406.992,4.97,4.97,-17.08,-757.376,-39.04,390.4
-803.736,-112.728,405.528,4.76,4.83,-17.15,-788.608,-78.08,398.208
-802.272,-116.632,402.112,4.62,4.69,-17.22,-780.8,-78.08,390.4
-800.808,-117.608,398.208,4.48,4.41,-17.43,-772.992,-62.464,366.976
-801.784,-119.072,391.376,4.48,4.34,-17.43,-780.8,-39.04,374.784
-802.76,-121.024,389.424,4.55,4.27,-17.43,-765.184,-70.272,366.976
-804.224,-122.0,386.008,4.62,4.06,-17.36,-788.608,-54.656,374.784
-805.688,-122.976,384.056,4.9,3.78,-17.36,-796.416,-46.848,351.36
-807.64,-122.976,382.592,5.11,3.5,-17.22,-796.416,-54.656,351.36
-809.104,-121.512,378.688,5.32,3.29,-17.15,-780.8,-70.272,366.976
-811.544,-120.536,381.616,5.39,3.01,-17.22,-788.608,-85.888,343.552
-811.544,-120.536,375.272,5.6,2.8,-17.08,-788.608,-78.08,335.744
-812.032,-119.56,374.296,5.74,2.66,-17.01,-796.416,-85.888,351.36
-814.472,-120.048,375.76,6.02,2.45,-16.87,-765.184,-70.272,351.36
-813.496,-119.072,372.832,6.23,2.24,-16.8,-804.224,-78.08,366.976
-815.448,-120.048,371.368,6.44,2.1,-16.73,-780.8,-85.888,366.976
-817.4,-119.072,369.416,6.65,1.89,-16.52,-780.8,-109.312,351.36
-817.888,-121.512,366.488,7.0,1.82,-16.52,-796.416,-62.464,359.168
-816.424,-122.488,366.488,7.21,1.68,-16.24,-796.416,-78.08,335.744
-817.4,-124.44,366.0,7.42,1.61,-16.17,-788.608,-70.272,335.744
-815.448,-126.392,364.048,7.77,1.54,-16.03,-804.224,-70.272,351.36
-814.472,-127.368,362.584,7.91,1.68,-15.89,-788.608,-78.08,351.36
-813.984,-127.856,362.096,8.12,1.68,-15.68,-796.416,-85.888,335.744
-811.544,-128.344,361.608,8.33,1.68,-15.68,-796.416,-78.08,351.36
-810.08,-128.832,360.144,8.33,1.61,-15.47,-804.224,-54.656,327.936
-810.08,-126.392,359.168,8.4,1.89,-15.54,-796.416,-85.888,343.552
-809.592,-124.44,357.216,8.54,1.96,-15.47,-788.608,-70.272,351.36
-808.616,-123.952,354.288,8.61,2.1,-15.47,-780.8,-62.464,343.552
-809.104,-122.0,351.848,8.68,2.17,-15.47,-780.8,-46.848,335.744
-809.104,-118.584,349.896,8.75,2.31,-15.54,-796.416,-54.656,327.936
-810.568,-117.608,348.92,8.75,2.45,-15.4,-780.8,-70.272,327.936
-811.544,-118.096,345.992,8.54,2.52,-15.4,-780.8,-78.08,327.936
-812.52,-119.072,347.944,8.33,2.66,-15.4,-780.8,-54.656,335.744
-813.496,-118.584,349.896,8.12,2.8,-15.33,-788.608,-70.272,335.744
-815.448,-116.632,351.848,7.84,3.08,-15.33,-780.8,-78.08,335.744
-816.424,-115.168,355.264,7.56,3.15,-15.47,-772.992,-78.08,343.552
-817.888,-112.728,356.728,6.93,3.36,-15.4,-796.416,-46.848,351.36
-817.888,-110.776,359.656,6.51,3.29,-15.54,-804.224,-62.464,343.552
-819.352,-109.8,357.704,5.95,3.36,-15.54,-788.608,-70.272,320.128
-818.864,-109.312,357.704,5.53,3.36,-15.47,-788.608,-62.464,343.552
-820.328,-110.776,358.68,5.18,3.5,-15.47,-788.608,-46.848,366.976
-820.328,-110.288,357.704,4.9,3.43,-15.47,-780.8,-70.272,343.552
-822.28,-113.216,358.68,4.55,3.5,-15.47,-827.648,-46.848,327.936
-822.768,-119.072,360.144,4.27,3.43,-15.54,-788.608,-46.848,374.784
-823.744,-123.464,360.144,4.06,3.36,-15.47,-796.416,-70.272,335.744
-824.232,-127.856,363.072,3.99,3.43,-15.54,-788.608,-93.696,343.552
-826.184,-132.248,367.952,3.99,3.43,-15.47,-780.8,-70.272,374.784
-825.208,-135.176,365.024,4.06,3.29,-15.54,-788.608,-93.696,351.36
-824.72,-140.056,360.144,4.2,3.29,-15.47,-796.416,-78.08,359.168
-822.768,-143.96,362.096,4.27,3.22,-15.33,-812.032,-93.696,351.36
-826.672,-146.888,364.048,4.41,3.22,-15.33,-796.416,-117.12,343.552
-828.136,-150.304,365.024,4.41,3.36,-15.33,-788.608,-109.312,335.744
-827.648,-150.304,362.584,4.69,3.29,-15.4,-835.456,-101.504,351.36
-827.16,-147.864,361.608,5.04,3.15,-15.4,-796.416,-101.504,327.936
-827.16,-143.472,357.704,5.25,3.22,-15.33,-804.224,-70.272,327.936
-826.672,-140.544,357.704,5.53,3.29,-15.26,-812.032,-109.312,343.552
-828.624,-138.104,354.776,5.67,3.22,-15.26,-804.224,-85.888,320.128
-829.112,-134.688,350.384,5.67,3.36,-15.19,-804.224,-78.08,335.744
-830.576,-132.248,349.896,5.53,3.36,-15.12,-788.608,-62.464,343.552
-830.576,-132.736,349.896,5.46,3.43,-15.12,-796.416,-109.312,296.704
-831.064,-130.784,348.92,5.32,3.57,-15.12,-788.608,-78.08,327.936
-829.112,-129.808,347.456,5.11,3.71,-15.12,-804.224,-78.08,320.128
-829.112,-128.344,346.48,4.97,3.78,-15.12,-812.032,-46.848,320.128
-828.624,-126.88,345.504,4.76,3.85,-15.12,-812.032,-62.464,343.552
-827.16,-122.488,341.112,4.55,4.06,-14.98,-835.456,-70.272,327.936
-827.16,-121.024,339.648,4.06,4.2,-14.91,-812.032,-85.888,312.32
-829.112,-117.608,338.672,3.71,4.34,-14.84,-788.608,-78.08,312.32
-831.552,-117.12,341.112,3.36,4.62,-14.56,-796.416,-85.888,320.128
-833.016,-117.608,338.184,3.01,4.69,-14.42,-812.032,-54.656,304.512
-833.992,-120.536,337.696,2.73,4.83,-14.14,-780.8,-54.656,327.936
-833.992,-127.856,336.232,2.52,5.04,-14.0,-796.416,-78.08,320.128
-835.944,-132.248,333.792,2.38,5.18,-13.86,-827.648,-78.08,320.128
-837.896,-132.736,333.304,1.96,5.25,-13.86,-804.224,-101.504,320.128
-841.312,-130.784,333.792,1.75,5.18,-13.79,-827.648,-85.888,296.704
-842.288,-127.368,334.28,1.33,5.25,-13.58,-812.032,-70.272,320.128
-842.776,-127.368,333.792,1.19,5.25,-13.3,-819.84,-78.08,320.128
-843.264,-123.952,330.864,1.12,5.25,-13.16,-812.032,-54.656,320.128
-845.216,-121.512,334.28,0.91,5.25,-12.95,-819.84,-78.08,327.936
-845.216,-120.536,335.256,0.77,5.32,-12.67,-796.416,-78.08,320.128
-844.728,-119.56,334.28,0.56,5.32,-12.46,-804.224,-70.272,296.704
-845.216,-120.536,336.232,0.63,5.32,-12.25,-819.84,-70.272,327.936
-844.728,-120.536,336.72,0.56,5.39,-12.11,-812.032,-78.08,312.32
-845.216,-121.024,337.208,0.56,5.18,-12.04,-827.648,-78.08,312.32
-846.68,-120.048,337.208,0.56,5.18,-11.9,-827.648,-62.464,327.936
-848.632,-119.072,336.72,0.49,5.04,-11.69,-812.032,-70.272,320.128
-851.072,-120.048,336.232,0.49,4.97,-11.55,-804.224,-70.272,327.936
-854.488,-121.512,337.696,0.42,4.9,-11.27,-819.84,-85.888,327.936
-854.976,-122.488,337.696,0.49,4.9,-11.06,-858.88,-70.272,312.32
-857.904,-123.952,334.768,0.63,4.9,-10.85,-827.648,-78.08,327.936
-858.88,-125.416,332.816,0.77,4.69,-10.57,-827.648,-101.504,296.704
-860.832,-123.952,331.84,0.91,4.76,-10.29,-827.648,-70.272,320.128
-862.784,-124.928,330.376,1.33,4.62,-10.08,-835.456,-93.696,304.512
-864.736,-125.904,332.328,1.47,4.62,-9.8,-851.072,-70.272,296.704
-865.224,-126.88,331.84,1.82,4.55,-9.52,-804.224,-78.08,327.936
-861.32,-130.296,332.328,2.38,4.69,-9.38,-819.84,-54.656,320.128
-862.296,-131.272,333.792,2.73,4.76,-9.17,-827.648,-93.696,320.128
-861.32,-130.296,332.816,3.15,4.97,-9.03,-835.456,-93.696,335.744
-860.832,-129.32,332.328,3.43,4.97,-8.75,-812.032,-78.08,304.512
-861.808,-131.76,329.4,3.71,5.18,-8.54,-851.072,-78.08,327.936
-861.32,-133.712,329.4,4.06,5.32,-8.12,-827.648,-93.696,312.32
-862.296,-136.64,328.424,4.41,5.53,-7.7,-827.648,-93.696,320.128
-860.832,-141.52,331.84,4.69,5.74,-7.35,-819.84,-85.888,288.896
-861.32,-147.376,334.768,4.97,6.02,-6.93,-835.456,-101.504,312.32
-857.416,-151.28,334.768,5.11,6.3,-6.72,-804.224,-132.736,304.512
-855.952,-155.672,335.744,5.39,6.79,-6.51,-843.264,-109.312,320.128
-855.464,-157.624,337.696,5.53,7.0,-6.09,-835.456,-109.312,320.128
-854.0,-159.088,338.184,5.67,7.28,-5.74,-827.648,-124.928,304.512
-855.464,-160.064,341.112,5.74,7.7,-5.46,-835.456,-101.504,320.128
-856.928,-161.04,343.064,5.81,7.98,-5.11,-827.648,-117.12,335.744
-858.392,-162.504,344.04,5.81,8.26,-4.83,-827.648,-124.928,351.36
-858.88,-165.432,345.504,5.88,8.54,-4.41,-827.648,-109.312,304.512
-857.904,-168.36,346.968,6.09,8.61,-4.2,-851.072,-109.312,327.936
-858.88,-170.8,347.944,6.23,8.96,-3.85,-804.224,-109.312,351.36
-858.392,-173.728,345.016,6.37,9.1,-3.5,-835.456,-109.312,320.128
-859.856,-175.192,345.504,6.51,9.38,-3.22,-819.84,-124.928,343.552
-859.856,-177.144,347.944,6.72,9.45,-3.01,-827.648,-148.352,327.936
-860.832,-176.656,348.432,6.93,9.66,-2.73,-835.456,-101.504,312.32
-859.368,-178.608,348.92,7.14,9.87,-2.38,-827.648,-140.544,327.936
-861.32,-183.0,348.92,7.35,10.01,-2.03,-835.456,-140.544,327.936
-860.344,-187.88,350.872,7.49,10.29,-1.75,-835.456,-163.968,335.744
-861.808,-190.808,353.8,7.63,10.36,-1.47,-851.072,-163.968,335.744
-878.888,-197.152,371.856,7.91,10.5,-1.12,-858.88,-156.16,359.168
-874.008,-194.712,373.32,8.54,9.66,-0.91,-827.648,-156.16,335.744
-842.288,-194.712,338.672,8.75,10.22,-0.77,-812.032,-148.352,304.512
-845.704,-193.248,358.192,8.96,11.27,-0.77,-827.648,-171.776,366.976
-858.88,-195.688,372.344,9.24,11.55,-0.42,-827.648,-148.352,359.168
-869.128,-196.176,372.832,9.73,11.69,-0.21,-874.496,-124.928,366.976
-872.056,-198.128,373.32,9.94,11.69,0.07,-843.264,-140.544,335.744
-872.056,-201.544,374.296,10.15,11.76,0.35,-851.072,-140.544,359.168
-871.568,-204.472,372.344,10.43,11.9,0.49,-812.032,-156.16,366.976
-878.4,-207.4,375.76,10.78,12.32,0.63,-866.688,-171.776,359.168
-884.744,-213.256,380.152,11.06,12.39,0.84,-851.072,-156.16,327.936
-887.184,-216.184,381.128,11.48,12.6,1.19,-866.688,-163.968,359.168
-888.16,-219.112,381.616,11.69,12.74,1.33,-835.456,-163.968,374.784
-891.088,-219.6,378.688,11.9,12.95,1.4,-874.496,-171.776,359.168
-894.992,-221.552,378.688,12.25,13.16,1.54,-851.072,-187.392,359.168
-900.36,-221.064,377.224,12.6,13.3,1.82,-866.688,-163.968,359.168
-906.216,-222.04,378.688,12.95,13.44,2.1,-897.92,-187.392,351.36
-910.12,-223.504,379.664,13.3,13.65,2.24,-866.688,-187.392,374.784
-910.608,-226.432,378.688,13.65,13.86,2.38,-890.112,-171.776,335.744
-914.512,-229.848,378.688,13.93,14.0,2.59,-874.496,-179.584,359.168
-921.344,-230.824,382.104,14.21,14.21,2.73,-882.304,-179.584,374.784
-924.76,-235.216,383.08,14.49,14.35,2.8,-913.536,-203.008,359.168
-926.712,-236.68,384.544,14.84,14.56,2.87,-905.728,-187.392,374.784
-929.152,-240.096,383.568,14.91,14.63,2.87,-882.304,-171.776,359.168
-931.592,-242.048,382.104,15.12,14.84,2.87,-913.536,-179.584,366.976
-933.544,-243.024,380.152,15.4,14.98,3.01,-913.536,-195.2,398.208
-934.032,-244.976,378.2,15.75,15.12,3.15,-913.536,-195.2,351.36
-935.496,-244.976,377.712,16.03,15.26,3.29,-913.536,-171.776,351.36
-939.4,-249.368,373.32,16.17,15.4,3.57,-905.728,-203.008,366.976
-940.864,-250.832,373.32,16.31,15.54,3.64,-936.96,-203.008,343.552
-942.816,-253.76,372.344,16.52,15.61,3.78,-913.536,-210.816,359.168
-944.28,-257.176,374.784,16.73,15.68,3.92,-952.576,-203.008,343.552
-944.28,-257.664,379.176,16.66,15.75,4.06,-944.768,-195.2,366.976
-945.256,-262.544,381.616,16.87,15.68,4.06,-890.112,-218.624,398.208
-948.184,-263.032,384.056,16.94,15.82,4.2,-929.152,-187.392,366.976
-949.648,-264.008,382.592,17.08,15.75,4.34,-921.344,-210.816,366.976
-953.552,-263.52,383.08,17.15,15.68,4.48,-936.96,-203.008,359.168
-956.48,-264.984,385.52,17.29,15.61,4.48,-921.344,-226.432,351.36
-961.848,-264.984,383.568,17.5,15.68,4.48,-936.96,-203.008,359.168
-968.192,-265.472,381.616,17.64,15.75,4.27,-921.344,-218.624,390.4
-970.632,-264.496,378.688,17.64,15.75,4.27,-921.344,-218.624,359.168
-975.024,-265.472,375.272,17.5,15.75,4.27,-960.384,-218.624,343.552
-980.88,-266.448,369.904,17.43,15.75,4.27,-944.768,-218.624,366.976
-986.736,-268.4,371.856,17.15,15.68,4.27,-976.0,-226.432,351.36
-989.176,-268.888,374.784,16.94,15.68,4.34,-991.616,-203.008,359.168
-992.104,-271.328,376.736,16.59,15.61,4.41,-976.0,-234.24,382.592
-992.104,-271.816,378.2,16.1,15.68,4.41,-976.0,-218.624,366.976
-992.104,-273.28,377.712,15.82,15.68,4.41,-968.192,-234.24,374.784
-992.104,-272.304,379.176,15.47,15.82,4.27,-968.192,-234.24,382.592
-992.592,-273.768,378.2,15.19,16.03,4.27,-976.0,-218.624,374.784
-993.08,-274.744,379.664,14.91,16.1,4.13,-968.192,-210.816,398.208
-993.08,-277.672,379.664,14.56,16.1,4.06,-991.616,-210.816,366.976
-993.568,-280.6,378.688,14.21,16.17,4.06,-960.384,-218.624,374.784
-994.544,-280.6,377.712,13.86,16.17,3.99,-960.384,-210.816,359.168
-993.568,-282.552,375.272,13.51,16.03,3.92,-968.192,-257.664,382.592
-989.176,-285.48,374.296,13.16,16.17,3.92,-983.808,-226.432,351.36
-987.712,-287.92,371.856,13.02,16.17,3.92,-968.192,-218.624,359.168
-984.296,-290.36,369.416,12.74,16.1,3.92,-968.192,-234.24,359.168
-982.344,-292.312,366.976,12.74,16.1,3.99,-960.384,-242.048,351.36
-979.904,-294.264,367.464,12.67,15.96,3.99,-976.0,-234.24,351.36
-977.952,-297.192,367.464,12.74,16.03,3.99,-968.192,-234.24,327.936
-972.096,-299.632,365.024,13.02,16.03,4.06,-960.384,-242.048,351.36
-971.12,-304.024,364.536,13.3,16.03,4.13,-983.808,-249.856,359.168
-966.728,-308.904,365.512,13.65,15.96,4.13,-952.576,-273.28,351.36
-966.728,-314.272,365.512,14.07,16.03,4.34,-944.768,-273.28,351.36
-963.312,-318.176,365.512,14.56,16.03,4.34,-913.536,-265.472,335.744
-961.848,-320.616,362.096,15.26,16.03,4.34,-929.152,-265.472,359.168
-960.384,-323.544,356.728,15.75,16.1,4.48,-968.192,-281.088,335.744
-957.944,-324.032,353.312,16.45,16.03,4.76,-929.152,-273.28,327.936
-954.04,-325.984,349.896,17.08,16.1,4.97,-944.768,-312.32,335.744
-954.04,-324.52,348.432,17.64,16.24,5.18,-944.768,-304.512,343.552
-952.088,-324.52,348.92,18.2,16.17,5.46,-929.152,-242.048,351.36
-946.72,-320.616,347.456,18.83,16.17,5.74,-921.344,-296.704,320.128
-942.328,-319.64,345.992,19.39,16.31,6.09,-921.344,-273.28,335.744
-937.936,-316.712,346.48,20.02,16.38,6.37,-913.536,-273.28,327.936
-934.032,-316.712,347.456,20.44,16.52,6.65,-897.92,-265.472,312.32
-930.128,-318.176,345.992,21.0,16.59,7.0,-913.536,-265.472,327.936
-925.248,-318.664,344.528,21.49,16.73,7.35,-890.112,-273.28,327.936
-922.808,-319.152,344.528,22.12,17.01,7.42,-890.112,-265.472,312.32
-921.344,-318.176,339.16,22.61,17.08,7.56,-897.92,-273.28,312.32
-917.44,-322.568,337.696,23.1,17.22,7.77,-882.304,-226.432,296.704
-914.512,-337.208,334.28,23.73,17.36,8.12,-897.92,-273.28,335.744
-910.12,-349.896,328.424,24.92,17.64,8.47,-882.304,-304.512,320.128
-913.048,-348.432,329.4,26.18,17.99,8.47,-882.304,-296.704,312.32
-917.44,-346.968,329.4,27.09,18.2,8.47,-913.536,-327.936,304.512
-912.072,-345.016,324.52,27.93,18.13,8.61,-882.304,-304.512,304.512
-904.752,-336.72,315.248,29.05,18.27,8.61,-882.304,-304.512,304.512
-901.336,-325.496,312.32,29.96,18.55,8.54,-858.88,-265.472,288.896
-896.456,-316.712,311.344,30.52,18.69,8.82,-874.496,-249.856,304.512
-891.088,-313.296,312.808,31.01,18.9,9.24,-874.496,-265.472,304.512
-888.648,-312.32,310.368,31.71,19.11,9.66,-866.688,-249.856,288.896
-892.064,-304.024,314.272,32.27,19.53,9.73,-874.496,-249.856,288.896
-895.48,-299.632,322.08,32.41,19.6,9.73,-866.688,-257.664,320.128
-892.552,-303.048,325.496,32.27,19.53,10.08,-858.88,-234.24,296.704
-885.72,-312.32,322.568,32.55,19.53,10.5,-851.072,-265.472,312.32
-884.744,-315.736,322.568,33.04,19.74,10.5,-866.688,-281.088,320.128
-883.768,-316.712,326.472,33.39,19.74,10.36,-858.88,-265.472,312.32
-880.352,-319.152,325.496,33.67,19.67,10.36,-866.688,-296.704,304.512
-879.376,-319.64,323.544,34.16,19.53,10.29,-858.88,-296.704,320.128
-878.888,-318.176,323.544,34.65,19.46,10.29,-858.88,-265.472,304.512
-875.472,-318.176,320.128,35.49,19.46,10.36,-851.072,-265.472,304.512
-872.544,-321.592,319.64,36.33,19.39,10.5,-835.456,-265.472,312.32
-873.032,-321.592,320.128,37.31,19.32,10.64,-835.456,-273.28,304.512
-871.08,-306.464,323.544,38.22,19.32,10.71,-851.072,-257.664,281.088
-878.888,-272.304,333.792,38.29,19.39,10.29,-858.88,-210.816,327.936
-878.4,-235.216,344.04,37.31,19.11,10.01,-874.496,-163.968,343.552
-858.88,-212.768,347.456,35.77,18.34,10.15,-858.88,-156.16,320.128
-846.68,-203.496,352.336,34.65,18.2,10.5,-804.224,-156.16,343.552
-843.264,-200.568,360.144,33.6,18.27,10.99,-812.032,-140.544,351.36
-847.168,-206.424,368.44,32.69,17.99,11.27,-835.456,-171.776,351.36
-854.488,-213.256,372.832,31.57,17.57,11.48,-843.264,-163.968,374.784
-863.272,-220.576,377.224,30.31,17.43,11.34,-858.88,-171.776,351.36
-868.64,-232.776,375.272,29.4,17.15,11.2,-843.264,-187.392,359.168
-867.176,-246.44,372.832,29.12,16.8,11.13,-866.688,-187.392,359.168
-864.736,-251.32,371.856,29.4,16.66,10.99,-843.264,-203.008,343.552
-861.32,-250.344,373.32,29.89,16.52,10.99,-835.456,-187.392,343.552
-855.952,-248.392,375.272,30.52,16.38,10.92,-851.072,-210.816,351.36
-852.536,-244.976,377.224,31.36,16.17,10.85,-843.264,-195.2,366.976
-847.656,-243.024,375.272,32.13,16.03,10.85,-835.456,-203.008,343.552
-843.264,-238.632,373.808,33.18,15.68,10.99,-812.032,-187.392,335.744
-840.824,-233.264,377.224,34.3,15.33,11.2,-858.88,-203.008,351.36
-838.384,-226.432,377.712,35.28,15.05,11.34,-796.416,-179.584,382.592
-834.968,-225.944,380.64,36.19,14.98,11.62,-819.84,-171.776,351.36
-827.648,-228.872,381.128,37.59,14.77,11.83,-796.416,-163.968,359.168
-824.72,-229.36,383.08,39.2,14.77,11.9,-804.224,-171.776,359.168
-819.352,-224.48,384.544,40.74,14.49,11.83,-757.376,-171.776,335.744
-812.52,-217.648,383.08,41.79,14.35,11.69,-780.8,-171.776,382.592
-801.784,-207.4,380.152,42.84,14.28,11.62,-765.184,-148.352,359.168
-791.536,-194.224,383.08,43.4,14.28,11.55,-765.184,-140.544,359.168
-785.68,-181.048,384.544,43.89,14.28,11.62,-741.76,-124.928,366.976
-775.432,-167.872,385.032,44.45,14.14,11.9,-765.184,-117.12,382.592
-763.72,-160.064,385.52,44.87,14.14,12.11,-749.568,-117.12,374.784
-755.912,-154.208,386.984,45.29,14.21,12.53,-741.76,-85.888,366.976
-749.568,-152.744,388.936,45.71,14.35,12.88,-733.952,-85.888,382.592
-746.152,-148.84,389.424,46.2,14.42,13.09,-710.528,-117.12,351.36
-743.712,-143.96,391.864,46.48,14.35,13.16,-726.144,-93.696,374.784
-738.832,-131.76,395.28,46.83,14.42,13.09,-718.336,-78.08,351.36
-732.0,-119.56,400.16,46.9,14.21,12.95,-733.952,-70.272,374.784
-724.68,-108.336,403.576,46.9,13.86,13.02,-687.104,-54.656,374.784
-717.848,-97.6,408.944,46.62,13.51,13.02,-687.104,-54.656,390.4
-710.04,-89.792,411.872,46.34,13.23,13.16,-679.296,-46.848,382.592
-706.136,-85.4,416.264,45.85,12.81,13.3,-694.912,-15.616,413.824
-700.28,-83.448,416.264,45.29,12.67,13.44,-671.488,-23.424,421.632
-699.792,-77.592,415.288,44.59,12.39,13.51,-694.912,-23.424,406.016
-698.816,-74.664,419.68,43.96,11.97,13.51,-687.104,-15.616,413.824
-696.864,-70.76,420.656,43.33,11.55,13.65,-671.488,-7.808,421.632
-694.424,-68.32,423.584,42.84,11.2,13.72,-655.872,-15.616,421.632
-692.472,-66.856,425.048,42.7,10.85,13.72,-655.872,7.808,406.016
-694.424,-62.952,433.344,42.35,10.22,13.72,-648.064,0.0,413.824
-691.496,-60.512,441.64,42.07,9.59,13.65,-671.488,-7.808,421.632
-691.984,-62.464,451.888,41.65,8.89,13.51,-687.104,-46.848,429.44
-690.52,-66.368,455.792,41.16,7.98,13.3,-632.448,-15.616,437.248
-691.496,-71.248,463.6,40.67,7.21,13.16,-663.68,-46.848,429.44
-691.984,-79.056,466.528,40.25,6.37,12.95,-671.488,-23.424,460.672
-691.984,-85.888,463.112,40.18,5.46,12.67,-655.872,-31.232,437.248
-694.912,-92.232,459.696,40.32,4.55,12.46,-679.296,-54.656,437.248
-701.744,-96.624,458.232,40.74,3.64,12.25,-671.488,-39.04,445.056
-707.112,-96.624,458.232,41.16,2.66,11.97,-694.912,-54.656,437.248
-707.6,-101.016,452.864,41.79,1.54,11.69,-679.296,-62.464,437.248
-704.672,-104.92,447.496,42.56,0.49,11.41,-694.912,-54.656,429.44
-703.208,-104.92,445.056,43.54,-0.42,10.99,-694.912,-54.656,421.632
-703.208,-102.48,445.056,44.52,-1.19,10.5,-679.296,-54.656,429.44
-701.256,-93.696,443.592,45.29,-2.1,9.94,-663.68,-46.848,413.824
-700.28,-82.96,445.056,45.57,-2.8,9.38,-671.488,-31.232,421.632
-695.888,-71.736,445.056,45.71,-3.5,8.82,-663.68,-39.04,421.632
-689.056,-59.536,446.032,45.5,-4.2,8.4,-655.872,-7.808,437.248
-685.64,-42.944,447.496,45.01,-4.62,8.12,-648.064,0.0,445.056
-683.688,-25.864,449.936,44.24,-5.11,7.77,-655.872,23.424,437.248
-681.736,-9.76,452.376,42.98,-5.6,7.42,-632.448,31.232,421.632
-674.416,0.976,455.304,41.44,-6.3,7.42,-663.68,93.696,468.48
-670.512,8.784,455.304,40.04,-6.79,7.42,-632.448,54.656,445.056
-667.096,14.152,455.792,38.64,-7.21,7.49,-663.68,62.464,445.056
-665.144,19.032,453.352,37.24,-7.84,7.7,-632.448,78.08,437.248
-664.656,21.472,451.888,35.84,-8.26,7.91,-632.448,85.888,429.44
-660.752,24.4,452.376,34.44,-8.54,8.05,-648.064,78.08,437.248
-660.752,26.352,452.376,32.83,-8.75,8.05,-632.448,85.888,437.248
-657.824,25.376,449.448,31.15,-9.24,7.98,-648.064,78.08,421.632
-652.944,24.4,446.032,29.47,-9.59,7.98,-609.024,70.272,429.44
-652.456,25.376,446.032,28.07,-9.8,7.98,-616.832,78.08,413.824
-649.528,24.4,445.544,26.67,-10.08,8.05,-632.448,54.656,429.44
-646.112,22.936,440.664,25.48,-10.36,8.12,-601.216,93.696,421.632
-643.672,20.008,433.344,24.78,-10.64,8.26,-632.448,78.08,437.248
-644.648,17.08,426.024,24.5,-10.85,8.19,-616.832,62.464,413.824
-641.232,9.272,421.144,24.57,-11.13,8.19,-601.216,39.04,406.016
-637.816,3.416,409.92,25.27,-11.55,8.33,-616.832,78.08,382.592
-631.96,-4.88,398.208,26.53,-11.97,8.33,-616.832,70.272,351.36
-625.616,-14.152,389.912,28.0,-12.25,8.4,-601.216,46.848,390.4
-619.272,-22.936,382.104,29.82,-12.25,8.19,-569.984,-7.808,351.36
-616.832,-30.256,377.224,31.71,-12.25,8.05,-601.216,23.424,359.168
-614.392,-33.672,374.296,33.6,-12.25,7.7,-577.792,7.808,359.168
-611.464,-35.136,367.952,35.7,-12.39,7.35,-569.984,0.0,343.552
-606.096,-31.72,360.632,37.8,-12.46,7.14,-609.024,23.424,327.936
-604.632,-27.328,352.824,39.69,-12.32,7.0,-585.6,23.424,335.744
-600.728,-16.592,345.016,41.58,-12.18,6.93,-577.792,39.04,312.32
-599.264,-6.832,342.088,43.19,-12.04,6.93,-554.368,46.848,335.744
-596.824,6.344,336.232,44.59,-11.9,6.93,-569.984,70.272,304.512
-597.8,18.056,334.768,45.85,-11.62,7.14,-554.368,78.08,288.896
-595.36,30.744,331.84,46.62,-11.34,7.28,-569.984,54.656,296.704
-597.312,45.384,325.496,47.11,-10.99,7.56,-569.984,117.12,304.512
-598.288,60.024,322.08,47.46,-10.5,7.77,-569.984,101.504,320.128
-597.312,74.176,318.176,47.46,-10.29,8.12,-593.408,124.928,304.512
-597.312,85.4,313.296,47.18,-9.94,8.54,-585.6,140.544,296.704
-599.264,100.04,306.952,46.62,-9.45,9.03,-569.984,140.544,273.28
-598.288,110.288,302.072,45.92,-9.1,9.66,-569.984,171.776,296.704
-601.704,121.512,299.144,45.01,-8.61,10.15,-585.6,148.352,273.28
-602.68,131.76,298.168,43.82,-8.26,10.85,-577.792,163.968,288.896
-603.168,139.08,301.096,42.35,-7.77,11.41,-601.216,187.392,281.088
-605.608,143.96,304.512,40.95,-7.35,12.18,-546.56,195.2,296.704
-609.512,143.472,315.736,39.41,-7.07,12.95,-554.368,163.968,288.896
-610.0,141.52,325.984,37.87,-7.0,13.72,-569.984,187.392,320.128
-613.416,134.688,340.136,35.84,-6.79,14.49,-585.6,195.2,320.128
-619.76,132.248,354.288,33.53,-6.65,15.12,-585.6,187.392,320.128
-625.616,127.856,365.512,30.73,-6.65,15.68,-601.216,163.968,327.936
-630.496,123.952,374.296,27.58,-6.79,16.1,-601.216,140.544,327.936
-636.84,124.928,381.128,24.29,-6.79,16.31,-609.024,163.968,366.976
-644.16,128.832,381.616,20.72,-6.86,16.45,-640.256,179.584,390.4
-655.384,134.2,387.472,17.01,-6.86,16.66,-624.64,179.584,366.976
-660.752,142.984,386.008,13.23,-7.14,17.08,-624.64,187.392,374.784
-668.072,146.888,391.864,9.38,-7.63,17.43,-648.064,218.624,366.976
-674.416,154.208,392.352,5.6,-8.05,17.85,-640.256,195.2,382.592
-678.808,157.624,396.744,1.68,-8.47,18.27,-648.064,179.584,390.4
-684.176,158.112,401.624,-1.96,-9.17,18.62,-655.872,203.008,374.784
-686.616,159.576,399.184,-5.32,-10.08,19.04,-648.064,218.624,374.784
-688.568,155.184,398.208,-8.19,-11.13,19.53,-648.064,210.816,390.4
-688.568,141.032,393.816,-10.43,-12.11,20.02,-663.68,210.816,374.784
-687.592,122.0,385.032,-11.69,-13.3,20.51,-655.872,179.584,359.168
-689.056,90.768,374.296,-11.69,-14.63,20.93,-655.872,124.928,351.36
-691.496,44.896,369.904,-10.29,-15.89,21.28,-671.488,85.888,343.552
-694.912,-4.392,359.168,-7.42,-17.29,21.42,-648.064,54.656,343.552
-694.912,-61.488,343.552,-3.43,-18.76,21.21,-679.296,-7.808,327.936
-693.448,-119.56,334.28,1.47,-20.02,20.65,-655.872,-70.272,296.704
-689.544,-172.752,328.424,6.72,-21.0,19.53,-671.488,-124.928,304.512
-689.056,-214.72,321.592,12.46,-21.49,18.2,-655.872,-179.584,288.896
-686.128,-242.048,316.224,18.27,-22.05,16.59,-655.872,-171.776,327.936
-680.76,-251.808,310.368,23.94,-22.33,15.19,-640.256,-226.432,304.512
-671.0,-246.928,303.536,29.26,-22.33,14.14,-640.256,-195.2,288.896
-663.68,-228.872,292.312,33.95,-22.19,13.44,-640.256,-179.584,281.088
-659.776,-198.616,286.456,37.8,-21.77,13.23,-632.448,-148.352,257.664
-657.824,-165.432,280.6,41.02,-21.28,13.44,-648.064,-109.312,265.472
-661.728,-126.88,274.744,43.33,-20.72,13.65,-648.064,-93.696,257.664
-664.168,-90.28,273.768,44.87,-20.3,14.07,-640.256,-39.04,257.664
-664.656,-55.144,266.936,45.64,-19.88,14.42,-640.256,0.0,257.664
-667.584,-27.328,267.912,45.64,-19.39,14.63,-663.68,15.616,249.856
-666.608,-9.76,267.912,45.22,-18.9,14.91,-640.256,23.424,257.664
-662.216,10.248,262.056,44.73,-18.62,14.84,-632.448,54.656,242.048
-659.288,24.888,257.664,44.38,-17.85,15.19,-632.448,85.888,234.24
-656.848,34.648,259.128,44.03,-17.01,15.68,-648.064,70.272,249.856
-658.312,39.04,256.2,43.68,-16.17,16.38,-632.448,93.696,234.24
-660.752,37.088,255.224,42.98,-15.26,17.22,-632.448,70.272,234.24
-665.632,31.232,255.712,42.21,-14.21,17.99,-640.256,78.08,226.432
-671.488,26.84,260.592,40.88,-13.44,18.48,-624.64,93.696,249.856
-675.88,19.032,261.568,39.55,-12.95,19.11,-640.256,70.272,234.24
-679.784,15.616,261.08,38.08,-12.32,19.53,-663.68,70.272,226.432
-683.688,14.64,254.736,36.61,-11.69,19.95,-648.064,62.464,226.432
-690.032,16.592,248.392,35.21,-11.13,20.37,-671.488,85.888,218.624
-697.352,19.032,249.856,33.81,-10.64,20.93,-671.488,54.656,242.048
-706.136,23.912,251.808,32.2,-10.29,21.35,-679.296,85.888,234.24
-717.848,27.328,256.2,30.66,-9.87,21.98,-702.72,109.312,226.432
-727.608,33.672,262.544,28.98,-9.73,22.61,-710.528,101.504,242.048
-736.392,39.528,267.912,27.09,-9.52,23.24,-702.72,85.888,265.472
-743.712,44.896,273.768,25.13,-9.45,24.01,-726.144,93.696,242.048
-751.032,48.312,282.064,23.03,-9.52,24.71,-726.144,93.696,273.28
-759.816,53.192,294.264,20.93,-9.38,25.69,-741.76,109.312,281.088
-771.528,51.728,307.44,18.62,-9.38,26.67,-757.376,93.696,288.896
-779.824,47.336,322.568,16.38,-9.59,27.72,-741.76,101.504,312.32
-790.072,40.992,334.28,14.21,-9.87,28.7,-765.184,101.504,312.32
-804.224,32.696,345.016,12.46,-10.29,29.54,-741.76,70.272,327.936
-818.376,18.544,355.264,11.13,-10.99,30.52,-788.608,39.04,359.168
-840.824,-0.488,370.392,10.22,-11.76,31.5,-812.032,54.656,359.168
-859.856,-23.912,375.272,9.94,-12.81,32.34,-835.456,15.616,374.784
-871.08,-57.096,374.296,9.8,-13.86,32.76,-858.88,-23.424,343.552
-884.256,-87.352,376.248,10.36,-14.84,32.69,-874.496,-54.656,351.36
-898.408,-117.12,378.2,11.55,-15.68,32.13,-874.496,-62.464,359.168
-912.56,-140.544,379.176,13.44,-16.59,31.36,-874.496,-93.696,374.784
-929.64,-153.72,380.152,15.61,-17.43,30.59,-897.92,-101.504,359.168
-944.768,-158.6,371.368,17.85,-18.41,29.61,-921.344,-109.312,335.744
-961.36,-161.528,363.072,20.09,-19.46,28.77,-952.576,-101.504,359.168
-979.416,-157.136,354.776,22.19,-20.58,27.79,-952.576,-93.696,343.552
-1000.4,-151.28,348.92,24.22,-21.7,26.67,-983.808,-78.08,304.512
-1020.408,-138.104,346.48,26.04,-22.89,25.69,-976.0,-85.888,320.128
-1040.904,-120.048,346.48,27.44,-24.01,24.64,-1046.272,-85.888,343.552
-1062.376,-103.456,346.968,28.42,-25.2,23.52,-1038.464,-62.464,327.936
-1082.872,-85.4,344.528,28.91,-26.46,22.4,-1061.888,-54.656,312.32
-1099.952,-69.296,343.064,29.12,-27.58,21.21,-1085.312,-7.808,320.128
-1117.032,-55.144,335.744,29.12,-28.49,19.88,-1116.544,-7.808,312.32
-1134.112,-40.992,328.912,28.84,-29.54,18.55,-1108.736,23.424,320.128
-1147.288,-24.888,315.736,28.21,-30.52,17.01,-1139.968,46.848,281.088
-1157.048,-12.2,304.512,27.58,-31.22,15.4,-1116.544,23.424,288.896
-1168.272,-0.488,294.752,26.67,-31.85,13.79,-1155.584,39.04,288.896
-1176.568,12.688,283.528,25.83,-32.27,12.18,-1171.2,23.424,273.28
-1181.936,24.888,269.376,25.06,-32.62,10.43,-1139.968,78.08,265.472
-1186.328,39.528,260.104,24.36,-32.69,8.96,-1155.584,93.696,249.856
-1189.744,49.776,252.784,23.59,-32.55,7.77,-1179.008,109.312,210.816
-1190.232,56.608,242.048,22.89,-32.41,6.79,-1202.432,117.12,203.008
-1192.672,63.44,232.288,22.12,-32.06,5.95,-1186.816,109.312,226.432
-1192.184,66.856,221.552,21.35,-31.57,5.32,-1155.584,93.696,203.008
-1194.624,67.832,211.304,20.79,-31.08,4.62,-1132.16,132.736,195.2
-1190.72,69.784,205.936,20.16,-30.38,4.13,-1139.968,132.736,179.584
-1190.232,71.736,200.08,19.53,-29.54,3.64,-1155.584,117.12,171.776
-1193.16,73.688,201.544,19.18,-28.77,3.29,-1171.2,101.504,163.968
-1190.232,75.64,199.592,18.76,-27.79,3.08,-1163.392,101.504,171.776
-1186.328,79.544,198.128,18.62,-26.88,2.8,-1147.776,101.504,179.584
-1180.472,85.888,195.2,18.48,-25.69,2.66,-1155.584,140.544,156.16
-1180.472,92.232,193.736,18.27,-24.64,2.66,-1163.392,140.544,171.776
-1179.496,101.016,193.248,18.13,-23.45,2.66,-1139.968,156.16,163.968
-1178.52,111.264,191.784,17.99,-22.4,2.94,-1163.392,156.16,171.776
-1173.152,119.072,191.784,18.13,-21.21,3.29,-1147.776,156.16,163.968
-1166.32,127.368,195.688,18.41,-20.16,3.78,-1139.968,171.776,171.776
-1161.928,132.248,198.128,18.9,-18.9,4.27,-1132.16,187.392,179.584
-1156.56,137.616,203.008,19.53,-17.85,4.69,-1147.776,171.776,163.968
-1151.192,142.008,207.4,20.37,-16.73,5.04,-1116.544,179.584,179.584
-1141.92,142.008,215.696,21.07,-15.4,5.32,-1100.928,171.776,195.2
-1134.112,142.008,223.992,22.12,-14.14,5.6,-1108.736,179.584,203.008
-1128.256,140.544,231.8,23.17,-13.23,5.81,-1116.544,187.392,234.24
-1121.912,138.104,238.632,24.36,-11.97,6.09,-1093.12,187.392,234.24
-1117.032,133.712,248.88,25.62,-10.99,6.44,-1069.696,179.584,242.048
-1109.224,124.928,258.64,27.09,-10.15,6.86,-1085.312,195.2,249.856
-1107.272,114.192,272.792,28.42,-9.24,7.21,-1069.696,163.968,249.856
-1103.856,102.48,285.968,29.75,-8.54,7.42,-1046.272,163.968,265.472
-1102.392,91.744,296.216,30.73,-7.84,7.28,-1085.312,140.544,288.896
-1098.976,85.4,300.608,31.5,-7.28,7.14,-1085.312,132.736,296.704
-1095.072,81.984,303.048,31.99,-6.72,6.79,-1069.696,117.12,273.28
-1092.144,83.448,304.024,32.41,-6.37,6.3,-1046.272,156.16,288.896
-1088.24,88.816,307.928,32.69,-5.95,5.95,-1046.272,140.544,304.512
-1083.848,92.72,310.368,32.76,-5.32,5.53,-1054.08,140.544,304.512
-1075.552,101.992,317.2,32.76,-4.83,5.11,-1054.08,140.544,304.512
-1071.16,108.824,322.08,32.62,-4.41,4.69,-1038.464,148.352,296.704
-1062.864,112.728,324.032,32.27,-3.92,4.2,-1038.464,156.16,288.896
-1055.544,115.168,325.008,31.92,-3.5,3.71,-1022.848,163.968,312.32
-1049.688,114.68,324.032,31.36,-3.22,3.15,-1007.232,171.776,304.512
-1042.856,111.752,324.032,30.8,-2.87,2.59,-1038.464,171.776,296.704
-1043.832,109.312,323.056,30.1,-2.66,1.89,-1007.232,163.968,304.512
-1039.44,104.432,322.08,29.47,-2.66,1.12,-999.424,132.736,312.32
-1038.464,96.624,320.616,29.05,-2.38,0.49,-1007.232,148.352,312.32
-1033.584,89.792,319.152,28.56,-2.31,-0.35,-999.424,124.928,281.088
-1032.608,82.472,317.2,28.0,-2.24,-0.91,-991.616,132.736,281.088
-1026.264,74.176,315.736,27.65,-1.89,-1.68,-999.424,124.928,304.512
-1022.848,69.784,315.248,27.37,-1.89,-2.45,-999.424,124.928,312.32
-1018.944,68.32,312.32,27.02,-1.82,-3.15,-976.0,109.312,312.32
-1016.504,65.392,309.88,26.74,-1.54,-3.92,-983.808,101.504,304.512
-1012.6,65.88,305.0,26.6,-1.33,-4.55,-976.0,132.736,281.088
-1010.648,68.32,299.632,26.46,-1.26,-4.97,-999.424,124.928,257.664
-1009.184,71.248,291.336,26.46,-0.98,-5.39,-991.616,124.928,265.472
-1007.72,75.152,286.456,26.39,-0.56,-5.88,-968.192,109.312,281.088
-1008.208,79.544,282.064,26.39,-0.28,-6.16,-1007.232,109.312,257.664
-1005.768,84.912,276.208,26.39,-0.07,-6.51,-1007.232,148.352,249.856
-1005.768,90.28,275.232,26.46,0.21,-6.93,-999.424,156.16,265.472
-1006.744,95.648,272.304,26.74,0.63,-7.28,-968.192,140.544,257.664
-1006.256,99.552,273.768,27.02,0.98,-7.56,-991.616,148.352,257.664
-1009.672,105.896,270.352,27.51,1.4,-7.84,-983.808,156.16,249.856
-1010.16,109.8,270.352,27.79,1.75,-7.98,-991.616,148.352,249.856
-1013.088,114.192,269.864,28.0,2.17,-8.26,-976.0,179.584,242.048
-1015.528,121.024,268.888,28.14,2.59,-8.47,-983.808,163.968,265.472
-1020.408,126.88,269.376,28.07,3.01,-8.75,-976.0,187.392,242.048
-1022.848,137.616,267.912,28.21,3.57,-8.96,-991.616,187.392,273.28
-1026.752,145.912,266.936,28.21,4.06,-9.03,-999.424,195.2,242.048
-1031.144,153.232,265.96,28.42,4.55,-9.03,-1022.848,195.2,234.24
-1037.0,158.6,264.008,28.63,5.11,-9.03,-991.616,226.432,257.664
-1044.32,162.992,264.496,28.84,5.53,-8.75,-1015.04,195.2,257.664
-1049.688,164.944,264.496,28.98,5.95,-8.54,-1015.04,210.816,242.048
-1056.032,164.456,263.032,29.05,6.44,-8.33,-1038.464,218.624,242.048
-1060.424,162.992,262.056,29.19,6.65,-8.33,-1038.464,187.392,249.856
-1062.864,163.968,264.496,29.19,7.0,-8.33,-1046.272,203.008,265.472
-1065.304,164.456,267.912,29.12,7.56,-8.19,-1061.888,226.432,242.048
-1065.304,166.896,270.352,29.26,8.05,-8.19,-1030.656,242.048,265.472
-1064.328,169.336,273.768,29.33,8.4,-8.26,-1046.272,257.664,242.048
-1061.888,168.848,276.208,29.54,8.96,-8.26,-1022.848,203.008,265.472
-1066.28,168.848,282.064,29.61,9.45,-8.33,-1030.656,234.24,249.856
-1065.304,166.896,284.992,29.68,9.87,-8.33,-1046.272,195.2,249.856
-1068.232,165.432,287.432,29.75,10.15,-8.26,-1038.464,195.2,281.088
-1068.232,161.528,293.776,29.68,10.57,-8.26,-1030.656,226.432,296.704
-1068.72,159.088,296.216,29.61,10.92,-8.33,-1046.272,203.008,296.704
-1070.672,157.624,303.048,29.61,11.13,-8.4,-1038.464,195.2,281.088
-1071.648,154.696,307.44,29.68,11.34,-8.54,-1054.08,187.392,312.32
-1071.648,152.256,309.88,29.96,11.69,-8.54,-1030.656,203.008,288.896
-1072.624,147.376,313.296,30.17,11.9,-8.61,-1054.08,195.2,288.896
-1075.552,144.448,315.736,30.31,12.11,-8.68,-1046.272,218.624,312.32
-1075.552,141.032,319.152,30.59,12.32,-8.82,-1054.08,203.008,320.128
-1077.992,138.104,321.104,30.94,12.32,-9.03,-1061.888,171.776,288.896
-1079.456,132.736,321.104,31.29,12.39,-9.24,-1046.272,187.392,304.512
-1075.552,130.784,319.152,31.92,12.39,-9.45,-1061.888,187.392,312.32
-1073.6,126.88,320.616,32.48,12.46,-9.66,-1054.08,179.584,288.896
-1073.6,123.952,323.056,33.11,12.53,-9.8,-1069.696,179.584,304.512
-1077.992,129.32,319.64,33.88,12.74,-9.59,-1061.888,163.968,320.128
-1080.432,122.0,324.52,34.37,12.67,-9.38,-1077.504,171.776,296.704
-1078.968,117.608,320.616,34.44,12.81,-9.52,-1061.888,156.16,320.128
-1077.992,116.144,320.616,34.44,12.74,-9.8,-1030.656,171.776,296.704
-1077.016,119.56,316.712,34.58,12.74,-10.15,-1038.464,163.968,296.704
-1073.6,125.416,313.784,34.79,12.74,-10.29,-1046.272,187.392,296.704
-1070.672,128.344,313.784,34.93,12.88,-10.36,-1046.272,148.352,304.512
-1066.768,134.688,313.296,35.07,13.09,-10.29,-1046.272,203.008,304.512
-1064.328,139.08,315.736,35.0,13.3,-10.22,-1038.464,171.776,304.512
-1064.816,140.544,317.2,35.14,13.51,-10.08,-1030.656,187.392,304.512
-1061.888,139.568,318.176,35.0,13.72,-10.01,-1030.656,218.624,304.512
-1060.424,139.568,321.592,35.0,14.0,-10.01,-1030.656,187.392,312.32
-1057.496,137.616,323.544,34.86,14.35,-10.08,-1038.464,195.2,320.128
-1055.544,137.128,324.52,34.72,14.63,-10.43,-1038.464,179.584,320.128
-1053.104,133.224,322.568,34.65,14.98,-10.57,-1038.464,171.776,304.512
-1051.64,133.224,321.592,34.65,15.33,-10.92,-1030.656,156.16,296.704
-1048.712,131.76,319.64,34.65,15.75,-11.27,-1030.656,171.776,327.936
-1046.272,131.272,316.712,34.65,16.24,-11.41,-1015.04,171.776,281.088
-1043.832,130.784,317.688,34.51,16.66,-11.76,-1015.04,179.584,304.512
-1043.832,132.248,315.248,34.37,17.15,-11.97,-1015.04,187.392,288.896
-1042.368,134.2,312.808,34.16,17.57,-12.25,-1007.232,179.584,296.704
-1041.392,137.128,311.344,34.02,18.06,-12.46,-1015.04,210.816,288.896
-1040.416,138.104,310.856,33.81,18.62,-12.6,-1015.04,179.584,304.512
-1040.904,140.056,309.88,33.53,19.18,-12.74,-1030.656,187.392,296.704
-1038.952,141.032,312.808,33.18,19.74,-12.95,-1022.848,218.624,273.28
-1038.952,142.496,315.736,32.83,20.16,-13.02,-1015.04,179.584,288.896
-1038.464,143.472,317.2,32.41,20.72,-13.3,-1007.232,195.2,312.32
-1036.024,147.376,319.64,31.99,21.28,-13.37,-1007.232,171.776,304.512
-1034.072,149.328,321.104,31.57,21.91,-13.58,-999.424,187.392,327.936
-1032.12,152.256,324.032,31.22,22.47,-13.72,-976.0,195.2,312.32
-1028.216,154.208,326.472,30.45,23.1,-13.79,-1007.232,203.008,320.128
-1025.288,153.232,329.4,30.03,23.52,-13.79,-999.424,187.392,312.32
-1024.8,152.744,331.84,29.61,24.01,-13.72,-983.808,210.816,335.744
-1022.36,152.256,334.28,29.26,24.43,-13.79,-991.616,203.008,312.32
-1019.432,148.352,332.816,29.05,24.85,-13.86,-999.424,187.392,327.936
-1016.504,144.448,332.816,28.91,25.2,-13.86,-999.424,195.2,312.32
-1014.552,138.592,331.84,28.77,25.69,-13.93,-991.616,179.584,320.128
-1012.6,132.248,332.816,28.7,26.11,-13.86,-991.616,171.776,304.512
-1009.672,127.368,331.352,28.77,26.53,-13.86,-976.0,179.584,312.32
-1007.72,123.952,332.816,28.91,26.88,-13.86,-991.616,179.584,304.512
-1004.792,122.488,334.28,29.33,27.02,-13.86,-991.616,163.968,304.512
-1003.816,121.512,333.792,29.68,27.44,-13.79,-976.0,171.776,320.128
-1002.84,122.0,331.84,29.96,27.58,-13.72,-983.808,163.968,304.512
-999.912,122.0,331.352,30.24,27.86,-13.79,-976.0,156.16,312.32
-1000.4,123.464,333.792,30.38,28.0,-13.79,-968.192,218.624,312.32
-999.912,124.44,336.72,30.52,28.14,-13.86,-968.192,171.776,351.36
-1000.4,125.904,337.208,30.52,28.14,-13.93,-968.192,171.776,335.744
-1000.888,130.784,338.672,30.59,28.21,-14.0,-960.384,171.776,312.32
-997.96,133.712,339.16,30.31,28.28,-14.07,-968.192,187.392,320.128
-995.52,138.592,342.088,30.03,28.28,-14.14,-991.616,187.392,320.128
-993.08,143.96,345.504,29.61,28.42,-14.14,-999.424,195.2,304.512
-992.104,148.352,349.408,29.19,28.42,-14.21,-976.0,203.008,359.168
-991.616,153.232,352.824,28.7,28.42,-14.14,-960.384,203.008,351.36
-991.616,154.208,358.68,28.21,28.42,-14.07,-983.808,187.392,343.552
-992.592,157.624,364.048,27.65,28.35,-14.0,-968.192,226.432,351.36
-995.032,155.672,366.488,27.16,28.28,-13.93,-960.384,187.392,359.168
-996.008,154.696,369.904,26.67,28.07,-13.86,-976.0,226.432,366.976
-997.472,151.768,373.808,26.11,27.93,-13.79,-976.0,210.816,351.36
-1000.888,149.816,376.248,25.62,27.58,-13.65,-983.808,203.008,359.168
-1002.84,148.84,379.176,25.06,27.16,-13.51,-968.192,187.392,366.976
-1005.28,150.304,380.152,24.57,26.74,-13.51,-991.616,234.24,351.36
-1004.792,154.208,378.2,24.15,26.11,-13.3,-968.192,187.392,335.744
-1003.816,158.6,375.76,23.66,25.55,-13.16,-991.616,210.816,335.744
-1006.256,163.48,374.784,23.17,24.85,-12.88,-983.808,218.624,351.36
-1007.232,167.872,375.76,22.61,24.29,-12.46,-1015.04,218.624,351.36
-1009.184,170.8,380.152,22.12,23.59,-12.11,-968.192,218.624,359.168
-1008.696,175.68,385.52,21.63,22.96,-11.83,-983.808,226.432,359.168
-1005.768,175.192,389.912,21.14,22.26,-11.48,-983.808,203.008,374.784
-999.912,176.168,394.304,20.65,21.63,-11.13,-976.0,218.624,382.592
-996.984,174.704,398.696,20.44,21.07,-10.92,-983.808,226.432,382.592
-994.544,173.24,401.624,20.09,20.44,-10.71,-960.384,226.432,406.016
-992.592,166.896,405.04,19.74,20.02,-10.36,-976.0,234.24,382.592
-989.176,161.528,406.992,19.46,19.39,-10.29,-968.192,203.008,382.592
-988.688,154.696,406.992,19.25,18.9,-10.08,-960.384,210.816,390.4
-988.688,148.352,408.456,18.97,18.27,-9.8,-952.576,187.392,366.976
-988.2,143.96,406.016,18.48,17.78,-9.73,-968.192,203.008,398.208
-988.688,139.568,401.136,18.27,17.22,-9.59,-929.152,195.2,390.4
-990.64,138.104,401.624,17.85,16.59,-9.38,-976.0,187.392,382.592
-991.616,136.152,398.696,17.78,15.96,-9.17,-968.192,203.008,366.976
-992.104,137.128,394.792,17.43,15.61,-8.89,-976.0,187.392,374.784
-992.104,137.616,393.816,17.29,15.05,-8.61,-960.384,203.008,390.4
-992.592,137.128,388.448,17.22,14.42,-8.4,-999.424,187.392,374.784
-993.568,135.176,386.496,16.94,14.0,-8.26,-968.192,179.584,343.552
-995.032,132.736,383.08,16.73,13.44,-8.05,-999.424,171.776,382.592
-996.496,130.784,382.592,16.52,12.74,-7.91,-968.192,195.2,351.36
-997.472,128.344,377.224,16.24,12.18,-7.77,-976.0,179.584,366.976
-995.52,122.0,372.344,16.1,11.69,-7.77,-991.616,132.736,359.168
-993.08,121.512,369.416,15.82,11.27,-7.7,-976.0,163.968,359.168
-992.104,120.048,366.0,15.61,10.99,-7.7,-976.0,179.584,351.36
-992.104,121.512,364.536,15.19,10.64,-7.7,-960.384,140.544,335.744
-993.08,121.512,364.048,14.84,10.15,-7.63,-929.152,171.776,359.168
-992.592,122.976,362.584,14.56,9.94,-7.49,-976.0,187.392,343.552
-990.64,123.464,363.072,14.21,9.73,-7.35,-960.384,163.968,359.168
-991.128,121.024,362.584,13.79,9.52,-7.07,-960.384,195.2,351.36
-990.152,118.096,357.704,13.44,9.31,-7.07,-976.0,179.584,343.552
-993.08,117.12,361.12,13.02,9.24,-6.93,-960.384,140.544,335.744
-994.056,115.656,362.096,12.53,9.24,-6.93,-999.424,148.352,335.744
-998.448,113.216,362.096,12.25,9.24,-6.86,-976.0,187.392,366.976
-1001.376,112.728,362.584,11.76,9.17,-6.86,-960.384,156.16,343.552
-1000.4,109.312,364.536,11.48,9.24,-6.93,-999.424,140.544,343.552
-997.96,109.312,363.56,11.06,9.31,-6.86,-960.384,156.16,335.744
-998.936,104.432,360.144,10.85,9.45,-6.86,-960.384,156.16,351.36
-997.472,101.504,354.776,10.5,9.52,-6.86,-983.808,163.968,320.128
-1000.888,96.136,352.824,10.29,9.52,-7.0,-991.616,148.352,320.128
-1001.376,91.256,353.8,9.94,9.59,-6.93,-983.808,163.968,335.744
-1005.768,89.304,354.288,9.52,9.52,-7.07,-976.0,163.968,351.36
-1005.768,88.328,353.8,9.31,9.52,-7.07,-968.192,132.736,335.744
-1002.84,87.84,352.824,9.03,9.59,-7.07,-999.424,109.312,335.744
-1002.352,87.84,349.896,8.68,9.52,-7.14,-983.808,156.16,320.128
-1000.888,87.352,346.48,8.47,9.59,-7.07,-952.576,132.736,320.128
-999.912,85.888,345.016,8.19,9.73,-6.86,-976.0,117.12,359.168
-1001.864,82.96,341.6,7.84,9.73,-6.72,-960.384,124.928,327.936
-1001.864,78.568,342.088,7.49,9.66,-6.58,-960.384,148.352,335.744
-1005.28,74.664,346.48,7.21,9.45,-6.58,-968.192,101.504,335.744
-1006.744,71.248,346.968,7.0,9.31,-6.51,-952.576,109.312,359.168
-1009.184,68.808,347.456,6.79,9.17,-6.51,-983.808,117.12,320.128
-1008.208,67.344,345.016,6.65,9.03,-6.58,-999.424,117.12,320.128
-1007.72,67.832,345.992,6.44,8.82,-6.51,-983.808,124.928,359.168
-1009.672,68.32,345.016,6.09,8.75,-6.58,-1007.232,140.544,335.744
-1009.184,69.784,344.04,5.88,8.61,-6.58,-976.0,124.928,343.552
-1011.136,71.248,343.552,5.53,8.47,-6.51,-960.384,109.312,327.936
-1012.112,72.712,345.504,5.18,8.19,-6.44,-976.0,132.736,327.936
-1012.6,71.736,345.504,4.83,7.98,-6.37,-983.808,132.736,343.552
-1014.552,72.712,347.456,4.34,7.98,-6.44,-1007.232,109.312,312.32
-1014.064,73.688,346.968,3.85,7.77,-6.37,-991.616,148.352,343.552
-1016.504,75.64,347.944,3.22,7.63,-6.44,-983.808,117.12,327.936
-1015.528,75.64,349.408,2.59,7.35,-6.44,-983.808,109.312,327.936
-1017.48,76.616,351.36,1.89,7.0,-6.51,-999.424,109.312,335.744
-1016.504,77.592,349.408,1.12,6.86,-6.44,-983.808,117.12,320.128
-1016.016,76.616,346.48,0.56,6.79,-6.44,-999.424,117.12,366.976
-1016.992,75.152,345.992,-0.14,6.44,-6.37,-976.0,140.544,327.936
-1016.992,72.712,342.576,-0.7,6.09,-6.3,-1007.232,101.504,296.704
-1017.968,66.368,342.088,-1.12,5.81,-6.16,-991.616,109.312,320.128
-1020.408,62.464,340.624,-1.54,5.46,-6.02,-991.616,109.312,320.128
-1019.432,57.584,340.624,-1.68,5.18,-6.02,-1015.04,93.696,327.936
-1016.504,51.728,341.112,-1.75,4.83,-5.95,-968.192,78.08,335.744
-1017.48,46.848,341.6,-1.75,4.55,-5.95,-991.616,85.888,327.936
-1016.504,41.48,340.624,-1.68,4.41,-5.95,-991.616,85.888,320.128
-1013.576,34.648,338.672,-1.47,4.2,-5.95,-1015.04,85.888,327.936
-1011.136,30.744,338.184,-1.26,4.06,-6.02,-976.0,85.888,320.128
-1006.744,26.84,334.768,-0.84,3.78,-6.02,-1007.232,78.08,312.32
-1005.768,24.4,330.376,-0.42,3.78,-5.95,-983.808,62.464,327.936
-1004.304,20.984,327.936,0.14,3.64,-5.95,-952.576,70.272,304.512
-1004.304,18.056,318.176,0.77,3.36,-5.95,-991.616,54.656,312.32
-1004.304,14.64,313.296,1.26,3.36,-5.81,-976.0,70.272,281.088
-1003.816,10.736,305.976,1.68,3.15,-5.88,-976.0,54.656,288.896
-1002.352,7.808,301.584,1.89,3.08,-5.88,-991.616,62.464,296.704
-999.912,5.856,299.144,2.24,3.01,-5.88,-976.0,70.272,281.088
-997.472,6.832,293.288,2.59,2.73,-5.95,-999.424,85.888,281.088
-993.568,8.296,291.336,2.94,2.73,-5.95,-976.0,54.656,288.896
-992.104,11.712,289.384,3.15,2.73,-6.02,-944.768,85.888,288.896
-987.224,14.152,286.456,3.36,2.66,-5.95,-983.808,78.08,273.28
-983.808,15.616,282.552,3.5,2.59,-5.95,-936.96,78.08,265.472
-978.928,17.08,281.088,3.5,2.66,-5.81,-983.808,62.464,257.664
-977.952,19.032,280.6,3.43,2.73,-5.74,-944.768,70.272,265.472
-975.512,16.104,278.16,3.5,2.66,-5.74,-952.576,78.08,273.28
-973.56,15.616,275.232,3.43,2.66,-5.67,-960.384,70.272,257.664
-972.584,11.712,273.28,3.36,2.73,-5.53,-944.768,93.696,257.664
-971.608,10.248,268.4,3.01,2.73,-5.53,-952.576,46.848,265.472
-971.12,9.272,265.96,3.01,2.8,-5.6,-929.152,70.272,249.856
-969.168,7.32,265.472,2.8,2.87,-5.6,-952.576,54.656,242.048
-968.68,8.296,262.544,2.8,3.08,-5.46,-952.576,70.272,249.856
-966.728,8.296,262.056,2.8,3.15,-5.46,-936.96,62.464,226.432
-964.776,10.736,262.056,2.8,3.22,-5.6,-944.768,93.696,265.472
-962.336,11.224,261.08,2.73,3.43,-5.46,-936.96,46.848,226.432
-961.848,12.2,264.984,2.66,3.57,-5.53,-921.344,54.656,234.24
-959.408,13.664,264.984,2.66,3.78,-5.46,-936.96,54.656,257.664
-957.944,14.152,266.936,2.52,3.85,-5.53,-944.768,70.272,249.856
-956.968,15.616,268.4,2.52,3.99,-5.53,-936.96,39.04,249.856
-953.064,17.08,269.864,2.31,4.2,-5.46,-944.768,62.464,257.664
-952.576,20.008,271.328,2.24,4.41,-5.67,-921.344,54.656,257.664
-951.112,21.472,271.328,2.1,4.62,-5.67,-929.152,70.272,265.472
-949.16,25.864,271.816,2.03,4.83,-5.67,-921.344,93.696,257.664
-948.672,28.792,272.792,1.82,4.9,-5.74,-921.344,85.888,257.664
-945.744,28.304,273.28,1.68,5.04,-5.67,-929.152,54.656,257.664
-944.28,25.376,271.328,1.61,5.11,-5.67,-929.152,78.08,249.856
-941.84,25.376,268.4,1.47,5.25,-5.74,-913.536,93.696,257.664
-938.912,23.424,265.96,1.47,5.46,-5.6,-929.152,78.08,242.048
-938.424,21.96,263.032,1.47,5.6,-5.6,-897.92,46.848,234.24
-936.472,20.008,264.496,1.54,5.74,-5.53,-905.728,78.08,257.664
-935.984,21.472,262.056,1.68,5.95,-5.46,-897.92,46.848,249.856
-935.496,19.032,264.008,1.75,6.02,-5.39,-874.496,54.656,234.24
-933.056,17.08,264.496,1.82,6.16,-5.32,-897.92,85.888,234.24
-929.64,19.032,266.936,1.96,6.3,-5.25,-921.344,62.464,265.472
-927.688,20.008,265.96,2.03,6.51,-5.18,-882.304,70.272,226.432
-925.736,21.96,263.52,2.24,6.58,-5.11,-905.728,78.08,249.856
-922.32,24.4,263.52,2.52,6.79,-5.25,-890.112,70.272,273.28
-919.88,26.84,262.056,2.8,7.07,-5.04,-897.92,78.08,234.24
-917.44,29.28,259.616,2.94,7.21,-5.11,-890.112,78.08,242.048
-916.464,30.256,259.616,3.36,7.49,-5.04,-890.112,85.888,249.856
-914.512,30.744,259.616,3.57,7.7,-5.04,-866.688,85.888,234.24
-912.072,30.256,260.104,3.92,7.84,-5.04,-890.112,70.272,249.856
-909.632,29.768,257.664,4.27,7.98,-5.11,-858.88,101.504,242.048
-907.192,27.816,257.664,4.69,8.26,-4.97,-890.112,78.08,234.24
-907.68,27.816,258.64,5.18,8.54,-5.04,-882.304,54.656,234.24
-906.704,26.84,255.712,5.6,8.89,-4.97,-897.92,62.464,242.048
-904.752,27.328,258.152,5.95,9.1,-5.04,-882.304,62.464,281.088
-904.752,28.792,253.76,6.37,9.31,-5.04,-882.304,78.08,218.624
-902.312,30.256,251.808,6.79,9.52,-4.97,-835.456,101.504,234.24
-902.312,30.744,249.856,7.14,9.73,-4.97,-866.688,46.848,242.048
-903.288,30.744,249.856,7.49,9.94,-4.9,-866.688,78.08,234.24
-901.336,27.816,249.856,7.77,10.29,-4.9,-866.688,101.504,226.432
-899.872,26.84,249.368,7.91,10.29,-4.83,-866.688,62.464,226.432
-901.336,27.328,248.88,8.26,10.64,-4.9,-858.88,109.312,249.856
-898.896,28.304,252.784,8.47,10.85,-4.83,-835.456,117.12,242.048
-898.896,29.28,252.296,8.75,10.99,-4.9,-890.112,93.696,218.624
-897.432,28.792,250.344,8.96,11.13,-4.97,-858.88,78.08,234.24
-896.456,31.232,248.392,9.17,11.27,-5.11,-882.304,85.888,242.048
-896.944,33.184,244.0,9.31,11.34,-5.11,-866.688,85.888,242.048
-896.456,37.088,244.976,9.45,11.48,-5.11,-851.072,62.464,226.432
-896.944,39.528,244.976,9.59,11.69,-5.04,-866.688,70.272,218.624
-897.432,41.48,246.928,9.52,11.76,-4.97,-890.112,70.272,226.432
-895.48,43.92,250.344,9.52,11.9,-4.83,-882.304,101.504,242.048
-894.016,42.944,251.808,9.45,11.83,-4.76,-874.496,78.08,242.048
-893.04,43.432,255.712,9.45,12.11,-4.76,-882.304,101.504,210.816
-891.576,42.944,257.176,9.38,12.04,-4.76,-843.264,93.696,234.24
-890.6,41.968,259.616,9.31,12.11,-4.62,-858.88,78.08,257.664
-891.576,44.896,262.544,9.17,12.18,-4.62,-874.496,85.888,273.28
-892.064,43.92,264.496,9.1,12.18,-4.69,-874.496,78.08,257.664
-890.6,45.872,266.448,8.89,12.11,-4.62,-874.496,85.888,249.856
-890.6,46.36,267.912,8.82,12.11,-4.48,-866.688,93.696,257.664
-888.16,48.312,269.864,8.54,11.97,-4.41,-866.688,93.696,226.432
-887.184,49.776,272.304,8.47,11.9,-4.27,-890.112,85.888,242.048
-888.16,50.752,272.792,8.33,11.62,-4.13,-866.688,78.08,273.28
-888.648,50.264,275.232,8.33,11.48,-3.85,-835.456,93.696,242.048
-888.16,48.312,276.696,8.19,11.34,-3.64,-866.688,93.696,273.28
-889.624,47.336,280.6,8.19,11.13,-3.5,-858.88,93.696,257.664
-892.064,44.896,283.04,8.19,10.85,-3.29,-874.496,101.504,265.472
-891.576,41.48,282.552,8.05,10.64,-3.22,-858.88,85.888,273.28
-892.552,38.552,282.552,7.91,10.36,-3.08,-882.304,85.888,265.472
-892.552,36.6,282.552,7.98,10.01,-3.08,-858.88,85.888,273.28
-893.04,35.136,283.04,8.05,9.66,-3.08,-882.304,93.696,265.472
-893.528,33.672,282.064,8.05,9.45,-2.87,-890.112,78.08,281.088
-892.552,32.208,282.064,8.26,9.1,-2.87,-866.688,85.888,249.856
-890.6,33.184,280.6,8.47,8.68,-2.66,-858.88,85.888,234.24
-889.136,34.16,284.016,8.61,8.4,-2.66,-858.88,85.888,257.664
-888.16,34.16,282.064,8.68,8.05,-2.52,-882.304,101.504,281.088
-887.672,34.16,281.088,9.03,7.91,-2.45,-858.88,85.888,265.472
-887.184,34.16,280.6,9.24,7.49,-2.45,-851.072,78.08,265.472
-886.208,35.624,280.6,9.38,7.35,-2.31,-874.496,93.696,249.856
-885.72,34.648,278.16,9.59,7.0,-2.31,-843.264,101.504,257.664
-884.744,36.6,276.208,9.66,6.86,-2.24,-874.496,93.696,273.28
-886.696,41.48,277.184,9.8,6.65,-2.24,-866.688,101.504,265.472
-883.28,41.968,276.696,9.8,6.44,-2.17,-858.88,78.08,242.048
-883.768,44.896,273.28,9.73,6.37,-2.1,-851.072,85.888,273.28
-883.28,44.896,272.792,9.66,6.16,-2.03,-890.112,101.504,265.472
-886.208,45.872,270.84,9.45,6.02,-1.89,-874.496,109.312,242.048
-885.232,43.432,268.888,9.31,5.74,-1.82,-874.496,70.272,249.856
-884.744,41.968,265.96,9.24,5.6,-1.61,-874.496,93.696,257.664
-885.232,38.064,265.472,9.03,5.32,-1.4,-866.688,109.312,234.24
-886.208,37.088,260.592,8.68,4.97,-1.33,-905.728,70.272,249.856
-885.232,38.064,262.544,8.61,4.76,-1.19,-874.496,93.696,265.472
-884.256,39.04,259.616,8.4,4.55,-1.12,-851.072,78.08,234.24
-880.352,40.016,256.688,8.26,4.2,-0.91,-835.456,93.696,242.048
-879.864,41.968,255.712,8.19,4.13,-0.84,-858.88,85.888,234.24
-880.84,41.48,251.32,8.12,3.92,-0.42,-882.304,85.888,249.856
-880.84,42.456,250.344,8.26,3.71,-0.21,-851.072,101.504,226.432
-882.304,40.992,250.832,8.12,3.5,0.07,-835.456,109.312,234.24
-882.304,38.552,250.344,8.05,3.22,0.21,-858.88,78.08,218.624
-883.28,36.112,251.808,7.98,3.01,0.42,-858.88,85.888,249.856
-884.256,33.672,253.272,7.98,2.73,0.49,-843.264,70.272,226.432
-884.744,30.744,253.272,7.84,2.38,0.56,-851.072,70.272,234.24
-882.792,30.256,252.784,7.84,2.17,0.63,-866.688,78.08,218.624
-884.744,28.792,252.784,7.91,1.96,0.84,-890.112,93.696,226.432
-885.232,26.84,252.784,7.91,1.75,0.84,-851.072,70.272,249.856
-886.696,25.864,254.248,8.05,1.54,0.98,-866.688,85.888,242.048
-888.16,26.352,252.296,7.98,1.33,1.12,-858.88,70.272,226.432
-890.112,23.912,252.784,7.98,1.12,1.26,-843.264,62.464,242.048
-893.04,22.448,251.32,7.98,0.84,1.33,-882.304,62.464,226.432
-894.992,21.472,251.32,8.19,0.84,1.26,-851.072,70.272,210.816
-896.456,18.544,253.272,8.26,0.63,1.33,-882.304,46.848,249.856
-899.384,17.08,254.248,8.47,0.28,1.4,-851.072,78.08,249.856
-902.312,15.616,257.176,8.61,0.14,1.61,-897.92,39.04,265.472
-902.312,13.176,259.616,8.82,-0.07,1.75,-882.304,62.464,242.048
-904.264,11.712,259.616,8.96,-0.28,1.89,-882.304,70.272,234.24
-904.752,9.272,261.568,9.24,-0.49,1.96,-874.496,62.464,234.24
-905.24,8.296,261.568,9.45,-0.7,1.96,-874.496,54.656,234.24
-908.168,6.344,261.08,9.87,-1.05,2.1,-905.728,78.08,249.856
-910.608,4.88,263.032,10.22,-1.4,2.1,-890.112,70.272,249.856
-910.12,4.392,261.568,10.71,-1.54,2.17,-866.688,62.464,210.816
-913.536,2.44,260.592,11.06,-1.82,2.17,-897.92,54.656,242.048
-913.048,0.0,259.128,11.34,-2.03,2.24,-882.304,54.656,234.24
-915.0,-0.976,258.64,11.62,-2.31,2.17,-882.304,46.848,226.432
-915.976,-0.976,258.152,11.9,-2.52,2.17,-890.112,54.656,249.856
-917.44,0.488,258.64,12.18,-2.66,2.24,-905.728,54.656,203.008
-915.0,2.44,257.664,12.32,-3.08,2.24,-897.92,78.08,257.664
-915.976,3.416,258.152,12.6,-3.15,2.38,-882.304,46.848,257.664
-915.488,2.928,256.2,12.81,-3.43,2.38,-874.496,93.696,249.856
-914.024,2.928,257.176,12.81,-3.64,2.45,-882.304,31.232,242.048
-914.512,1.464,257.176,13.02,-3.71,2.31,-905.728,54.656,249.856
-916.952,2.928,253.272,12.95,-3.99,2.17,-882.304,78.08,210.816
-918.904,2.44,253.272,12.95,-4.2,2.03,-921.344,39.04,234.24
-920.856,2.928,249.368,12.95,-4.41,1.89,-890.112,62.464,226.432
-923.296,5.368,249.368,12.88,-4.69,1.68,-890.112,46.848,218.624
-924.272,7.808,247.416,12.74,-4.69,1.61,-897.92,62.464,242.048
-923.784,11.712,249.856,12.6,-4.97,1.47,-882.304,62.464,218.624
-923.784,16.592,246.928,12.39,-5.11,1.26,-913.536,62.464,226.432
-925.248,20.496,248.392,12.18,-5.18,1.26,-905.728,62.464,242.048
-923.784,22.936,248.88,12.04,-5.25,1.12,-913.536,85.888,242.048
-924.272,25.376,248.392,11.83,-5.11,0.98,-874.496,93.696,249.856
-924.76,28.304,249.856,11.76,-5.11,0.84,-890.112,93.696,242.048
-926.712,27.328,251.808,11.48,-4.9,0.63,-897.92,62.464,226.432
-928.664,27.816,253.76,11.34,-4.76,0.56,-936.96,70.272,234.24
-929.152,27.816,257.176,10.92,-4.69,0.35,-882.304,78.08,234.24
-931.104,25.376,258.64,10.71,-4.41,0.21,-897.92,93.696,249.856
-932.568,25.864,262.056,10.36,-4.27,-0.07,-890.112,78.08,249.856
-934.52,27.816,261.568,10.36,-4.2,-0.14,-897.92,62.464,249.856
-935.984,27.816,263.52,10.22,-3.99,-0.35,-921.344,62.464,234.24
-936.472,27.328,263.032,10.08,-3.71,-0.35,-897.92,93.696,226.432
-935.984,26.84,265.472,10.01,-3.57,-0.42,-913.536,54.656,257.664
-936.472,26.84,266.936,9.87,-3.43,-0.56,-921.344,85.888,242.048
-936.96,26.84,272.304,10.01,-3.29,-0.63,-897.92,78.08,249.856
-936.96,28.304,272.304,10.01,-3.22,-0.63,-936.96,101.504,257.664
-936.96,29.768,275.72,10.08,-3.22,-0.7,-897.92,78.08,249.856
-936.472,30.744,281.576,10.22,-3.01,-0.63,-905.728,85.888,249.856
-935.496,31.72,283.528,10.22,-2.8,-0.56,-890.112,70.272,273.28
-935.008,32.696,287.432,10.22,-2.8,-0.42,-905.728,93.696,257.664
-934.52,31.72,287.432,10.36,-2.73,-0.35,-905.728,70.272,281.088
-934.032,31.72,290.848,10.15,-2.66,-0.35,-921.344,85.888,281.088
-932.08,31.72,292.312,10.15,-2.59,-0.28,-890.112,109.312,265.472
-933.544,31.232,295.728,10.22,-2.59,-0.14,-905.728,46.848,288.896
-931.592,31.72,297.192,10.22,-2.66,0.0,-913.536,78.08,273.28
-930.616,33.184,300.12,10.29,-2.73,0.07,-905.728,85.888,281.088
-927.688,33.184,302.072,10.43,-2.73,0.28,-905.728,93.696,265.472
-924.76,31.72,308.416,10.5,-2.87,0.42,-882.304,101.504,273.28
-923.784,31.72,310.368,10.5,-2.73,0.63,-905.728,78.08,296.704
-921.344,30.256,311.832,10.64,-2.87,0.84,-890.112,85.888,296.704
-921.344,27.328,311.344,10.85,-2.94,1.05,-905.728,70.272,296.704
-918.416,24.888,309.392,10.92,-2.94,1.12,-897.92,85.888,281.088
-917.44,22.936,310.368,10.92,-2.94,1.19,-874.496,70.272,273.28
-915.488,20.008,310.368,10.92,-3.01,1.33,-882.304,54.656,288.896
-915.976,19.032,313.296,10.99,-3.08,1.33,-874.496,78.08,312.32
-914.024,18.544,312.808,10.99,-3.15,1.47,-874.496,62.464,304.512
-913.048,22.448,312.808,10.85,-3.29,1.54,-866.688,78.08,288.896
-913.536,24.4,309.88,10.85,-3.29,1.68,-882.304,78.08,296.704
-914.024,29.768,311.344,10.78,-3.22,1.82,-866.688,93.696,288.896
-913.536,30.744,312.32,10.71,-3.22,1.89,-866.688,62.464,304.512
-915.0,28.792,310.856,10.5,-3.22,1.96,-890.112,70.272,273.28
-914.024,28.304,309.88,10.36,-3.29,2.1,-882.304,93.696,288.896
-913.536,27.328,307.928,10.15,-3.36,2.03,-905.728,78.08,281.088
-913.536,24.4,307.44,9.8,-3.36,1.96,-890.112,39.04,288.896
-912.072,22.936,305.976,9.45,-3.43,1.89,-882.304,78.08,273.28
-911.096,21.472,308.416,8.96,-3.57,1.61,-897.92,70.272,288.896
-910.12,21.472,310.368,8.54,-3.5,1.54,-890.112,46.848,281.088
-908.656,21.472,309.392,8.05,-3.57,1.33,-890.112,70.272,273.28
-906.704,21.472,308.416,7.56,-3.64,1.33,-897.92,78.08,304.512
-906.704,22.448,307.928,7.07,-3.64,1.19,-890.112,62.464,296.704
-906.216,21.472,306.952,6.65,-3.71,1.12,-866.688,78.08,288.896
-908.656,20.008,305.488,6.16,-3.64,1.05,-897.92,70.272,304.512
-911.584,17.568,306.952,5.67,-3.71,0.98,-882.304,70.272,312.32
-913.048,16.592,307.44,5.46,-3.85,0.7,-890.112,78.08,288.896
-916.464,13.664,308.416,5.11,-4.13,0.63,-890.112,78.08,304.512
-917.928,10.248,308.416,4.76,-4.27,0.42,-874.496,46.848,288.896
-918.904,9.272,306.952,4.55,-4.41,0.28,-929.152,62.464,296.704
-919.392,9.272,308.904,4.41,-4.55,0.0,-890.112,54.656,296.704
-920.368,8.296,307.44,4.27,-4.55,-0.21,-905.728,39.04,281.088
-923.296,7.808,308.416,4.13,-4.83,-0.35,-897.92,54.656,304.512
-925.248,8.296,310.856,4.06,-4.97,-0.7,-921.344,46.848,296.704
-925.248,9.272,313.296,3.92,-5.18,-0.84,-890.112,62.464,281.088
-926.712,10.248,310.368,3.92,-5.32,-0.98,-913.536,85.888,288.896
-928.664,10.736,311.344,3.85,-5.53,-1.26,-890.112,39.04,288.896
-929.64,9.76,310.368,3.78,-5.81,-1.47,-921.344,101.504,265.472
-932.08,8.784,308.904,3.78,-5.95,-1.61,-897.92,54.656,288.896
-933.544,9.76,310.856,3.78,-6.23,-1.75,-905.728,62.464,265.472
-932.568,11.224,307.928,3.85,-6.3,-1.96,-905.728,70.272,273.28
-932.568,13.176,305.488,3.92,-6.51,-2.17,-874.496,85.888,304.512
-934.032,13.176,309.88,3.99,-6.65,-2.31,-882.304,70.272,296.704
-934.032,16.592,310.856,4.06,-6.86,-2.52,-929.152,85.888,304.512
-930.128,18.544,310.856,4.2,-7.07,-2.59,-890.112,78.08,288.896
-930.616,19.52,316.224,4.27,-7.21,-2.73,-890.112,62.464,304.512
-930.128,20.984,315.736,4.2,-7.35,-2.8,-929.152,70.272,273.28
-929.64,22.448,319.64,4.48,-7.56,-3.01,-882.304,85.888,296.704
-929.152,22.448,318.664,4.55,-7.63,-3.15,-905.728,70.272,288.896
-928.664,22.448,316.224,4.55,-7.84,-3.22,-913.536,70.272,288.896
-930.616,23.424,314.272,4.48,-8.05,-3.22,-913.536,93.696,296.704
-933.544,23.424,313.784,4.34,-8.26,-3.36,-905.728,62.464,304.512
-936.472,25.376,314.272,4.27,-8.61,-3.43,-913.536,93.696,281.088
-936.96,26.84,314.272,4.06,-8.75,-3.57,-921.344,62.464,304.512
-938.424,30.256,311.832,3.85,-9.03,-3.43,-905.728,85.888,304.512
-936.96,34.648,311.832,3.78,-9.24,-3.57,-921.344,78.08,281.088
-937.936,37.576,310.856,3.71,-9.52,-3.64,-897.92,101.504,320.128
-938.424,37.576,311.832,3.5,-9.59,-3.71,-905.728,117.12,296.704
-939.888,39.04,312.808,3.36,-9.8,-3.71,-921.344,85.888,296.704
-940.376,39.528,313.296,3.08,-9.94,-3.71,-913.536,109.312,281.088
-939.888,40.504,313.296,2.94,-10.08,-3.78,-921.344,93.696,296.704
-939.888,40.504,313.296,2.8,-10.15,-3.92,-936.96,93.696,304.512
-939.888,40.016,311.832,2.59,-10.22,-3.92,-905.728,109.312,288.896
-939.4,40.016,311.832,2.59,-10.29,-3.92,-929.152,78.08,288.896
-938.912,41.968,306.952,2.45,-10.36,-4.06,-921.344,93.696,296.704
-939.4,44.408,305.0,2.31,-10.36,-4.2,-905.728,78.08,304.512
-942.328,44.896,304.512,2.17,-10.29,-4.13,-921.344,101.504,296.704
-943.792,45.384,302.072,1.96,-10.43,-4.27,-913.536,93.696,288.896
-945.256,44.408,299.632,1.75,-10.43,-4.34,-929.152,101.504,281.088
-945.744,45.872,298.168,1.61,-10.5,-4.55,-905.728,117.12,288.896
-949.16,44.408,296.216,1.54,-10.64,-4.62,-921.344,101.504,265.472
-951.112,43.92,294.752,1.4,-10.57,-4.69,-929.152,101.504,265.472
-953.064,43.432,294.752,1.4,-10.5,-4.76,-929.152,109.312,281.088
-954.528,42.456,294.752,1.4,-10.43,-4.9,-944.768,117.12,281.088
-956.968,41.968,294.264,1.33,-10.36,-4.97,-936.96,109.312,273.28
-959.408,41.968,296.704,1.33,-10.29,-5.18,-921.344,93.696,273.28
-961.36,43.92,294.264,1.26,-10.36,-5.39,-944.768,93.696,288.896
-963.8,43.92,293.288,1.4,-10.15,-5.53,-952.576,78.08,265.472
-965.752,44.896,289.384,1.33,-10.01,-5.74,-952.576,93.696,273.28
-970.632,45.872,286.944,1.26,-9.8,-6.02,-929.152,117.12,281.088
-972.584,44.408,284.992,1.33,-9.8,-6.23,-944.768,85.888,265.472
-974.536,43.432,284.504,1.4,-9.66,-6.3,-944.768,117.12,273.28
-976.976,39.528,281.576,1.33,-9.52,-6.44,-976.0,109.312,273.28
-977.464,40.016,280.112,1.33,-9.38,-6.51,-929.152,85.888,234.24
-976.976,40.504,279.136,1.47,-9.24,-6.51,-952.576,85.888,273.28
-977.464,43.432,281.576,1.47,-9.1,-6.58,-968.192,85.888,257.664
-976.0,45.384,279.136,1.68,-8.89,-6.72,-960.384,109.312,257.664
-975.512,45.872,275.232,1.75,-8.75,-6.72,-936.96,109.312,281.088
-972.584,47.336,274.744,1.75,-8.61,-6.72,-944.768,117.12,265.472
-972.584,48.8,273.768,1.82,-8.33,-6.65,-936.96,93.696,257.664
-970.144,50.264,275.232,1.82,-8.26,-6.65,-936.96,124.928,249.856
-969.656,53.68,271.816,1.89,-7.98,-6.79,-952.576,101.504,265.472
-969.168,54.656,273.768,1.82,-7.91,-6.72,-936.96,124.928,265.472
-966.728,55.144,271.328,1.68,-7.56,-6.79,-936.96,93.696,265.472
-965.264,57.584,268.4,1.54,-7.42,-6.86,-936.96,109.312,234.24
-962.336,59.048,267.912,1.47,-7.21,-6.79,-952.576,132.736,257.664
-962.336,61.488,265.96,1.19,-7.14,-6.72,-944.768,124.928,242.048
-961.36,62.952,269.864,0.91,-6.93,-6.51,-952.576,109.312,242.048
-959.408,63.928,271.328,0.77,-6.79,-6.44,-921.344,124.928,234.24
-957.944,66.368,273.28,0.56,-6.51,-6.3,-929.152,140.544,257.664
-956.48,69.296,273.28,0.42,-6.16,-6.16,-929.152,109.312,257.664
-956.968,68.32,274.744,0.21,-6.02,-5.95,-952.576,117.12,249.856
-955.016,68.808,276.696,0.0,-5.74,-5.74,-936.96,117.12,249.856
-953.552,67.344,276.208,-0.07,-5.39,-5.46,-905.728,132.736,249.856
-952.088,67.344,276.696,-0.28,-5.11,-5.32,-913.536,117.12,249.856
-951.6,68.808,277.184,-0.28,-4.9,-5.18,-960.384,117.12,249.856
-952.088,68.32,275.72,-0.21,-4.69,-4.9,-921.344,124.928,273.28
-950.136,67.832,276.208,-0.21,-4.48,-4.62,-929.152,109.312,257.664
-952.576,64.904,278.648,-0.07,-4.2,-4.34,-890.112,140.544,249.856
-951.6,61.488,279.624,0.14,-3.92,-4.06,-936.96,109.312,265.472
-951.112,58.56,282.552,0.28,-3.71,-3.78,-936.96,109.312,249.856
-951.6,53.68,285.48,0.56,-3.5,-3.5,-921.344,132.736,296.704
-952.576,50.264,286.944,0.7,-3.22,-3.36,-944.768,93.696,273.28
-953.552,46.36,285.48,0.84,-2.94,-3.08,-936.96,101.504,265.472
-955.016,46.848,287.432,0.98,-2.59,-2.87,-936.96,70.272,273.28
-953.552,45.384,288.408,1.19,-2.38,-2.73,-929.152,109.312,265.472
-955.504,45.872,288.408,1.4,-2.03,-2.45,-929.152,117.12,265.472
-954.04,48.312,290.36,1.54,-1.89,-2.24,-897.92,109.312,273.28
-955.504,48.8,292.8,1.75,-1.68,-2.1,-929.152,85.888,273.28
-958.432,50.264,293.776,2.03,-1.54,-1.82,-921.344,70.272,281.088
-962.336,50.264,292.8,2.38,-1.47,-1.82,-921.344,109.312,273.28
-963.8,49.288,292.312,2.59,-1.47,-1.54,-944.768,85.888,273.28
-966.24,49.776,286.944,2.87,-1.47,-1.54,-936.96,109.312,281.088
-969.168,48.312,284.016,3.08,-1.4,-1.33,-968.192,93.696,257.664
-972.096,48.312,282.064,3.22,-1.4,-1.26,-936.96,101.504,257.664
-975.512,48.312,279.624,3.43,-1.33,-1.12,-944.768,117.12,273.28
-976.0,50.752,280.112,3.57,-1.26,-0.98,-976.0,101.504,257.664
-976.0,50.264,281.576,3.5,-1.12,-0.84,-960.384,109.312,257.664
-976.488,49.776,282.064,3.57,-0.98,-0.56,-944.768,124.928,281.088
-974.048,50.752,282.064,3.71,-0.91,-0.42,-929.152,117.12,249.856
-976.0,50.752,283.528,3.92,-0.7,-0.28,-952.576,109.312,265.472
-974.536,50.264,282.064,3.99,-0.49,-0.14,-968.192,85.888,281.088
-975.512,51.24,280.112,4.34,-0.35,0.14,-936.96,109.312,265.472
-975.512,50.264,278.16,4.55,-0.07,0.35,-952.576,117.12,265.472
-978.44,47.824,278.16,4.76,0.0,0.56,-960.384,101.504,265.472
-982.832,47.824,276.208,5.11,0.21,0.84,-960.384,109.312,281.088
-984.296,48.312,273.768,5.46,0.28,0.98,-952.576,93.696,257.664
-984.296,51.24,273.768,5.74,0.42,1.19,-968.192,93.696,257.664
-986.736,55.144,269.864,5.88,0.42,1.26,-929.152,101.504,265.472
-986.736,57.096,267.424,6.09,0.56,1.47,-983.808,109.312,257.664
-986.736,61.0,265.96,6.3,0.7,1.68,-991.616,124.928,257.664
-989.176,63.44,265.96,6.44,0.84,1.89,-968.192,140.544,257.664
-992.104,65.88,264.984,6.58,0.98,2.17,-944.768,101.504,242.048
-992.104,68.808,265.96,6.65,1.19,2.38,-968.192,93.696,265.472
-994.544,74.176,269.864,6.58,1.33,2.52,-983.808,132.736,265.472
-996.008,75.64,266.936,6.72,1.61,2.8,-983.808,132.736,257.664
-998.448,76.616,267.912,6.58,1.75,3.01,-976.0,124.928,249.856
-998.936,76.616,269.376,6.44,2.1,3.29,-991.616,140.544,265.472
-1000.4,77.592,272.792,6.23,2.24,3.43,-960.384,124.928,242.048
-1003.328,74.176,272.792,6.23,2.45,3.57,-991.616,140.544,257.664
-1006.256,73.2,275.232,6.23,2.73,3.71,-983.808,117.12,257.664
-1008.696,74.176,274.256,6.44,2.94,3.92,-983.808,117.12,257.664
-1012.112,71.736,274.744,6.58,3.22,4.06,-991.616,163.968,257.664
-1016.504,73.2,274.744,6.93,3.36,4.13,-983.808,117.12,242.048
-1021.872,74.664,276.696,7.07,3.57,4.41,-1007.232,132.736,257.664
-1028.216,74.176,277.672,7.35,3.92,4.62,-1007.232,117.12,273.28
-1033.096,75.64,282.064,7.7,4.2,4.76,-1015.04,148.352,265.472
-1035.536,76.616,283.04,7.91,4.48,5.04,-1022.848,124.928,249.856
-1039.928,79.056,283.04,8.19,4.69,5.25,-1022.848,132.736,273.28
-1043.832,83.448,288.896,8.61,4.9,5.32,-1022.848,124.928,242.048
-1048.224,88.816,290.848,8.82,5.11,5.46,-1038.464,148.352,265.472
-1052.616,95.648,291.824,9.24,5.39,5.81,-1007.232,124.928,281.088
-1056.52,99.552,294.264,9.52,5.67,6.09,-1038.464,156.16,257.664
-1059.936,102.48,294.752,9.73,5.95,6.3,-1046.272,171.776,265.472
-1064.328,103.944,297.68,9.87,6.37,6.58,-1030.656,148.352,273.28
-1071.648,100.04,300.12,10.08,6.58,7.0,-1030.656,109.312,281.088
-1075.552,101.016,305.488,10.08,6.86,7.21,-1069.696,171.776,273.28
-1081.896,99.064,306.464,10.22,7.14,7.49,-1046.272,148.352,281.088
-1084.824,100.528,309.392,10.43,7.42,7.63,-1038.464,148.352,304.512
-1086.288,102.968,309.88,10.5,7.63,7.84,-1054.08,148.352,281.088
-1086.288,107.36,312.808,10.71,7.91,7.98,-1069.696,163.968,320.128
-1087.752,113.216,313.296,10.99,8.33,8.33,-1061.888,156.16,281.088
-1088.24,116.144,315.248,11.06,8.68,8.54,-1038.464,163.968,281.088
-1091.168,120.536,312.808,11.34,8.96,8.89,-1038.464,171.776,288.896
-1095.072,121.512,311.344,11.55,9.52,9.31,-1069.696,163.968,304.512
-1098.488,122.0,310.368,11.76,9.8,9.66,-1085.312,195.2,304.512
-1101.904,121.024,310.856,11.76,10.08,9.87,-1093.12,179.584,312.32
-1104.344,121.024,310.368,11.76,10.5,10.15,-1069.696,132.736,327.936
-1106.784,119.56,308.416,11.83,10.85,10.36,-1093.12,163.968,288.896
-1105.808,119.072,306.952,11.76,11.2,10.57,-1085.312,171.776,312.32
-1106.296,119.56,306.464,11.97,11.55,10.85,-1077.504,148.352,288.896
-1104.344,119.072,306.952,11.97,12.04,11.13,-1093.12,156.16,288.896
-1106.296,117.608,306.464,12.11,12.53,11.48,-1077.504,187.392,273.28
-1105.808,114.68,305.0,12.18,13.02,11.9,-1077.504,179.584,288.896
-1104.832,114.192,302.072,12.39,13.44,12.25,-1085.312,171.776,273.28
-1103.368,108.824,302.072,12.53,14.07,12.6,-1085.312,140.544,288.896
-1102.392,105.896,300.12,12.67,14.56,12.88,-1085.312,148.352,296.704
-1099.952,100.04,295.728,13.09,15.19,13.23,-1069.696,171.776,288.896
-1101.416,97.112,294.264,13.37,15.75,13.51,-1093.12,148.352,281.088
-1098.976,93.208,293.776,13.72,16.45,13.86,-1085.312,132.736,281.088
-1100.928,90.768,291.336,14.14,17.15,14.14,-1077.504,124.928,273.28
-1099.464,86.376,294.264,14.56,17.85,14.49,-1077.504,124.928,288.896
-1098.976,85.4,295.24,14.98,18.55,14.7,-1054.08,132.736,265.472
-1099.952,82.96,297.192,15.47,19.32,15.05,-1077.504,124.928,288.896
-1098.0,81.496,296.704,15.82,20.02,15.33,-1069.696,117.12,265.472
-1099.464,80.032,296.704,16.17,20.72,15.54,-1077.504,132.736,273.28
-1099.464,80.032,296.704,16.52,21.28,15.89,-1069.696,132.736,281.088
-1098.976,81.496,297.68,16.8,21.91,16.24,-1069.696,132.736,296.704
-1098.488,82.472,297.192,17.01,22.4,16.31,-1077.504,124.928,281.088
-1098.0,85.4,298.656,17.29,22.96,16.59,-1061.888,101.504,296.704
-1095.56,86.376,301.096,17.36,23.52,16.87,-1054.08,132.736,296.704
-1096.536,89.792,305.488,17.36,23.94,17.01,-1085.312,148.352,288.896
-1094.096,92.232,310.368,17.36,24.43,17.08,-1093.12,148.352,304.512
-1093.12,95.16,315.248,17.36,24.92,17.43,-1061.888,148.352,320.128
-1094.584,98.576,320.616,17.22,25.06,17.57,-1061.888,163.968,312.32
-1093.12,98.576,323.056,16.94,25.41,17.64,-1069.696,117.12,335.744
-1094.584,96.136,325.008,16.66,25.69,17.92,-1077.504,148.352,304.512
-1096.048,96.136,327.448,16.24,25.97,17.99,-1061.888,140.544,312.32
-1096.536,94.672,326.96,16.03,26.11,17.99,-1069.696,140.544,296.704
-1098.488,91.256,330.376,15.68,26.11,18.06,-1061.888,132.736,312.32
-1098.0,91.744,328.424,15.54,26.18,18.06,-1069.696,156.16,296.704
-1097.512,90.768,329.4,15.26,26.18,18.06,-1061.888,132.736,288.896
-1101.416,89.304,328.912,15.12,26.32,17.99,-1061.888,140.544,296.704
-1100.928,89.304,329.888,15.19,26.32,18.13,-1085.312,140.544,296.704
-1102.88,89.304,328.912,15.12,26.18,18.06,-1085.312,140.544,304.512
-1103.856,89.304,324.52,15.05,26.11,18.13,-1069.696,124.928,304.512
-1105.32,87.352,324.032,15.05,26.11,18.2,-1069.696,124.928,288.896
-1107.272,88.328,321.104,14.91,25.9,18.2,-1077.504,117.12,312.32
-1110.688,91.256,321.104,14.91,25.76,18.2,-1069.696,156.16,304.512
-1112.64,93.696,319.64,14.77,25.62,18.34,-1093.12,140.544,296.704
-1112.64,98.576,318.176,14.63,25.55,18.34,-1085.312,124.928,296.704
-1114.104,105.408,318.176,14.49,25.55,18.27,-1061.888,163.968,304.512
-1114.592,111.752,317.2,14.42,25.48,18.2,-1069.696,148.352,288.896
-1117.52,120.536,317.2,14.28,25.55,18.27,-1093.12,140.544,296.704
-1120.448,127.856,317.2,14.07,25.55,18.27,-1077.504,179.584,273.28
-1121.912,131.76,316.224,13.86,25.48,18.27,-1100.928,179.584,288.896
-1123.864,135.664,312.808,13.79,25.41,18.27,-1100.928,195.2,288.896
-1125.816,138.104,311.344,13.51,25.41,18.06,-1093.12,187.392,281.088
-1129.72,139.568,306.952,13.51,25.55,17.99,-1108.736,195.2,273.28
-1133.136,142.496,305.0,13.44,25.48,17.78,-1124.352,187.392,281.088
-1136.064,142.496,300.12,13.51,25.62,17.5,-1100.928,187.392,296.704
-1138.992,144.936,298.656,13.65,25.62,17.29,-1108.736,171.776,281.088
-1140.944,146.4,294.752,13.86,25.69,17.15,-1116.544,179.584,281.088
-1141.432,145.912,294.752,14.0,25.76,17.08,-1124.352,195.2,281.088
-1142.408,149.816,290.36,14.35,25.97,17.08,-1124.352,195.2,281.088
-1142.408,151.768,293.288,14.77,26.04,17.01,-1139.968,171.776,288.896
-1143.384,155.184,292.8,15.26,26.25,17.08,-1132.16,226.432,281.088
-1141.432,156.16,294.264,15.68,26.6,17.15,-1124.352,203.008,265.472
-1138.992,157.624,294.264,16.1,26.95,17.01,-1108.736,203.008,273.28
-1138.016,161.04,292.8,16.59,27.44,17.01,-1116.544,226.432,281.088
-1137.528,164.944,295.24,16.87,27.93,17.01,-1116.544,226.432,265.472
-1138.992,168.848,294.752,17.22,28.35,17.01,-1093.12,218.624,273.28
-1138.992,171.776,294.752,17.5,28.77,17.01,-1100.928,210.816,273.28
-1136.552,175.68,295.728,17.85,29.26,17.22,-1124.352,242.048,296.704
-1136.064,178.608,298.656,18.13,29.75,17.36,-1108.736,218.624,288.896
-1134.6,181.536,302.56,18.34,30.24,17.43,-1108.736,242.048,281.088
-1135.576,185.44,305.0,18.76,30.66,17.57,-1108.736,234.24,281.088
-1135.088,187.88,306.464,19.04,31.08,17.64,-1124.352,226.432,296.704
-1133.624,187.88,307.44,19.32,31.29,17.78,-1108.736,249.856,288.896
-1134.112,189.832,306.464,19.46,31.71,17.92,-1124.352,242.048,312.32
-1135.088,189.832,310.856,19.67,31.92,18.06,-1093.12,249.856,288.896
-1135.576,189.344,312.808,19.67,32.2,18.48,-1124.352,257.664,281.088
-1134.112,190.32,316.712,19.95,32.55,18.62,-1100.928,249.856,304.512
-1132.16,193.736,322.08,19.81,33.04,18.83,-1116.544,242.048,304.512
-1129.72,195.2,325.496,19.67,33.32,18.97,-1093.12,242.048,304.512
-1129.72,197.152,327.936,19.6,33.67,18.97,-1108.736,249.856,312.32
-1126.304,198.616,328.424,19.46,33.88,19.11,-1085.312,257.664,312.32
-1121.912,201.544,329.4,19.11,34.02,19.04,-1085.312,249.856,304.512
-1121.912,205.448,330.376,18.83,34.23,19.11,-1093.12,257.664,304.512
-1119.96,209.84,327.448,18.41,34.44,19.32,-1085.312,265.472,327.936
-1118.984,209.84,328.424,17.92,34.58,19.46,-1077.504,257.664,304.512
-1114.104,212.768,328.424,17.43,34.58,19.53,-1100.928,273.28,304.512
-1108.736,214.232,328.424,16.8,34.72,19.6,-1077.504,265.472,312.32
-1108.248,216.184,328.424,16.24,34.72,19.74,-1085.312,257.664,304.512
-1105.32,218.136,328.424,15.4,34.72,19.81,-1077.504,281.088,312.32
-1104.344,217.648,328.912,14.7,34.72,19.95,-1085.312,281.088,312.32
-1099.952,219.6,329.4,14.0,34.58,19.95,-1061.888,288.896,304.512
-1095.56,220.576,330.864,13.37,34.58,20.02,-1085.312,281.088,320.128
-1091.656,222.528,329.4,12.6,34.51,20.09,-1054.08,281.088,327.936
-1088.24,223.016,328.912,11.76,34.44,20.16,-1054.08,296.704,296.704
-1082.872,224.48,329.888,11.06,34.44,20.09,-1100.928,273.28,312.32
-1078.48,223.504,328.912,10.5,34.37,20.16,-1038.464,265.472,304.512
-1075.552,224.968,328.424,9.94,34.23,20.23,-1038.464,257.664,320.128
-1073.6,224.968,326.96,9.31,34.16,20.23,-1061.888,281.088,296.704
-1068.72,222.528,325.984,8.96,34.02,20.3,-1022.848,288.896,312.32
-1065.304,218.136,321.592,8.68,33.81,20.37,-1054.08,273.28,304.512
-1062.376,214.232,317.688,8.54,33.6,20.3,-1061.888,265.472,312.32
-1058.96,211.792,313.296,8.68,33.39,20.37,-1030.656,265.472,296.704
-1054.08,205.936,310.856,8.89,33.25,20.51,-1022.848,257.664,296.704
-1050.176,201.056,311.344,9.24,33.04,20.65,-1015.04,249.856,288.896
-1046.272,199.104,307.44,9.66,33.04,20.51,-1022.848,257.664,296.704
-1040.416,199.104,304.024,10.08,32.83,20.37,-1007.232,257.664,296.704
-1036.024,203.496,302.072,10.43,32.62,20.37,-991.616,242.048,273.28
-1033.096,207.4,299.144,10.64,32.41,20.37,-1015.04,273.28,281.088
-1029.68,211.792,297.192,10.71,32.34,20.44,-983.808,281.088,288.896
-1025.288,218.624,296.216,10.85,32.27,20.65,-1015.04,265.472,296.704
-1023.336,222.528,294.264,10.71,32.06,20.72,-991.616,288.896,273.28
-1018.944,228.872,289.872,10.64,31.92,20.86,-976.0,257.664,296.704
-1012.6,230.824,286.944,10.64,31.78,21.0,-976.0,288.896,249.856
-1010.16,236.192,282.552,10.57,31.85,21.21,-991.616,273.28,265.472
-1008.208,236.192,281.576,10.57,31.78,21.28,-991.616,265.472,281.088
-1006.256,235.216,280.112,10.43,31.78,21.42,-991.616,281.088,249.856
-1003.816,233.752,278.648,10.22,31.64,21.42,-983.808,265.472,273.28
-1000.4,234.24,278.16,9.87,31.57,21.49,-976.0,265.472,249.856
-996.984,236.192,271.816,9.8,31.78,21.56,-983.808,265.472,257.664
-993.08,240.584,270.352,9.59,31.78,21.63,-968.192,281.088,281.088
-987.712,242.536,265.96,9.59,31.85,21.84,-968.192,288.896,234.24
-986.248,245.952,265.96,9.59,32.06,22.05,-983.808,296.704,234.24
-984.784,248.392,264.496,9.45,32.13,22.26,-960.384,304.512,226.432
-982.832,250.344,261.568,9.31,32.2,22.47,-944.768,296.704,242.048
-981.856,252.296,258.64,8.96,32.13,22.61,-952.576,288.896,257.664
-980.88,253.76,258.152,8.68,32.13,22.75,-960.384,304.512,242.048
-982.344,257.664,256.688,8.47,32.27,22.89,-960.384,304.512,234.24
-981.856,257.176,255.224,8.12,32.06,22.96,-968.192,296.704,242.048
-980.392,260.104,250.832,7.77,32.2,23.1,-929.152,327.936,210.816
-981.368,264.008,249.368,7.35,32.06,22.96,-983.808,312.32,234.24
-981.368,267.424,248.392,6.79,31.99,23.03,-968.192,288.896,234.24
-982.832,268.888,244.976,6.37,31.92,23.17,-968.192,327.936,226.432
-979.904,272.792,242.048,5.88,31.78,23.1,-952.576,327.936,218.624
-978.44,276.208,240.096,5.32,31.71,23.31,-952.576,304.512,210.816
-975.024,278.648,240.584,4.83,31.64,23.31,-936.96,327.936,187.392
-976.0,279.624,239.12,4.2,31.57,23.38,-968.192,320.128,218.624
-975.512,279.624,236.68,3.64,31.57,23.52,-952.576,320.128,218.624
-973.56,282.064,235.216,3.08,31.57,23.59,-960.384,343.552,249.856
-974.048,283.528,232.288,2.45,31.36,23.66,-960.384,335.744,218.624
-974.536,284.504,227.896,1.75,31.29,23.8,-952.576,312.32,187.392
-972.584,286.944,223.504,1.05,31.15,24.01,-960.384,359.168,210.816
-971.12,286.944,220.576,0.42,31.08,24.22,-936.96,320.128,210.816
-969.168,287.432,215.208,-0.21,30.94,24.36,-921.344,359.168,210.816
-966.24,287.432,211.304,-0.84,30.8,24.71,-929.152,327.936,195.2
-964.776,285.968,208.376,-1.47,30.45,24.99,-952.576,327.936,179.584
-965.752,284.016,203.984,-1.96,30.1,25.34,-905.728,335.744,187.392
-963.8,283.04,198.616,-2.59,29.75,25.69,-936.96,327.936,171.776
-963.312,282.064,193.248,-3.43,29.33,26.18,-952.576,335.744,179.584
-960.872,282.552,192.76,-4.27,28.84,26.74,-921.344,304.512,163.968
-956.48,283.528,192.272,-5.04,28.35,27.23,-960.384,327.936,171.776
-953.064,284.992,191.296,-5.88,27.93,27.72,-913.536,327.936,171.776
-946.232,284.016,187.392,-6.51,27.44,28.21,-921.344,343.552,179.584
-939.888,281.576,188.368,-7.14,27.16,28.7,-921.344,327.936,171.776
-934.032,278.16,186.416,-7.91,26.88,29.33,-921.344,343.552,163.968
-929.64,274.256,183.0,-8.4,26.53,29.89,-890.112,320.128,163.968
-926.224,269.376,182.024,-8.82,26.11,30.24,-921.344,312.32,156.16
-918.904,264.496,177.144,-9.24,25.9,30.66,-913.536,312.32,156.16
-913.536,260.592,172.752,-9.45,25.55,31.01,-905.728,304.512,156.16
-907.68,255.224,165.432,-9.8,25.34,31.5,-858.88,304.512,124.928
-900.848,249.368,162.992,-10.15,24.99,31.99,-882.304,304.512,148.352
-896.456,244.0,160.552,-10.43,24.78,32.41,-858.88,304.512,148.352
-891.088,238.144,156.16,-10.57,24.43,32.9,-866.688,273.28,148.352
-886.208,230.336,153.232,-10.71,24.15,33.32,-874.496,257.664,148.352
-879.864,222.528,146.888,-10.99,23.94,33.74,-866.688,265.472,109.312
-875.96,214.72,142.984,-10.85,23.66,34.16,-858.88,257.664,140.544
-870.104,209.84,137.128,-10.78,23.38,34.51,-827.648,249.856,101.504
-865.224,201.544,134.2,-10.57,23.17,34.93,-835.456,234.24,109.312
-857.416,197.152,129.32,-10.57,22.89,35.21,-843.264,249.856,117.12
-851.56,193.248,129.32,-10.15,22.75,35.49,-827.648,242.048,109.312
-845.216,188.856,124.928,-10.08,22.68,35.84,-812.032,234.24,117.12
-838.384,187.392,121.024,-9.8,22.54,36.12,-796.416,242.048,109.312
-833.992,183.976,117.608,-9.45,22.4,36.4,-796.416,242.048,78.08
-828.624,183.976,115.168,-9.24,22.47,36.61,-835.456,242.048,109.312
-822.768,183.488,113.704,-9.1,22.4,36.82,-804.224,226.432,93.696
-817.888,183.0,110.776,-9.1,22.54,36.89,-780.8,242.048,85.888
-813.984,183.976,107.848,-9.1,22.47,37.03,-788.608,226.432,85.888
-810.08,183.0,105.408,-9.17,22.47,37.24,-796.416,226.432,93.696
-807.64,183.488,109.312,-9.38,22.54,37.38,-796.416,234.24,93.696
-809.592,185.44,107.848,-9.45,22.61,37.45,-788.608,265.472,85.888
-809.104,185.44,108.336,-9.66,22.47,37.59,-796.416,265.472,101.504
-808.616,185.44,107.36,-9.87,22.47,37.66,-772.992,242.048,62.464
-807.152,185.928,103.456,-10.08,22.4,37.66,-780.8,234.24,101.504
-805.2,184.952,100.04,-10.22,22.19,37.66,-772.992,242.048,70.272
-805.688,184.464,98.576,-10.43,22.05,37.59,-780.8,226.432,85.888
-805.688,183.976,94.672,-10.71,21.77,37.52,-780.8,242.048,70.272
-805.2,184.952,88.816,-10.92,21.56,37.52,-765.184,242.048,62.464
-803.736,186.904,84.424,-11.34,21.28,37.52,-757.376,249.856,46.848
-801.784,188.856,81.008,-11.62,21.07,37.66,-788.608,226.432,62.464
-799.344,191.296,78.08,-11.97,20.79,37.73,-788.608,257.664,70.272
-796.904,193.248,75.152,-12.25,20.58,37.87,-780.8,242.048,54.656
-794.952,193.736,70.76,-12.6,20.44,38.01,-765.184,265.472,31.232
-793.0,193.248,71.248,-12.95,20.37,38.08,-772.992,234.24,46.848
-791.048,189.832,67.832,-13.3,20.37,38.22,-749.568,249.856,54.656
-790.56,188.368,65.392,-13.72,20.09,38.22,-765.184,234.24,54.656
-789.584,185.44,62.952,-14.07,20.09,38.29,-788.608,234.24,39.04
-786.168,184.952,61.0,-14.35,20.02,38.36,-741.76,234.24,7.808
-782.752,184.464,55.144,-14.49,20.09,38.36,-772.992,249.856,39.04
-779.824,184.952,53.68,-14.42,20.23,38.57,-749.568,242.048,31.232
-776.408,186.416,51.24,-14.49,20.23,38.5,-788.608,234.24,39.04
-772.016,186.904,49.776,-14.56,20.37,38.64,-772.992,257.664,15.616
-769.576,187.88,47.824,-14.7,20.51,38.71,-741.76,249.856,39.04
-767.624,187.392,48.312,-14.84,20.51,38.85,-718.336,242.048,7.808
-764.696,189.344,46.36,-14.91,20.58,39.06,-749.568,234.24,15.616
-763.232,190.32,46.848,-14.91,20.44,39.13,-733.952,257.664,15.616
-760.792,190.32,45.384,-14.98,20.44,39.34,-733.952,226.432,15.616
-757.864,190.808,46.848,-15.12,20.37,39.48,-702.72,257.664,15.616
-755.424,189.832,46.848,-15.33,20.3,39.62,-741.76,234.24,46.848
-752.008,192.272,46.848,-15.47,20.09,39.69,-733.952,218.624,15.616
-750.056,193.248,46.848,-15.47,19.95,39.83,-726.144,249.856,46.848
-746.64,194.224,49.288,-15.54,19.74,40.11,-741.76,257.664,39.04
