acc_l_x[mg],acc_l_y[mg],acc_l_z[mg],gyro_x[dps],gyro_y[dps],gyro_z[dps],acc_h_x[mg],acc_h_y[mg],acc_h_z[mg]
-830.576,-358.192,192.272,-15.89,4.2,-1.26,-788.608,-320.128,187.392
-827.16,-360.144,191.296,-15.96,3.99,-1.33,-812.032,-296.704,179.584
-827.648,-363.072,191.296,-16.03,3.99,-1.33,-788.608,-327.936,179.584
-827.648,-365.024,192.272,-16.24,3.85,-1.47,-796.416,-304.512,163.968
-826.184,-366.976,190.32,-16.24,3.57,-1.61,-819.84,-304.512,179.584
-825.696,-370.392,186.416,-16.31,3.5,-1.61,-796.416,-320.128,156.16
-825.208,-371.368,181.048,-16.38,3.36,-1.68,-812.032,-304.512,156.16
-822.28,-370.392,181.048,-16.31,3.36,-1.68,-796.416,-296.704,156.16
-821.304,-369.416,180.072,-16.45,3.22,-1.68,-796.416,-312.32,148.352
-820.816,-366.488,179.584,-16.45,3.15,-1.61,-804.224,-304.512,156.16
-816.912,-362.096,179.584,-16.59,2.87,-1.4,-819.84,-312.32,156.16
-812.52,-360.144,180.56,-16.87,2.8,-1.4,-796.416,-296.704,171.776
-807.64,-355.264,181.536,-17.15,2.66,-1.4,-780.8,-281.088,148.352
-803.248,-353.312,183.976,-17.5,2.87,-1.4,-780.8,-273.28,148.352
-796.904,-350.384,183.976,-17.78,2.87,-1.33,-757.376,-304.512,171.776
-794.952,-349.408,185.44,-18.06,2.94,-1.26,-765.184,-304.512,156.16
-792.024,-350.872,185.44,-18.34,3.08,-1.12,-749.568,-296.704,171.776
-790.56,-352.336,182.024,-18.62,3.08,-1.05,-741.76,-296.704,179.584
-787.632,-354.776,181.048,-18.83,3.15,-0.98,-749.568,-281.088,148.352
-786.656,-357.216,176.656,-18.9,3.22,-0.77,-772.992,-312.32,148.352
-787.632,-361.12,176.656,-18.9,3.29,-0.77,-741.76,-296.704,140.544
-789.584,-364.536,178.608,-18.97,3.43,-0.77,-749.568,-320.128,132.736
-791.048,-366.0,181.536,-18.9,3.57,-0.77,-741.76,-312.32,171.776
-791.048,-366.0,178.608,-18.83,3.43,-0.84,-757.376,-320.128,140.544
-790.072,-366.488,178.12,-18.83,3.64,-0.84,-780.8,-327.936,156.16
-791.048,-366.0,175.192,-18.62,3.57,-0.84,-780.8,-327.936,179.584
-791.536,-363.072,172.752,-18.55,3.64,-0.77,-780.8,-288.896,148.352
-793.976,-360.144,170.312,-18.41,3.57,-0.91,-772.992,-281.088,140.544
-796.904,-355.264,169.336,-18.62,3.57,-0.77,-772.992,-288.896,156.16
-800.32,-349.896,167.384,-18.76,3.57,-0.7,-772.992,-296.704,140.544
-801.784,-345.504,167.384,-19.18,3.57,-0.63,-749.568,-281.088,156.16
-801.784,-341.112,168.848,-19.67,3.43,-0.42,-741.76,-281.088,171.776
-802.272,-337.208,165.92,-20.16,3.43,-0.21,-780.8,-296.704,171.776
-800.808,-337.696,165.92,-20.58,3.43,-0.07,-780.8,-281.088,171.776
-802.272,-337.696,166.896,-20.86,3.36,0.21,-772.992,-288.896,140.544
-804.712,-342.576,165.432,-21.14,3.29,0.28,-796.416,-296.704,171.776
-804.224,-345.504,164.456,-21.28,3.29,0.49,-772.992,-296.704,140.544
-805.688,-352.336,165.92,-21.35,3.22,0.63,-780.8,-296.704,124.928
-809.104,-356.24,164.456,-21.28,3.15,0.77,-772.992,-265.472,140.544
-812.032,-360.632,164.456,-21.28,2.87,0.91,-788.608,-304.512,163.968
-813.008,-365.024,162.504,-21.21,2.59,0.98,-796.416,-304.512,140.544
-813.496,-367.952,163.48,-21.07,2.45,1.26,-788.608,-320.128,124.928
-813.008,-368.928,163.48,-21.0,2.45,1.4,-788.608,-343.552,124.928
-815.448,-370.392,163.968,-21.0,2.24,1.68,-796.416,-327.936,163.968
-813.984,-368.928,166.408,-20.93,1.96,1.96,-796.416,-320.128,148.352
-813.984,-368.44,164.944,-20.79,1.96,2.24,-796.416,-312.32,124.928
-814.472,-366.488,163.968,-20.79,1.75,2.45,-780.8,-320.128,140.544
-816.424,-368.44,165.432,-20.58,1.68,2.73,-772.992,-304.512,117.12
-818.376,-366.488,163.968,-20.37,1.47,3.08,-788.608,-304.512,148.352
-819.352,-368.44,166.408,-20.09,1.26,3.29,-772.992,-320.128,163.968
-820.816,-369.416,169.824,-19.95,1.12,3.64,-765.184,-327.936,163.968
-819.352,-369.904,167.872,-19.6,1.05,3.85,-796.416,-312.32,179.584
-817.888,-371.856,163.968,-19.32,0.91,3.99,-772.992,-320.128,140.544
-816.424,-373.32,160.064,-18.9,0.7,3.92,-796.416,-320.128,140.544
-816.912,-373.808,160.064,-18.41,0.56,3.92,-796.416,-320.128,148.352
-819.84,-375.272,155.672,-17.85,0.56,3.85,-780.8,-327.936,124.928
-823.744,-374.784,154.696,-17.36,0.35,3.85,-804.224,-320.128,148.352
-827.16,-373.32,155.184,-17.08,0.21,3.99,-812.032,-343.552,140.544
-827.648,-369.904,155.672,-16.73,0.07,4.06,-780.8,-327.936,140.544
-826.672,-367.952,152.256,-16.52,-0.21,4.06,-812.032,-296.704,156.16
-829.112,-365.024,153.232,-16.31,-0.35,4.13,-796.416,-327.936,109.312
-829.6,-360.144,153.72,-16.38,-0.35,4.27,-788.608,-312.32,132.736
-830.576,-358.192,149.328,-16.17,-0.21,4.27,-788.608,-296.704,124.928
-831.064,-356.728,147.864,-16.03,-0.21,4.27,-804.224,-312.32,132.736
-832.528,-357.704,146.4,-15.96,-0.21,4.41,-788.608,-312.32,148.352
-836.92,-358.68,142.984,-15.96,-0.21,4.55,-812.032,-327.936,109.312
-841.312,-359.656,142.984,-15.96,-0.14,4.76,-819.84,-304.512,163.968
-847.656,-362.584,138.592,-16.1,-0.28,4.9,-804.224,-320.128,117.12
-849.608,-366.976,137.616,-16.31,-0.49,5.25,-812.032,-296.704,117.12
-852.536,-369.904,134.688,-16.59,-0.49,5.6,-835.456,-312.32,117.12
-853.024,-373.32,130.296,-16.8,-0.63,5.95,-819.84,-312.32,109.312
-854.0,-375.272,125.904,-16.87,-0.56,6.23,-827.648,-327.936,101.504
-853.024,-376.248,123.464,-17.01,-0.49,6.65,-827.648,-335.744,109.312
-855.952,-375.76,122.976,-17.08,-0.63,6.93,-812.032,-335.744,93.696
-855.952,-374.784,121.512,-17.22,-0.42,7.28,-827.648,-327.936,101.504
-854.976,-373.32,121.512,-17.22,-0.42,7.49,-827.648,-320.128,117.12
-855.952,-372.344,119.072,-17.29,-0.49,7.56,-819.84,-327.936,93.696
-854.976,-371.856,116.632,-17.36,-0.56,7.63,-843.264,-335.744,93.696
-854.488,-372.344,116.144,-17.43,-0.49,7.7,-843.264,-327.936,78.08
-853.024,-371.856,114.192,-17.36,-0.42,7.63,-835.456,-304.512,93.696
-853.512,-373.32,111.752,-17.57,-0.28,7.63,-819.84,-320.128,85.888
-857.904,-374.296,111.752,-17.78,-0.28,7.63,-835.456,-343.552,101.504
-858.88,-377.712,110.288,-17.92,-0.21,7.7,-812.032,-351.36,101.504
-857.416,-379.664,109.312,-18.27,-0.21,7.91,-827.648,-327.936,85.888
-856.44,-383.568,110.776,-18.48,-0.14,7.98,-827.648,-335.744,85.888
-852.536,-388.448,111.264,-18.62,0.14,8.12,-812.032,-335.744,101.504
-848.632,-390.888,110.776,-18.69,0.35,8.33,-819.84,-312.32,101.504
-845.216,-396.256,111.264,-18.76,0.7,8.47,-827.648,-320.128,101.504
-843.264,-400.16,110.288,-18.48,0.91,8.33,-827.648,-359.168,85.888
-841.8,-404.064,109.8,-18.27,1.26,8.33,-812.032,-359.168,85.888
-843.752,-407.48,111.264,-17.85,1.47,8.4,-804.224,-374.784,93.696
-844.728,-413.824,112.24,-17.15,1.68,8.19,-835.456,-366.976,70.272
-847.168,-419.192,109.8,-16.59,1.82,8.12,-827.648,-390.4,85.888
-849.12,-426.512,109.312,-15.75,2.1,7.98,-819.84,-382.592,85.888
-852.536,-429.928,112.728,-14.84,2.17,7.77,-812.032,-390.4,109.312
-854.0,-431.88,114.192,-14.0,2.45,7.42,-851.072,-374.784,85.888
-856.44,-433.832,117.12,-13.09,2.59,7.14,-827.648,-398.208,93.696
-854.976,-430.416,119.072,-12.25,2.87,6.72,-835.456,-359.168,124.928
-854.488,-424.56,118.584,-11.55,3.01,6.44,-843.264,-366.976,93.696
-854.0,-417.728,121.512,-10.92,3.15,6.3,-851.072,-366.976,93.696
-854.488,-409.432,122.488,-10.43,3.43,6.23,-812.032,-366.976,109.312
-854.0,-401.136,122.488,-9.94,3.71,6.23,-819.84,-366.976,85.888
-858.392,-392.84,122.488,-9.8,3.78,6.16,-843.264,-327.936,109.312
-862.296,-384.544,123.464,-9.66,3.92,6.16,-827.648,-335.744,109.312
-865.712,-381.616,123.952,-9.73,3.99,6.3,-851.072,-320.128,109.312
-872.056,-379.664,125.904,-9.8,3.85,6.23,-851.072,-335.744,117.12
-876.448,-377.712,126.392,-9.87,3.85,6.37,-843.264,-312.32,117.12
-877.912,-377.224,128.344,-10.08,3.78,6.44,-858.88,-343.552,140.544
-879.376,-379.664,124.44,-10.29,3.71,6.51,-858.88,-320.128,124.928
-880.84,-383.08,121.024,-10.5,3.64,6.65,-835.456,-343.552,109.312
-880.84,-385.52,119.56,-10.57,3.5,6.93,-835.456,-343.552,93.696
-882.304,-387.472,117.608,-10.64,3.22,7.14,-866.688,-320.128,70.272
-882.304,-389.912,120.048,-10.71,3.01,7.49,-835.456,-343.552,117.12
-884.256,-390.888,120.536,-10.71,2.73,7.91,-843.264,-343.552,117.12
-883.768,-393.328,126.88,-10.71,2.45,8.33,-866.688,-343.552,117.12
-879.376,-394.792,129.32,-10.5,2.24,8.61,-851.072,-327.936,85.888
-875.96,-399.184,129.32,-10.15,1.96,8.82,-851.072,-359.168,93.696
-872.544,-400.648,128.832,-9.87,2.1,8.96,-843.264,-343.552,124.928
-869.616,-399.184,127.368,-9.38,2.1,8.96,-835.456,-335.744,93.696
-867.664,-400.16,124.928,-8.96,2.17,8.89,-819.84,-320.128,109.312
-865.712,-399.184,121.512,-8.54,2.17,8.75,-835.456,-343.552,109.312
-865.712,-398.696,120.536,-8.33,2.03,8.82,-843.264,-327.936,101.504
-865.712,-395.768,119.072,-8.12,1.96,8.89,-827.648,-320.128,101.504
-865.712,-393.328,120.048,-8.12,1.89,8.96,-819.84,-359.168,93.696
-863.272,-391.376,116.144,-8.26,1.82,9.31,-819.84,-327.936,124.928
-862.296,-389.912,118.096,-8.47,1.75,9.66,-827.648,-359.168,62.464
-860.832,-386.984,120.048,-8.82,1.68,10.01,-843.264,-320.128,109.312
-856.44,-385.52,118.584,-9.1,1.68,10.22,-819.84,-304.512,101.504
-854.488,-386.496,119.56,-9.38,1.82,10.57,-835.456,-327.936,93.696
-854.976,-387.96,123.464,-9.66,1.89,10.85,-827.648,-366.976,101.504
-854.0,-393.816,126.88,-9.73,1.89,11.06,-827.648,-335.744,78.08
-854.0,-399.672,127.856,-9.73,1.89,11.06,-835.456,-359.168,124.928
-853.512,-403.576,128.344,-9.52,1.82,11.06,-819.84,-366.976,109.312
-853.512,-409.92,126.392,-9.24,1.82,10.85,-835.456,-366.976,93.696
-856.928,-415.288,127.368,-8.75,1.82,10.85,-819.84,-382.592,101.504
-858.88,-419.68,130.784,-8.33,1.82,10.57,-827.648,-366.976,140.544
-862.296,-425.536,127.856,-7.84,1.68,10.22,-835.456,-366.976,85.888
-866.2,-427.0,127.856,-7.42,1.75,9.94,-827.648,-366.976,109.312
-869.616,-428.464,125.904,-6.86,1.54,9.59,-858.88,-374.784,85.888
-871.08,-426.512,122.0,-6.51,1.4,9.24,-835.456,-382.592,93.696
-874.496,-425.536,120.536,-6.16,1.12,9.03,-827.648,-366.976,124.928
-877.424,-423.096,121.024,-5.81,0.98,8.82,-843.264,-374.784,101.504
-878.888,-420.168,119.072,-5.67,0.84,8.68,-858.88,-343.552,117.12
-882.304,-416.752,121.512,-5.46,0.7,8.54,-858.88,-390.4,93.696
-881.328,-413.824,120.536,-5.25,0.49,8.47,-835.456,-351.36,101.504
-881.816,-412.848,119.072,-4.97,0.42,8.4,-851.072,-366.976,93.696
-880.84,-411.872,116.144,-4.83,0.35,8.26,-851.072,-359.168,93.696
-879.376,-410.408,117.12,-5.04,0.28,8.12,-835.456,-366.976,85.888
-880.84,-408.456,121.024,-5.11,0.28,7.98,-851.072,-374.784,109.312
-882.304,-407.48,125.904,-5.39,0.28,7.77,-819.84,-359.168,93.696
-883.28,-409.432,126.88,-5.74,0.07,7.63,-843.264,-343.552,132.736
-880.84,-410.896,128.344,-5.95,0.07,7.56,-835.456,-366.976,101.504
-879.864,-414.312,126.88,-6.23,0.07,7.49,-843.264,-382.592,93.696
-879.864,-418.216,125.416,-6.09,0.0,7.28,-843.264,-343.552,85.888
-881.816,-421.632,123.464,-5.95,0.07,7.14,-843.264,-390.4,93.696
-881.328,-426.024,124.928,-5.6,0.07,6.79,-858.88,-374.784,93.696
-885.232,-429.928,123.952,-5.18,0.14,6.51,-843.264,-374.784,124.928
-888.648,-433.832,123.464,-4.76,0.07,6.09,-851.072,-366.976,93.696
-889.136,-435.296,121.512,-4.34,0.0,5.67,-866.688,-390.4,109.312
-888.648,-434.32,120.536,-3.85,-0.07,5.11,-874.496,-351.36,93.696
-890.112,-432.368,120.048,-3.5,-0.21,4.62,-858.88,-406.016,85.888
-888.16,-426.024,121.024,-3.36,-0.21,4.34,-843.264,-374.784,93.696
-886.208,-418.704,124.928,-3.08,-0.21,4.13,-858.88,-382.592,101.504
-884.256,-412.36,124.928,-2.94,-0.21,3.99,-858.88,-366.976,117.12
-884.744,-406.016,127.368,-2.8,-0.21,3.99,-851.072,-335.744,93.696
-882.304,-401.136,130.296,-2.73,-0.07,3.99,-851.072,-351.36,109.312
-882.792,-396.256,135.664,-2.73,0.0,3.92,-858.88,-335.744,124.928
-881.816,-392.84,138.592,-2.73,0.14,3.85,-851.072,-351.36,109.312
-882.304,-393.816,141.032,-2.66,0.21,3.64,-858.88,-327.936,124.928
-883.768,-394.304,139.568,-2.52,0.28,3.43,-866.688,-327.936,132.736
-885.72,-394.304,140.056,-2.52,0.35,3.15,-843.264,-335.744,124.928
-886.696,-394.792,138.592,-2.45,0.28,2.87,-866.688,-335.744,148.352
-888.16,-395.768,140.056,-2.38,0.28,2.66,-858.88,-343.552,124.928
-889.624,-398.696,139.568,-2.31,0.14,2.59,-851.072,-327.936,117.12
-892.064,-399.672,136.64,-2.17,0.07,2.59,-851.072,-343.552,124.928
-895.48,-401.624,138.104,-2.1,-0.07,2.59,-858.88,-327.936,101.504
-897.92,-402.6,136.152,-2.31,-0.28,2.59,-858.88,-343.552,117.12
-897.432,-402.6,135.664,-2.17,-0.49,2.66,-866.688,-335.744,117.12
-898.896,-402.6,137.128,-2.24,-0.63,2.87,-858.88,-351.36,117.12
-898.408,-402.112,138.592,-2.1,-0.84,3.01,-882.304,-327.936,109.312
-897.92,-402.112,142.496,-1.82,-0.84,3.15,-835.456,-351.36,109.312
-897.432,-399.184,142.496,-1.61,-0.84,3.15,-843.264,-343.552,117.12
-897.432,-396.256,142.984,-1.54,-0.84,3.08,-858.88,-366.976,124.928
-895.968,-393.816,142.984,-1.26,-0.91,2.87,-890.112,-366.976,140.544
-897.92,-389.424,142.496,-1.19,-0.98,2.66,-858.88,-327.936,132.736
-897.92,-385.032,143.472,-0.98,-0.91,2.38,-858.88,-335.744,140.544
-899.872,-380.152,143.472,-0.98,-0.84,2.03,-851.072,-335.744,140.544
-901.336,-375.76,142.984,-1.19,-0.77,2.03,-890.112,-343.552,124.928
-902.312,-372.832,142.984,-1.47,-0.77,1.96,-890.112,-351.36,140.544
-905.24,-373.32,140.544,-1.75,-0.98,1.96,-874.496,-327.936,117.12
-910.608,-375.272,139.08,-1.96,-0.91,2.1,-905.728,-320.128,140.544
-914.024,-378.2,140.544,-2.1,-0.91,2.24,-890.112,-312.32,117.12
-917.44,-381.128,142.496,-2.1,-1.05,2.17,-913.536,-335.744,132.736
-919.392,-382.592,142.984,-2.17,-1.26,2.17,-897.92,-351.36,117.12
-919.88,-385.032,143.96,-2.17,-1.26,2.1,-866.688,-320.128,109.312
-921.344,-387.472,145.424,-2.17,-1.33,1.96,-897.92,-320.128,140.544
-920.368,-390.4,145.912,-1.89,-1.47,1.96,-905.728,-351.36,148.352
-936.472,-393.328,158.112,-1.54,-1.68,2.03,-913.536,-351.36,156.16
-943.792,-396.744,161.528,-1.05,-2.94,2.1,-921.344,-335.744,117.12
-913.536,-398.696,122.976,-0.63,-3.36,1.82,-890.112,-351.36,101.504
-901.824,-399.672,110.776,-0.21,-2.24,1.47,-890.112,-366.976,85.888
-909.144,-393.816,122.0,0.56,-1.4,1.12,-866.688,-335.744,140.544
-912.072,-392.84,131.272,1.33,-1.19,1.19,-905.728,-335.744,117.12
-912.56,-389.424,129.808,2.1,-1.12,1.26,-897.92,-351.36,117.12
-912.072,-385.032,125.904,2.66,-0.91,1.33,-890.112,-335.744,109.312
-919.88,-379.664,124.44,2.94,-0.84,1.26,-874.496,-320.128,85.888
-927.2,-373.32,128.344,2.87,-0.77,1.12,-905.728,-327.936,109.312
-933.056,-368.928,133.712,2.73,-0.91,0.98,-913.536,-320.128,101.504
-934.032,-364.536,132.736,2.52,-1.05,0.77,-897.92,-335.744,117.12
-935.008,-360.632,131.272,2.17,-1.05,0.7,-897.92,-304.512,109.312
-932.08,-357.216,131.76,1.75,-1.12,0.49,-913.536,-304.512,109.312
-928.664,-353.312,133.224,1.33,-0.91,0.49,-890.112,-320.128,117.12
-926.712,-350.872,134.2,0.91,-0.84,0.35,-921.344,-312.32,117.12
-922.808,-350.384,134.2,0.42,-0.77,0.35,-905.728,-288.896,85.888
-921.344,-350.872,134.2,0.14,-0.63,0.35,-874.496,-288.896,117.12
-919.392,-355.264,133.712,0.0,-0.28,0.35,-874.496,-327.936,109.312
-917.44,-357.704,133.712,-0.14,-0.21,0.21,-905.728,-320.128,124.928
-919.392,-364.048,133.712,-0.21,-0.14,0.0,-913.536,-304.512,93.696
-920.856,-371.368,134.2,0.0,0.0,-0.28,-897.92,-320.128,109.312
-922.32,-377.712,130.784,0.21,0.07,-0.7,-913.536,-327.936,109.312
-923.296,-383.568,134.2,0.42,0.14,-1.05,-905.728,-343.552,109.312
-921.832,-387.472,130.784,0.56,0.28,-1.47,-874.496,-343.552,109.312
-922.808,-389.912,128.344,0.77,0.35,-1.68,-882.304,-312.32,124.928
-919.88,-389.912,127.368,0.98,0.49,-1.75,-890.112,-335.744,101.504
-920.856,-387.472,125.416,1.05,0.49,-1.82,-890.112,-327.936,117.12
-918.904,-386.496,125.904,1.26,0.49,-1.75,-890.112,-359.168,101.504
-918.904,-384.544,126.88,1.33,0.63,-1.68,-866.688,-327.936,101.504
-918.416,-383.08,128.344,1.47,0.7,-1.61,-866.688,-304.512,101.504
-915.976,-379.176,131.272,1.54,0.77,-1.47,-882.304,-359.168,109.312
-915.488,-377.224,133.712,1.75,0.91,-1.54,-905.728,-320.128,109.312
-911.584,-374.784,133.712,1.82,1.05,-1.61,-890.112,-304.512,101.504
-911.584,-372.832,136.152,1.96,1.26,-1.96,-874.496,-351.36,117.12
-909.144,-371.368,137.616,2.1,1.47,-2.1,-890.112,-327.936,140.544
-909.144,-370.392,138.592,2.17,1.68,-2.31,-874.496,-312.32,109.312
-906.704,-371.368,139.568,2.31,1.82,-2.59,-866.688,-312.32,117.12
-906.216,-369.904,137.128,2.45,1.89,-2.94,-890.112,-320.128,93.696
-905.24,-371.856,136.64,2.24,2.03,-3.08,-874.496,-296.704,124.928
-907.192,-372.344,138.104,2.17,2.1,-3.15,-858.88,-327.936,93.696
-907.68,-374.784,134.2,1.96,2.24,-3.29,-890.112,-320.128,124.928
-907.192,-374.296,138.592,1.82,2.17,-3.22,-874.496,-327.936,132.736
-907.68,-375.272,139.08,1.68,2.17,-3.22,-858.88,-320.128,109.312
-907.192,-377.224,140.056,1.61,2.24,-3.08,-882.304,-343.552,117.12
-906.704,-377.712,140.544,1.68,2.31,-2.94,-890.112,-327.936,109.312
-907.192,-377.712,142.008,1.68,2.24,-2.94,-851.072,-312.32,124.928
-906.704,-378.688,144.936,1.82,2.24,-2.8,-890.112,-335.744,148.352
-907.192,-379.664,144.936,2.03,2.24,-2.73,-874.496,-335.744,124.928
-907.192,-379.664,144.448,2.17,2.31,-2.73,-913.536,-312.32,109.312
-907.68,-380.64,144.936,2.52,2.24,-2.8,-882.304,-320.128,117.12
-905.728,-379.664,143.472,2.8,2.17,-2.87,-866.688,-343.552,109.312
-906.216,-380.64,147.376,2.87,2.1,-2.87,-858.88,-304.512,117.12
-907.68,-378.688,149.816,3.01,1.96,-2.8,-866.688,-327.936,148.352
-907.68,-376.248,153.232,3.15,1.89,-2.8,-866.688,-327.936,124.928
-904.752,-375.272,154.696,3.15,1.75,-2.8,-890.112,-320.128,124.928
-901.336,-373.808,154.696,3.08,1.68,-2.66,-874.496,-320.128,148.352
-902.8,-373.808,155.184,3.15,1.68,-2.59,-874.496,-320.128,156.16
-902.312,-372.344,150.304,3.08,1.61,-2.59,-851.072,-320.128,124.928
-901.824,-374.296,149.328,3.15,1.4,-2.52,-890.112,-312.32,132.736
-902.8,-378.2,146.4,3.36,1.19,-2.38,-890.112,-327.936,124.928
-902.8,-382.104,146.888,3.43,1.05,-2.31,-890.112,-343.552,109.312
-904.752,-383.08,146.888,3.36,0.84,-2.31,-858.88,-327.936,117.12
-902.8,-385.52,146.4,3.5,0.77,-2.31,-874.496,-320.128,124.928
-900.36,-387.96,144.448,3.57,0.49,-2.31,-882.304,-327.936,124.928
-899.872,-389.424,144.448,3.78,0.35,-2.45,-843.264,-351.36,117.12
-897.432,-388.448,144.448,3.99,0.14,-2.59,-858.88,-320.128,117.12
-896.456,-386.496,144.936,4.06,0.07,-2.8,-882.304,-327.936,140.544
-894.992,-385.52,142.008,4.2,0.07,-2.94,-874.496,-359.168,101.504
-896.944,-382.104,139.08,4.34,-0.14,-3.01,-874.496,-320.128,124.928
-898.408,-381.128,134.2,4.48,-0.14,-3.08,-866.688,-327.936,109.312
-899.384,-382.104,128.832,4.62,-0.28,-3.08,-858.88,-327.936,124.928
-904.264,-379.176,123.952,4.41,-0.49,-3.01,-866.688,-351.36,117.12
-905.728,-377.712,123.952,4.34,-0.63,-3.01,-858.88,-335.744,117.12
-907.68,-374.784,123.952,4.06,-0.77,-2.94,-851.072,-320.128,109.312
-908.168,-373.808,120.536,3.78,-0.98,-2.87,-858.88,-327.936,101.504
-909.632,-371.368,120.048,3.5,-1.19,-2.73,-890.112,-351.36,109.312
-906.704,-369.416,118.584,3.36,-1.26,-2.66,-874.496,-327.936,85.888
-910.12,-367.952,115.168,3.22,-1.47,-2.66,-874.496,-296.704,78.08
-911.096,-367.952,113.216,3.22,-1.4,-2.66,-874.496,-320.128,78.08
-910.608,-367.952,109.312,3.22,-1.4,-2.73,-858.88,-304.512,78.08
-913.536,-367.952,110.776,3.15,-1.33,-2.8,-913.536,-312.32,70.272
-915.976,-368.44,114.192,2.94,-1.33,-2.87,-874.496,-320.128,93.696
-915.976,-365.512,118.096,2.59,-1.47,-3.01,-882.304,-327.936,109.312
-916.464,-365.024,120.048,2.24,-1.47,-3.01,-874.496,-304.512,85.888
-914.024,-363.56,120.536,2.03,-1.4,-3.01,-905.728,-304.512,85.888
-912.072,-363.56,119.56,1.82,-1.33,-3.01,-866.688,-304.512,117.12
-912.56,-364.536,118.584,1.96,-0.98,-3.01,-890.112,-296.704,101.504
-915.976,-366.488,119.56,2.1,-0.77,-3.22,-905.728,-327.936,109.312
-917.44,-367.464,118.096,2.17,-0.7,-3.43,-874.496,-304.512,85.888
-921.344,-370.392,115.656,2.24,-0.56,-3.64,-882.304,-327.936,93.696
-923.784,-373.32,113.704,2.1,-0.49,-3.85,-913.536,-335.744,85.888
-928.176,-376.248,111.752,2.03,-0.63,-3.92,-858.88,-312.32,85.888
-930.616,-381.128,110.776,2.1,-0.56,-4.06,-913.536,-327.936,70.272
-931.104,-385.52,113.704,2.03,-0.49,-3.99,-882.304,-312.32,85.888
-931.104,-388.448,114.192,2.31,-0.49,-3.85,-921.344,-320.128,109.312
-931.104,-390.888,116.632,2.66,-0.49,-3.78,-921.344,-351.36,101.504
-929.64,-391.864,117.12,3.08,-0.21,-3.71,-913.536,-327.936,85.888
-927.688,-392.84,115.168,3.64,-0.07,-3.78,-897.92,-351.36,101.504
-925.736,-392.352,117.12,4.06,0.21,-3.92,-897.92,-327.936,78.08
-926.712,-391.376,118.584,4.62,0.35,-4.06,-913.536,-351.36,93.696
-926.224,-391.376,120.536,4.97,0.49,-4.34,-866.688,-312.32,109.312
-926.224,-393.328,122.976,5.53,0.56,-4.48,-913.536,-327.936,109.312
-926.224,-394.304,124.928,5.88,0.7,-4.69,-897.92,-351.36,117.12
-923.784,-393.328,124.44,6.23,0.7,-4.83,-890.112,-343.552,109.312
-921.832,-393.816,127.856,6.37,0.77,-4.9,-874.496,-335.744,109.312
-920.368,-391.864,125.416,6.51,0.91,-4.9,-897.92,-335.744,93.696
-920.368,-387.96,128.832,6.65,1.12,-4.97,-874.496,-327.936,101.504
-918.904,-383.08,126.88,6.58,1.19,-4.9,-897.92,-335.744,117.12
-917.928,-379.176,126.88,6.65,1.4,-4.9,-874.496,-327.936,109.312
-918.904,-376.248,128.832,6.51,1.47,-4.69,-866.688,-327.936,117.12
-918.904,-371.856,133.224,6.51,1.47,-4.69,-905.728,-320.128,132.736
-918.904,-370.392,133.712,6.37,1.47,-4.55,-913.536,-288.896,101.504
-918.416,-367.464,137.616,6.16,1.47,-4.62,-905.728,-312.32,140.544
-918.416,-366.488,140.544,6.09,1.4,-4.62,-890.112,-312.32,109.312
-918.904,-366.488,144.448,6.09,1.54,-4.55,-874.496,-312.32,124.928
-916.952,-368.44,144.936,5.88,1.54,-4.76,-874.496,-296.704,117.12
-917.44,-367.952,146.4,5.88,1.61,-4.83,-890.112,-281.088,124.928
-918.416,-368.44,143.472,5.67,1.82,-4.97,-905.728,-320.128,140.544
-919.392,-366.976,141.032,5.53,1.75,-4.9,-874.496,-320.128,117.12
-920.856,-366.488,142.008,5.39,1.68,-4.83,-874.496,-335.744,109.312
-922.808,-367.464,141.52,5.11,1.47,-4.69,-890.112,-327.936,148.352
-920.368,-367.464,142.008,4.97,1.4,-4.62,-890.112,-320.128,101.504
-920.368,-368.44,141.52,4.9,1.33,-4.34,-866.688,-312.32,124.928
-917.928,-367.952,142.984,4.83,1.26,-4.2,-890.112,-327.936,140.544
-917.44,-368.928,147.376,4.97,1.19,-4.13,-897.92,-343.552,124.928
-916.464,-369.904,148.84,5.11,1.05,-4.27,-890.112,-312.32,124.928
-914.024,-370.392,149.816,5.18,1.05,-4.41,-866.688,-335.744,124.928
-913.048,-369.416,150.304,5.32,0.98,-4.55,-851.072,-351.36,124.928
-911.096,-367.952,147.864,5.32,0.84,-4.76,-890.112,-312.32,124.928
-910.608,-369.904,146.4,5.25,0.77,-4.9,-897.92,-296.704,117.12
-911.096,-366.976,146.4,5.25,0.7,-4.9,-843.264,-320.128,148.352
-912.56,-364.536,144.936,5.04,0.56,-4.83,-897.92,-320.128,117.12
-914.512,-364.048,145.424,4.83,0.56,-4.76,-897.92,-312.32,124.928
-915.976,-363.072,142.984,4.69,0.42,-4.55,-897.92,-288.896,117.12
-916.952,-362.096,145.424,4.55,0.42,-4.34,-866.688,-304.512,148.352
-915.976,-359.168,147.864,4.27,0.42,-4.13,-890.112,-327.936,132.736
-914.512,-359.656,148.352,4.13,0.28,-4.13,-897.92,-288.896,140.544
-913.536,-358.192,145.424,3.92,0.21,-4.06,-890.112,-304.512,140.544
-910.608,-357.216,146.888,3.57,0.28,-3.92,-866.688,-304.512,140.544
-909.632,-356.728,148.352,3.43,0.21,-3.85,-905.728,-288.896,124.928
-908.168,-358.192,143.96,3.29,0.07,-3.78,-866.688,-304.512,124.928
-907.192,-360.144,145.912,3.22,0.28,-3.78,-882.304,-296.704,124.928
-906.704,-362.096,146.888,3.29,0.35,-3.78,-890.112,-304.512,124.928
-907.192,-365.512,145.912,3.29,0.28,-3.78,-882.304,-327.936,109.312
-909.144,-366.976,142.984,3.36,0.21,-4.06,-866.688,-304.512,124.928
-908.656,-368.928,142.984,3.36,0.14,-4.2,-890.112,-320.128,93.696
-910.12,-368.928,142.008,3.22,0.21,-4.27,-890.112,-327.936,124.928
-911.584,-370.392,142.496,3.08,0.0,-4.41,-874.496,-304.512,109.312
-910.12,-368.44,146.888,2.94,0.0,-4.27,-897.92,-312.32,124.928
-911.584,-365.024,146.888,2.73,-0.14,-4.13,-890.112,-312.32,109.312
-910.608,-363.56,149.328,2.66,0.0,-3.92,-890.112,-304.512,124.928
-913.536,-361.608,149.816,2.66,0.0,-3.85,-897.92,-304.512,124.928
-913.536,-358.68,151.768,2.73,0.07,-3.78,-882.304,-304.512,117.12
-914.512,-358.192,152.256,2.73,0.21,-3.78,-897.92,-304.512,140.544
-915.976,-356.728,156.648,2.8,0.28,-3.85,-874.496,-304.512,140.544
-918.416,-357.216,158.112,2.73,0.28,-3.99,-905.728,-312.32,132.736
-918.416,-357.216,162.992,2.59,0.42,-4.06,-874.496,-304.512,124.928
-918.416,-355.264,163.48,2.45,0.28,-4.13,-882.304,-320.128,148.352
-916.464,-355.752,166.408,2.45,0.35,-4.13,-897.92,-296.704,163.968
-915.488,-355.264,166.896,2.38,0.49,-4.13,-874.496,-312.32,156.16
-914.024,-353.312,168.36,2.45,0.63,-4.13,-866.688,-296.704,124.928
-913.048,-350.872,168.36,2.31,0.84,-4.2,-866.688,-281.088,140.544
-914.024,-350.872,170.8,2.31,0.98,-4.2,-858.88,-288.896,163.968
-914.512,-349.408,171.288,2.1,0.98,-4.13,-866.688,-288.896,163.968
-916.464,-349.896,171.288,2.03,0.98,-4.06,-890.112,-296.704,132.736
-916.464,-349.408,169.824,1.89,0.91,-3.85,-897.92,-304.512,163.968
-915.488,-352.336,168.36,1.82,0.77,-3.78,-866.688,-320.128,140.544
-915.488,-352.824,166.896,1.54,0.77,-3.57,-874.496,-273.28,124.928
-915.488,-354.288,166.896,1.47,0.56,-3.36,-851.072,-312.32,148.352
-916.464,-355.264,166.896,1.54,0.42,-3.15,-874.496,-304.512,148.352
-914.024,-355.264,165.92,1.54,0.35,-2.8,-890.112,-320.128,156.16
-913.048,-357.216,164.944,1.68,0.21,-2.59,-890.112,-304.512,156.16
-911.584,-357.216,162.992,1.75,0.21,-2.38,-897.92,-304.512,140.544
-911.096,-357.216,164.456,1.82,0.28,-2.31,-866.688,-327.936,163.968
-908.656,-356.24,162.016,1.82,0.14,-2.17,-858.88,-312.32,132.736
-906.704,-356.24,166.408,1.75,0.07,-2.03,-858.88,-288.896,156.16
-901.824,-354.776,168.36,1.61,0.0,-1.89,-858.88,-327.936,140.544
-896.944,-356.24,165.92,1.33,0.0,-1.75,-866.688,-296.704,148.352
-893.04,-356.728,170.8,1.12,0.14,-1.61,-858.88,-312.32,148.352
-890.112,-357.216,168.848,0.91,0.21,-1.47,-882.304,-320.128,140.544
-886.696,-358.68,169.336,0.77,0.42,-1.26,-835.456,-312.32,156.16
-886.208,-362.584,165.92,0.42,0.63,-1.12,-866.688,-327.936,140.544
-884.744,-365.512,164.944,0.07,0.77,-1.05,-851.072,-304.512,140.544
-887.672,-369.416,162.016,-0.14,0.7,-0.91,-858.88,-327.936,117.12
-887.672,-372.344,158.112,-0.21,0.63,-0.91,-858.88,-320.128,163.968
-887.672,-376.736,156.16,-0.35,0.63,-0.84,-851.072,-312.32,140.544
-888.16,-380.64,155.672,-0.35,0.56,-0.84,-819.84,-351.36,140.544
-888.648,-383.568,157.624,-0.28,0.49,-0.77,-843.264,-351.36,132.736
-886.696,-385.52,159.576,-0.42,0.42,-0.77,-851.072,-327.936,140.544
-887.184,-386.984,160.064,-0.42,0.35,-0.84,-858.88,-343.552,140.544
-880.84,-387.472,159.576,-0.49,0.42,-0.84,-851.072,-327.936,140.544
-880.84,-386.984,159.576,-0.63,0.28,-0.84,-827.648,-327.936,140.544
-878.4,-388.448,155.672,-0.7,0.35,-0.77,-858.88,-335.744,140.544
-876.936,-387.96,155.184,-0.84,0.42,-0.7,-843.264,-312.32,117.12
-878.888,-387.96,151.768,-0.91,0.49,-0.56,-866.688,-343.552,132.736
-880.84,-386.496,150.304,-0.98,0.42,-0.49,-866.688,-351.36,132.736
-880.84,-386.496,149.816,-1.4,0.35,-0.35,-843.264,-320.128,109.312
-882.304,-386.008,149.816,-1.75,0.14,-0.21,-858.88,-359.168,117.12
-880.84,-385.032,148.352,-2.1,0.28,0.0,-835.456,-335.744,140.544
-881.816,-385.032,148.84,-2.38,0.14,0.21,-858.88,-320.128,124.928
-878.888,-386.496,147.864,-2.52,0.21,0.35,-835.456,-359.168,148.352
-879.376,-387.96,146.888,-2.59,0.14,0.35,-866.688,-312.32,124.928
-876.936,-390.4,146.888,-2.66,0.14,0.42,-843.264,-304.512,124.928
-876.936,-393.816,148.352,-2.73,0.07,0.49,-843.264,-335.744,124.928
-873.52,-394.792,148.352,-2.8,0.0,0.56,-851.072,-327.936,124.928
-871.568,-396.744,145.912,-2.87,0.0,0.56,-827.648,-343.552,124.928
-868.152,-399.672,145.424,-2.94,0.07,0.7,-858.88,-327.936,148.352
-871.08,-401.136,146.4,-2.87,0.07,0.77,-827.648,-374.784,117.12
-872.056,-401.136,148.352,-2.87,-0.14,0.98,-851.072,-335.744,117.12
-871.08,-403.088,145.912,-2.52,-0.21,0.98,-835.456,-374.784,109.312
-872.544,-402.6,145.424,-2.52,-0.28,1.12,-819.84,-343.552,140.544
-873.52,-402.112,144.448,-2.45,-0.21,1.26,-843.264,-382.592,117.12
-873.52,-400.648,146.4,-2.24,-0.28,1.4,-851.072,-351.36,148.352
-874.008,-398.208,144.448,-2.03,-0.42,1.61,-858.88,-374.784,101.504
-875.96,-397.72,144.448,-1.75,-0.42,1.68,-835.456,-366.976,101.504
-877.424,-395.768,145.912,-1.54,-0.28,1.89,-851.072,-351.36,117.12
-880.352,-396.256,148.352,-1.47,-0.28,2.1,-835.456,-351.36,140.544
-879.376,-395.768,146.4,-1.26,-0.28,2.31,-843.264,-351.36,101.504
-878.4,-394.792,143.96,-1.19,-0.28,2.59,-843.264,-351.36,132.736
-877.424,-392.84,143.472,-1.4,-0.42,2.8,-843.264,-359.168,132.736
-877.912,-392.352,144.936,-1.26,-0.35,3.08,-882.304,-351.36,117.12
-877.912,-388.936,142.984,-1.26,-0.28,3.36,-851.072,-327.936,140.544
-879.376,-389.424,146.888,-1.26,-0.21,3.57,-843.264,-320.128,117.12
-880.84,-389.424,143.96,-1.12,-0.28,3.85,-851.072,-335.744,117.12
-881.328,-389.912,144.448,-1.05,-0.21,4.06,-866.688,-343.552,140.544
-879.376,-393.816,142.496,-0.91,-0.21,4.41,-843.264,-320.128,117.12
-880.352,-396.744,138.104,-0.7,-0.07,4.62,-843.264,-327.936,124.928
-879.376,-399.672,133.224,-0.42,0.0,4.83,-858.88,-359.168,124.928
-881.328,-401.136,128.344,-0.21,0.21,5.04,-843.264,-343.552,117.12
-888.16,-401.136,124.44,-0.21,0.28,5.11,-866.688,-343.552,101.504
-891.576,-400.648,122.488,-0.21,0.14,5.32,-851.072,-366.976,101.504
-896.456,-399.184,119.56,-0.28,0.14,5.6,-851.072,-320.128,93.696
-899.872,-396.256,119.56,-0.42,0.07,6.02,-843.264,-327.936,109.312
-901.824,-395.28,119.56,-0.63,-0.07,6.37,-858.88,-343.552,85.888
-902.8,-393.328,119.072,-0.98,0.07,6.79,-866.688,-335.744,93.696
-900.848,-394.304,118.584,-1.19,0.07,7.14,-874.496,-335.744,93.696
-900.848,-397.72,117.608,-1.47,0.35,7.42,-890.112,-366.976,101.504
-898.896,-400.16,115.656,-1.68,0.42,7.7,-851.072,-374.784,124.928
-902.312,-404.064,111.752,-1.82,0.7,7.91,-874.496,-359.168,70.272
-906.704,-409.432,111.752,-1.89,0.84,8.12,-882.304,-359.168,93.696
-912.072,-415.288,110.288,-1.89,1.05,8.4,-905.728,-374.784,78.08
-915.976,-422.608,102.968,-1.82,1.12,8.68,-890.112,-366.976,78.08
-920.856,-431.392,100.04,-1.82,1.26,8.96,-897.92,-390.4,78.08
-926.712,-438.224,99.064,-1.61,1.4,9.31,-905.728,-366.976,62.464
-931.592,-444.08,96.136,-1.4,1.47,9.59,-913.536,-382.592,70.272
-936.472,-448.472,92.72,-1.12,1.47,10.01,-905.728,-413.824,70.272
-939.4,-451.888,88.328,-0.84,1.61,10.29,-929.152,-390.4,62.464
-940.864,-451.888,87.84,-0.63,1.75,10.57,-936.96,-406.016,46.848
-937.448,-452.864,85.4,-0.42,1.89,11.06,-929.152,-398.208,46.848
-939.888,-451.4,83.936,-0.07,2.1,11.41,-921.344,-390.4,54.656
-940.376,-447.496,81.008,0.28,2.38,11.76,-913.536,-406.016,70.272
-941.352,-446.52,81.984,0.56,2.73,12.04,-921.344,-382.592,62.464
-945.256,-442.616,81.008,0.7,3.01,12.18,-936.96,-390.4,70.272
-949.16,-442.616,79.056,0.91,3.22,12.18,-944.768,-382.592,62.464
-949.648,-441.152,78.568,0.91,3.29,12.11,-929.152,-382.592,78.08
-950.136,-442.128,79.056,0.77,3.57,12.11,-944.768,-374.784,62.464
-949.648,-444.08,76.616,0.56,3.85,12.18,-929.152,-413.824,70.272
-949.16,-446.52,77.104,0.42,4.27,12.18,-929.152,-390.4,62.464
-950.624,-449.448,78.568,0.35,4.76,12.46,-913.536,-398.208,54.656
-952.088,-450.912,78.568,0.21,5.11,12.53,-913.536,-390.4,62.464
-954.04,-457.256,75.152,0.28,5.6,12.67,-921.344,-413.824,46.848
-956.968,-459.208,69.784,0.35,6.02,12.67,-913.536,-413.824,54.656
-957.944,-461.648,63.44,0.28,6.58,12.67,-897.92,-390.4,39.04
-962.336,-462.136,62.464,0.21,7.07,12.6,-936.96,-413.824,62.464
-964.776,-464.088,64.416,-0.21,7.56,12.6,-929.152,-406.016,46.848
-966.24,-464.088,65.88,-0.63,7.91,12.74,-936.96,-421.632,46.848
-970.144,-465.552,65.88,-1.05,8.26,12.74,-944.768,-390.4,39.04
-968.68,-469.456,63.928,-1.12,8.47,12.81,-944.768,-421.632,15.616
-966.728,-471.896,59.536,-1.12,8.82,12.88,-929.152,-429.44,31.232
-965.264,-476.776,53.68,-0.84,9.38,12.88,-929.152,-413.824,39.04
-963.8,-481.168,52.704,-0.49,9.87,12.81,-936.96,-429.44,15.616
-962.824,-487.512,48.8,0.07,10.64,12.6,-968.192,-437.248,23.424
-965.752,-493.856,49.288,0.49,11.2,12.32,-929.152,-445.056,31.232
-967.704,-500.2,48.312,0.84,11.69,11.97,-929.152,-460.672,31.232
-969.168,-506.544,48.312,1.12,12.04,11.62,-944.768,-452.864,15.616
-967.216,-510.936,47.824,1.33,12.25,11.34,-921.344,-452.864,23.424
-964.288,-515.328,51.728,1.61,12.74,11.2,-936.96,-468.48,23.424
-956.968,-515.816,51.24,1.75,13.09,11.06,-944.768,-468.48,23.424
-952.088,-517.28,45.872,1.96,13.86,10.99,-929.152,-468.48,39.04
-952.088,-516.792,46.36,2.1,14.91,10.99,-944.768,-452.864,31.232
-954.528,-513.376,44.896,2.24,15.61,11.06,-929.152,-484.096,46.848
-959.408,-509.472,40.992,2.17,16.38,11.13,-929.152,-460.672,39.04
-960.872,-502.64,33.184,2.03,16.94,11.41,-921.344,-460.672,0.0
-967.704,-499.712,25.864,1.54,17.43,11.83,-929.152,-429.44,-7.808
-972.584,-498.248,21.96,1.05,17.85,12.32,-944.768,-452.864,0.0
-977.952,-496.784,20.496,0.56,18.06,12.88,-952.576,-460.672,-15.616
-979.904,-496.784,17.08,0.07,18.34,13.3,-952.576,-452.864,-31.232
-980.88,-496.296,14.64,-0.42,18.48,13.72,-952.576,-460.672,7.808
-980.88,-497.272,13.176,-0.98,18.69,14.07,-929.152,-445.056,-15.616
-978.928,-499.712,10.248,-1.33,18.83,14.28,-936.96,-445.056,-31.232
-977.952,-502.64,12.2,-1.68,18.97,14.56,-968.192,-445.056,-7.808
-973.072,-507.52,12.688,-2.03,19.11,14.84,-929.152,-445.056,-15.616
-969.656,-514.84,18.056,-2.1,19.25,15.19,-929.152,-452.864,-15.616
-965.264,-520.208,15.616,-1.96,19.53,15.54,-944.768,-468.48,-7.808
-961.36,-525.576,15.128,-1.75,19.81,15.89,-929.152,-476.288,7.808
-958.432,-531.432,13.664,-1.33,20.09,16.1,-929.152,-484.096,-15.616
-958.92,-535.824,13.176,-0.84,20.51,16.17,-936.96,-491.904,-7.808
-958.92,-538.264,13.176,-0.21,20.93,16.17,-921.344,-491.904,-7.808
-961.36,-537.776,12.2,0.49,21.35,16.17,-936.96,-484.096,0.0
-960.872,-536.8,12.2,1.05,21.63,16.03,-921.344,-468.48,0.0
-962.336,-533.872,10.736,1.75,21.98,15.89,-913.536,-476.288,7.808
-961.36,-531.432,8.296,2.45,22.33,15.82,-944.768,-476.288,7.808
-960.384,-526.064,5.856,2.94,22.68,15.68,-936.96,-491.904,0.0
-959.896,-523.136,6.344,3.5,22.96,15.61,-968.192,-460.672,-23.424
-959.408,-519.232,6.832,3.85,23.31,15.54,-952.576,-460.672,-7.808
-957.944,-517.28,8.784,4.13,23.66,15.33,-944.768,-460.672,0.0
-954.528,-514.352,8.296,4.69,24.01,15.19,-929.152,-468.48,-23.424
-950.136,-512.4,8.784,5.18,24.29,15.19,-929.152,-460.672,-7.808
-948.184,-510.936,9.76,5.67,24.78,15.12,-929.152,-468.48,-7.808
-944.28,-510.448,11.224,6.51,25.27,14.98,-936.96,-468.48,-7.808
-942.816,-509.472,12.2,7.28,25.69,14.56,-905.728,-460.672,-23.424
-939.4,-510.448,12.688,8.26,26.25,14.0,-921.344,-445.056,0.0
-939.888,-508.984,13.176,9.38,27.02,13.37,-913.536,-460.672,0.0
-937.936,-509.96,9.272,10.36,27.58,12.46,-890.112,-468.48,-23.424
-938.424,-506.544,3.904,11.34,28.35,11.41,-905.728,-460.672,-15.616
-940.864,-504.104,2.44,11.9,28.98,10.43,-921.344,-460.672,-46.848
-941.84,-498.736,-3.416,12.25,29.4,9.52,-929.152,-452.864,-39.04
-942.816,-495.808,-5.368,12.32,29.75,8.96,-929.152,-437.248,0.0
-945.256,-489.464,-2.928,12.18,30.17,8.61,-921.344,-452.864,-15.616
-947.696,-484.584,0.0,11.76,30.73,8.47,-921.344,-429.44,0.0
-947.696,-480.192,5.368,11.48,31.22,8.54,-913.536,-429.44,0.0
-945.744,-476.776,9.272,11.27,31.78,8.68,-905.728,-429.44,-7.808
-945.256,-476.776,6.832,11.27,32.41,8.82,-936.96,-429.44,-15.616
-944.768,-477.752,-2.44,11.76,33.25,8.82,-913.536,-452.864,-31.232
-942.328,-479.704,-21.96,12.25,34.16,8.61,-936.96,-445.056,-23.424
-944.768,-482.144,-39.528,12.81,35.07,8.54,-913.536,-437.248,-46.848
-953.064,-486.048,-53.192,13.09,36.05,8.47,-936.96,-406.016,-78.08
-964.288,-490.44,-61.488,13.09,36.54,8.68,-913.536,-445.056,-62.464
-976.488,-495.32,-63.44,12.88,36.54,9.24,-952.576,-445.056,-70.272
-988.2,-500.688,-67.832,12.53,36.26,10.01,-936.96,-429.44,-70.272
-997.472,-504.104,-73.688,12.04,35.63,10.99,-960.384,-445.056,-93.696
-1003.328,-508.984,-78.568,11.83,34.86,12.25,-968.192,-452.864,-93.696
-1007.72,-512.4,-84.912,12.18,34.02,13.72,-991.616,-437.248,-101.504
-1013.576,-515.816,-85.888,12.81,33.53,14.91,-968.192,-460.672,-93.696
-1017.968,-519.232,-83.936,14.14,32.83,16.1,-991.616,-452.864,-85.888
-1023.824,-518.256,-77.104,16.24,31.99,16.87,-991.616,-460.672,-109.312
-1024.8,-526.552,-62.464,19.04,31.15,17.01,-1007.232,-484.096,-85.888
-1015.04,-538.752,-60.024,23.31,30.24,16.66,-983.808,-515.328,-78.08
-995.032,-545.096,-80.032,27.93,29.96,15.05,-968.192,-468.48,-78.08
-974.048,-542.168,-92.232,31.85,30.03,12.6,-944.768,-491.904,-85.888
-963.312,-543.144,-81.984,34.86,30.45,10.01,-952.576,-476.288,-109.312
-955.504,-535.824,-67.344,36.96,30.31,7.7,-905.728,-484.096,-85.888
-939.4,-529.968,-60.512,37.66,29.75,6.09,-905.728,-460.672,-78.08
-927.688,-520.696,-52.704,36.89,29.4,5.32,-913.536,-468.48,-70.272
-920.368,-514.352,-41.968,35.28,29.4,5.39,-897.92,-445.056,-54.656
-910.608,-506.056,-32.208,33.46,29.54,6.65,-882.304,-445.056,-54.656
-904.752,-500.2,-30.256,31.99,29.75,8.61,-858.88,-452.864,-31.232
-899.872,-494.832,-28.792,31.36,30.52,10.99,-866.688,-452.864,-78.08
-898.408,-493.856,-23.424,31.43,31.29,13.3,-874.496,-445.056,-46.848
-896.944,-494.832,-16.104,32.69,32.27,15.33,-897.92,-429.44,-31.232
-892.552,-493.856,-17.08,34.86,33.39,16.8,-866.688,-429.44,-15.616
-890.112,-493.856,-15.616,37.59,34.86,17.29,-851.072,-445.056,-46.848
-888.648,-495.32,-9.76,40.46,36.47,17.22,-843.264,-406.016,-15.616
-891.088,-499.712,-0.976,43.47,38.15,16.52,-851.072,-460.672,-23.424
-891.576,-500.688,4.392,46.41,39.83,15.4,-858.88,-445.056,-7.808
-891.576,-501.176,8.296,48.86,41.16,13.86,-858.88,-445.056,-15.616
-894.016,-501.176,14.64,50.75,42.7,12.11,-874.496,-437.248,15.616
-891.088,-500.688,20.496,52.5,43.54,10.64,-827.648,-445.056,-7.808
-886.696,-494.832,20.984,54.04,44.45,9.24,-851.072,-445.056,-7.808
-883.28,-490.928,24.4,55.3,45.5,8.26,-858.88,-437.248,15.616
-882.792,-490.44,25.864,56.49,46.69,7.7,-843.264,-437.248,7.808
-883.28,-487.024,20.008,58.38,47.95,7.63,-843.264,-445.056,0.0
-887.184,-489.952,-0.976,60.48,49.49,7.77,-858.88,-452.864,-7.808
-899.384,-498.736,-19.032,63.28,51.94,8.05,-890.112,-468.48,-31.232
-888.16,-512.888,-72.224,66.57,52.99,8.47,-851.072,-445.056,-117.12
-865.712,-526.552,-156.648,69.58,54.32,8.82,-835.456,-484.096,-187.392
-863.76,-542.168,-230.336,71.61,56.49,9.31,-851.072,-523.136,-249.856
-885.72,-553.88,-270.352,72.52,58.17,10.29,-858.88,-491.904,-281.088
-937.448,-566.568,-273.28,72.38,58.45,12.04,-929.152,-507.52,-273.28
-1007.72,-573.888,-251.808,71.75,56.77,14.63,-991.616,-523.136,-265.472
-1080.432,-578.768,-212.28,70.84,52.92,17.71,-1054.08,-507.52,-218.624
-1145.336,-580.232,-173.728,69.86,47.32,21.49,-1116.544,-530.944,-218.624
-1194.624,-579.744,-145.424,69.86,40.88,25.62,-1163.392,-515.328,-195.2
-1220.488,-576.816,-134.688,71.05,34.51,29.82,-1186.816,-530.944,-171.776
-1226.832,-571.936,-136.64,73.15,28.49,33.04,-1186.816,-499.712,-156.16
-1216.096,-565.104,-144.936,76.37,23.59,35.42,-1179.008,-499.712,-148.352
-1198.04,-553.392,-148.352,80.01,19.25,36.33,-1147.776,-499.712,-163.968
-1169.248,-540.216,-148.84,83.79,15.75,35.98,-1124.352,-484.096,-171.776
-1133.624,-522.648,-137.128,87.36,12.95,34.79,-1108.736,-452.864,-171.776
-1094.584,-505.08,-125.904,90.16,11.06,32.76,-1030.656,-452.864,-148.352
-1052.128,-485.072,-110.776,92.05,10.15,30.45,-1022.848,-421.632,-101.504
-1014.064,-467.016,-97.112,92.96,10.36,28.14,-960.384,-398.208,-117.12
-979.904,-450.424,-85.4,93.17,11.48,26.25,-952.576,-374.784,-124.928
-947.208,-432.368,-79.544,92.61,13.3,24.92,-936.96,-390.4,-93.696
-921.344,-419.192,-81.008,91.56,15.4,24.01,-913.536,-382.592,-85.888
-902.312,-408.944,-83.936,90.23,17.78,23.52,-858.88,-335.744,-109.312
-891.088,-402.6,-89.304,88.69,20.51,23.52,-866.688,-335.744,-117.12
-888.16,-397.232,-97.112,86.94,23.17,23.8,-843.264,-359.168,-117.12
-895.48,-395.768,-101.504,85.26,25.83,24.22,-866.688,-374.784,-124.928
-907.68,-398.208,-108.336,83.65,28.42,24.71,-890.112,-359.168,-132.736
-929.152,-403.088,-115.168,82.11,30.73,25.06,-913.536,-359.168,-109.312
-954.04,-413.824,-120.536,80.78,32.69,25.34,-913.536,-366.976,-132.736
-983.808,-423.096,-129.32,79.45,34.3,25.34,-968.192,-366.976,-148.352
-1017.48,-436.76,-133.712,78.4,35.42,25.2,-991.616,-390.4,-148.352
-1053.592,-451.4,-131.272,77.63,36.05,24.78,-1022.848,-406.016,-140.544
-1090.192,-467.504,-131.76,77.21,35.63,23.87,-1069.696,-421.632,-148.352
-1121.424,-481.168,-131.76,77.28,34.65,22.82,-1093.12,-421.632,-124.928
-1146.8,-495.32,-134.688,77.42,33.39,21.7,-1093.12,-476.288,-163.968
-1168.76,-508.008,-133.224,77.84,31.78,20.37,-1132.16,-460.672,-156.16
-1185.84,-519.72,-129.808,78.47,29.82,18.83,-1163.392,-468.48,-148.352
-1195.112,-530.456,-125.416,79.31,27.65,17.5,-1179.008,-491.904,-117.12
-1199.016,-538.264,-118.096,80.15,25.41,16.17,-1186.816,-476.288,-140.544
-1194.136,-547.536,-114.68,80.92,23.31,15.05,-1179.008,-499.712,-117.12
-1185.84,-556.32,-113.704,81.97,21.63,14.21,-1163.392,-507.52,-140.544
-1175.104,-561.2,-111.264,82.81,20.23,13.44,-1132.16,-507.52,-140.544
-1164.368,-567.544,-107.36,83.72,19.18,13.09,-1155.584,-507.52,-117.12
-1157.048,-570.96,-96.624,84.49,18.2,12.81,-1116.544,-530.944,-124.928
-1148.752,-573.888,-84.424,84.84,17.5,12.95,-1093.12,-507.52,-85.888
-1140.456,-577.792,-69.296,85.05,16.8,13.23,-1100.928,-515.328,-78.08
-1130.696,-580.72,-59.536,85.26,16.38,13.79,-1108.736,-530.944,-101.504
-1118.008,-583.16,-59.048,85.54,16.66,14.77,-1085.312,-577.792,-54.656
-1104.344,-588.04,-65.392,86.17,17.57,15.89,-1085.312,-523.136,-78.08
-1095.072,-591.456,-80.032,87.15,18.83,16.94,-1046.272,-554.368,-93.696
-1093.608,-597.8,-87.352,88.27,20.51,17.99,-1054.08,-530.944,-109.312
-1102.392,-598.776,-90.768,89.6,22.05,18.83,-1061.888,-530.944,-109.312
-1115.08,-599.264,-87.352,91.07,23.31,19.6,-1085.312,-546.56,-109.312
-1129.72,-598.776,-77.592,92.47,23.87,20.16,-1093.12,-546.56,-93.696
-1146.8,-596.824,-66.856,94.08,24.29,20.58,-1100.928,-554.368,-93.696
-1161.44,-596.336,-61.0,95.62,24.57,20.93,-1132.16,-530.944,-70.272
-1172.176,-592.92,-59.536,97.09,24.71,21.07,-1163.392,-538.752,-54.656
-1185.352,-589.504,-61.0,98.7,24.64,20.93,-1132.16,-546.56,-78.08
-1197.064,-581.208,-61.0,100.1,24.64,20.65,-1186.816,-530.944,-85.888
-1209.752,-573.4,-59.048,101.43,24.29,20.09,-1186.816,-530.944,-101.504
-1221.464,-566.568,-55.144,102.55,23.45,19.46,-1202.432,-507.52,-85.888
-1227.808,-557.784,-49.288,103.39,22.4,18.62,-1202.432,-515.328,-54.656
-1229.76,-548.024,-43.432,104.23,21.21,17.78,-1218.048,-499.712,-70.272
-1229.272,-536.312,-37.088,104.79,19.95,16.87,-1202.432,-484.096,-54.656
-1227.32,-525.088,-29.768,105.21,19.04,16.17,-1194.624,-452.864,-46.848
-1221.464,-513.376,-25.864,105.49,18.13,15.47,-1218.048,-460.672,-39.04
-1210.24,-502.152,-22.448,105.63,17.43,15.05,-1194.624,-429.44,-39.04
-1199.504,-492.88,-20.984,105.49,16.94,14.56,-1171.2,-452.864,-39.04
-1189.256,-481.168,-16.592,105.28,16.52,14.07,-1163.392,-429.44,-7.808
-1177.056,-472.872,-10.736,104.79,16.17,13.79,-1147.776,-429.44,-23.424
-1164.856,-462.624,-1.464,104.37,15.96,13.44,-1155.584,-429.44,-15.616
-1152.656,-453.352,5.368,103.81,15.68,13.02,-1132.16,-406.016,-15.616
-1138.504,-444.568,9.76,103.32,15.89,12.74,-1100.928,-374.784,0.0
-1124.352,-438.712,11.712,102.76,16.38,12.39,-1108.736,-366.976,-15.616
-1115.568,-432.856,13.664,102.41,16.94,11.97,-1093.12,-366.976,7.808
-1107.76,-428.464,15.128,101.99,17.85,11.55,-1108.736,-374.784,7.808
-1101.416,-427.488,20.496,101.57,18.62,10.78,-1054.08,-398.208,15.616
-1098.0,-427.488,23.912,101.22,19.25,10.15,-1069.696,-374.784,15.616
-1097.024,-425.048,29.768,100.73,19.81,9.45,-1077.504,-382.592,0.0
-1096.536,-424.072,40.992,100.31,20.16,8.61,-1093.12,-382.592,46.848
-1099.952,-423.584,49.776,99.61,20.23,7.91,-1069.696,-382.592,23.424
-1104.344,-422.608,60.024,99.12,20.09,7.21,-1046.272,-366.976,31.232
-1109.712,-421.144,68.808,98.49,20.02,6.72,-1085.312,-374.784,70.272
-1107.272,-421.632,70.272,98.35,19.88,6.37,-1085.312,-374.784,46.848
-1106.784,-421.632,69.784,98.28,19.88,6.16,-1093.12,-374.784,62.464
-1106.296,-420.656,65.88,98.28,19.74,5.95,-1054.08,-374.784,54.656
-1108.248,-418.704,62.464,98.7,19.88,5.81,-1054.08,-366.976,46.848
-1107.76,-413.824,66.368,99.12,19.74,5.6,-1100.928,-366.976,70.272
-1111.664,-408.944,71.248,99.47,19.46,5.53,-1093.12,-359.168,54.656
-1111.664,-401.136,77.104,99.75,18.97,5.53,-1108.736,-359.168,62.464
-1110.2,-390.888,82.96,99.96,18.41,5.67,-1054.08,-366.976,62.464
-1108.736,-379.176,87.352,100.17,17.99,5.81,-1085.312,-320.128,78.08
-1106.784,-369.416,91.256,100.38,17.5,6.16,-1077.504,-320.128,62.464
-1102.392,-361.12,98.088,100.66,16.87,6.44,-1077.504,-296.704,93.696
-1100.928,-351.848,104.432,100.8,16.03,6.65,-1061.888,-312.32,78.08
-1095.56,-344.04,111.264,101.15,15.19,6.72,-1061.888,-288.896,93.696
-1093.12,-335.744,120.048,101.64,14.35,6.86,-1085.312,-296.704,109.312
-1087.752,-328.912,127.856,102.06,13.44,6.72,-1038.464,-281.088,101.504
-1081.896,-321.104,140.544,102.48,12.39,6.51,-1046.272,-249.856,117.12
-1073.6,-315.248,147.864,102.76,11.41,6.09,-1061.888,-265.472,156.16
-1065.792,-308.416,159.088,102.97,10.5,5.67,-1030.656,-249.856,156.16
-1055.544,-301.096,168.848,102.97,9.66,5.32,-1022.848,-249.856,156.16
-1044.808,-293.776,180.56,102.69,8.75,4.97,-991.616,-242.048,163.968
-1034.072,-288.896,192.272,102.48,7.84,4.76,-1022.848,-234.24,187.392
-1021.872,-284.016,202.032,102.48,7.14,4.69,-991.616,-242.048,179.584
-1007.72,-279.136,210.816,102.55,6.44,4.69,-960.384,-234.24,179.584
-996.008,-272.792,215.696,102.55,6.02,4.83,-976.0,-218.624,210.816
-981.856,-270.352,225.944,102.69,5.74,4.97,-944.768,-226.432,210.816
-972.584,-264.984,236.68,102.9,5.53,5.25,-952.576,-195.2,234.24
-962.824,-260.592,244.0,102.83,5.39,5.53,-936.96,-203.008,226.432
-951.6,-259.128,252.296,102.76,5.32,5.81,-936.96,-218.624,226.432
-943.304,-257.176,258.64,102.69,5.11,6.09,-913.536,-203.008,242.048
-934.032,-255.712,263.52,102.62,5.11,6.37,-897.92,-203.008,234.24
-923.296,-253.76,265.472,102.83,5.18,6.79,-905.728,-195.2,234.24
-913.048,-253.272,262.056,103.04,5.18,7.28,-858.88,-203.008,242.048
-901.824,-254.736,255.712,103.46,5.46,7.91,-890.112,-195.2,234.24
-891.088,-257.664,245.464,103.95,5.88,8.4,-858.88,-210.816,218.624
-884.256,-259.128,237.168,104.3,6.23,8.96,-858.88,-210.816,203.008
-878.4,-258.64,230.824,104.44,6.44,9.45,-866.688,-203.008,226.432
-877.424,-258.152,232.288,104.02,6.23,9.87,-827.648,-234.24,226.432
-876.448,-256.688,238.144,103.39,5.53,10.36,-835.456,-195.2,218.624
-875.472,-253.272,249.856,102.27,4.41,11.2,-851.072,-187.392,242.048
-871.08,-250.832,252.784,101.08,2.94,12.04,-851.072,-195.2,226.432
-863.272,-249.368,255.712,99.96,1.68,13.37,-827.648,-195.2,218.624
-854.976,-247.416,253.76,99.05,0.63,14.77,-858.88,-210.816,257.664
-845.216,-245.952,250.832,98.42,-0.28,16.17,-819.84,-195.2,249.856
-835.944,-247.416,248.88,98.14,-1.33,17.5,-819.84,-226.432,242.048
-824.72,-248.392,248.392,98.28,-2.31,18.48,-812.032,-203.008,218.624
-809.592,-252.296,242.536,98.77,-3.22,19.18,-772.992,-195.2,226.432
-794.952,-254.248,238.632,99.05,-3.99,19.6,-733.952,-203.008,242.048
-777.872,-254.736,235.704,99.4,-4.34,19.74,-710.528,-195.2,203.008
-761.768,-254.248,233.264,99.4,-4.62,19.6,-733.952,-203.008,226.432
-744.688,-253.76,229.36,99.05,-4.62,19.39,-702.72,-203.008,218.624
-728.584,-250.344,224.48,98.21,-4.62,19.04,-710.528,-179.584,195.2
-713.944,-249.368,218.624,97.16,-4.48,18.83,-687.104,-203.008,210.816
-698.328,-244.976,212.28,95.76,-4.34,18.9,-671.488,-203.008,203.008
-686.128,-244.488,209.84,94.22,-4.27,19.04,-655.872,-195.2,195.2
-676.856,-241.56,207.888,92.75,-4.2,19.39,-624.64,-203.008,171.776
-668.56,-242.048,209.352,91.35,-4.27,19.88,-640.256,-203.008,203.008
-661.24,-241.56,210.816,90.09,-4.41,20.58,-632.448,-187.392,203.008
-652.944,-244.976,212.768,89.11,-4.69,21.28,-624.64,-218.624,203.008
-645.624,-246.928,215.208,88.41,-4.83,21.98,-601.216,-195.2,179.584
-637.328,-252.784,213.744,87.99,-4.83,22.54,-624.64,-203.008,187.392
-631.472,-260.592,217.648,87.71,-4.76,23.03,-593.408,-218.624,187.392
-626.104,-266.448,212.28,87.5,-4.69,23.24,-577.792,-203.008,195.2
-618.784,-274.744,211.304,87.5,-4.41,23.17,-577.792,-234.24,187.392
-614.392,-284.504,205.936,87.36,-4.13,22.82,-562.176,-226.432,171.776
-608.536,-292.8,201.056,87.22,-3.78,22.33,-593.408,-257.664,187.392
-605.12,-302.56,196.664,87.29,-3.36,21.63,-585.6,-265.472,171.776
-602.68,-311.832,190.32,87.29,-2.94,20.86,-562.176,-265.472,187.392
-603.168,-319.64,185.44,87.36,-2.59,20.09,-577.792,-281.088,171.776
-605.12,-328.424,181.048,87.64,-2.24,19.25,-554.368,-281.088,163.968
-607.56,-334.768,176.168,88.06,-1.96,18.76,-593.408,-257.664,140.544
-610.976,-341.112,172.264,88.55,-1.89,18.2,-585.6,-288.896,132.736
-614.88,-347.944,168.36,89.39,-1.96,17.92,-593.408,-281.088,156.16
-617.808,-349.408,159.576,90.23,-1.96,17.78,-585.6,-288.896,132.736
-621.712,-347.456,150.304,91.14,-2.1,17.71,-593.408,-304.512,148.352
-626.104,-345.504,139.08,91.98,-2.17,17.78,-609.024,-296.704,117.12
-629.52,-343.064,127.856,92.82,-2.31,17.99,-593.408,-281.088,117.12
-632.936,-336.232,118.584,93.52,-2.52,18.34,-601.216,-273.28,109.312
-637.816,-330.376,108.824,94.08,-2.8,18.83,-616.832,-281.088,70.272
-640.744,-322.568,101.016,94.43,-3.29,19.32,-593.408,-265.472,70.272
-647.088,-316.224,97.112,94.92,-3.92,19.95,-616.832,-249.856,70.272
-650.504,-309.392,94.184,95.55,-4.69,20.58,-616.832,-249.856,70.272
-653.92,-305.0,94.672,96.25,-5.53,21.0,-648.064,-265.472,85.888
-657.824,-301.096,92.72,97.02,-6.44,21.35,-640.256,-234.24,85.888
-655.872,-295.728,89.304,97.72,-7.35,21.49,-616.832,-249.856,62.464
-656.36,-292.312,82.472,98.42,-8.19,21.49,-609.024,-249.856,62.464
-654.896,-288.408,77.104,99.05,-8.96,21.28,-648.064,-226.432,70.272
-651.968,-282.552,64.416,99.54,-9.52,20.65,-609.024,-226.432,39.04
-649.04,-277.184,53.68,99.68,-10.01,20.02,-609.024,-234.24,39.04
-650.016,-268.888,47.824,99.61,-10.57,19.25,-616.832,-210.816,23.424
-653.432,-259.616,42.456,99.12,-11.27,18.48,-655.872,-210.816,46.848
-655.384,-249.856,38.552,98.35,-12.25,17.99,-632.448,-210.816,23.424
-656.848,-240.096,39.04,97.3,-13.3,17.64,-632.448,-195.2,15.616
-655.384,-228.872,35.624,96.32,-14.28,17.5,-640.256,-179.584,15.616
-651.48,-218.136,28.792,95.48,-15.05,17.64,-640.256,-171.776,0.0
-650.992,-207.888,22.936,94.92,-15.61,17.92,-632.448,-148.352,7.808
-650.016,-199.592,14.152,94.57,-15.96,18.34,-616.832,-156.16,0.0
-650.504,-190.32,9.76,94.29,-16.17,18.55,-609.024,-148.352,0.0
-652.456,-182.024,4.88,94.43,-16.31,18.76,-593.408,-109.312,-7.808
-653.92,-177.144,-0.976,94.71,-16.45,18.83,-632.448,-109.312,-23.424
-654.896,-170.8,-2.928,95.2,-16.66,18.69,-632.448,-109.312,-15.616
-657.824,-162.992,-5.368,95.76,-16.59,18.2,-640.256,-109.312,-7.808
-662.216,-155.672,-6.344,96.39,-16.45,17.71,-632.448,-109.312,-46.848
-666.608,-148.352,-4.88,96.88,-16.17,17.08,-616.832,-93.696,-15.616
-671.488,-139.568,-4.88,97.3,-15.96,16.45,-640.256,-85.888,-31.232
-675.88,-126.88,-13.664,97.3,-15.68,15.82,-640.256,-78.08,-31.232
-674.904,-115.168,-22.936,97.09,-15.4,15.19,-655.872,-78.08,-23.424
-675.392,-104.432,-33.184,96.74,-14.84,14.77,-640.256,-54.656,-62.464
-685.64,-95.16,-34.648,96.74,-14.21,14.42,-655.872,-39.04,-70.272
-702.232,-85.4,-21.472,97.02,-13.93,14.49,-671.488,-46.848,-15.616
-723.704,-72.712,2.928,97.44,-14.35,14.63,-702.72,-39.04,-15.616
-742.736,-61.976,29.28,97.86,-15.68,14.98,-726.144,-23.424,0.0
-756.4,-58.072,57.584,98.14,-17.43,15.26,-726.144,-31.232,46.848
-767.624,-58.56,76.128,98.35,-19.6,15.4,-741.76,-23.424,78.08
-771.04,-62.464,92.232,98.49,-21.63,15.4,-757.376,-7.808,85.888
-767.136,-71.736,96.624,98.7,-23.03,14.98,-741.76,-39.04,54.656
-756.4,-82.472,89.792,99.12,-23.94,14.14,-726.144,-31.232,85.888
-742.248,-95.648,77.104,99.68,-24.01,12.88,-687.104,-39.04,54.656
-729.56,-104.432,61.0,100.31,-23.59,11.27,-710.528,-46.848,70.272
-715.896,-113.216,45.872,101.29,-22.61,9.66,-679.296,-70.272,31.232
-710.528,-118.096,43.92,102.76,-21.14,7.98,-687.104,-46.848,0.0
-706.624,-120.536,55.144,104.58,-19.74,6.44,-687.104,-70.272,46.848
-705.16,-122.0,75.64,106.89,-18.34,5.32,-671.488,-85.888,39.04
-700.28,-118.584,92.72,109.55,-16.73,4.41,-702.72,-78.08,78.08
-690.52,-108.824,102.48,112.63,-14.84,3.92,-663.68,-39.04,93.696
-678.808,-97.6,101.504,115.43,-12.32,3.85,-655.872,-31.232,93.696
-669.536,-79.544,94.184,117.88,-9.52,4.06,-655.872,-23.424,70.272
-666.12,-63.928,87.84,119.49,-6.86,4.34,-632.448,-15.616,46.848
-664.168,-43.92,81.496,120.19,-4.9,4.83,-648.064,7.808,62.464
-663.192,-26.352,74.664,120.47,-3.57,5.6,-648.064,23.424,62.464
-662.216,-9.76,70.272,120.12,-2.87,6.37,-632.448,46.848,39.04
-662.216,5.856,68.808,119.49,-2.31,7.28,-616.832,78.08,46.848
-662.704,20.008,70.76,119.07,-1.89,8.26,-640.256,101.504,46.848
-668.072,31.72,77.104,118.72,-1.33,9.1,-632.448,101.504,23.424
-671.976,46.848,79.056,118.72,-0.84,9.87,-616.832,85.888,62.464
-679.296,61.0,82.472,118.93,-0.56,10.15,-655.872,132.736,46.848
-685.152,76.128,84.912,119.14,-0.28,9.94,-655.872,148.352,70.272
-692.96,95.648,85.4,119.14,-0.14,9.17,-655.872,148.352,70.272
-700.28,116.144,96.136,118.86,0.21,7.7,-687.104,148.352,78.08
-709.064,138.592,107.848,118.23,0.49,5.81,-679.296,210.816,101.504
-715.408,160.064,120.536,117.32,0.42,3.64,-718.336,226.432,117.12
-722.24,179.584,129.32,116.34,0.28,1.26,-671.488,218.624,93.696
-724.192,194.712,138.104,115.57,0.07,-0.63,-702.72,234.24,117.12
-729.56,213.256,156.16,115.22,-0.21,-2.17,-702.72,288.896,156.16
-734.44,231.312,178.608,114.45,-0.7,-3.43,-718.336,273.28,163.968
-735.416,249.368,198.616,113.33,-1.54,-4.55,-694.912,296.704,203.008
-734.44,267.912,216.184,111.3,-2.38,-5.74,-710.528,320.128,210.816
-731.512,281.576,236.192,108.15,-3.22,-7.07,-718.336,320.128,234.24
-728.584,291.824,251.32,104.09,-3.64,-8.47,-710.528,335.744,234.24
-726.632,296.216,267.424,99.4,-4.06,-10.01,-655.872,320.128,249.856
-721.264,293.776,278.16,94.22,-4.34,-11.41,-710.528,335.744,281.088
-715.408,287.432,290.36,89.25,-4.34,-12.67,-702.72,320.128,273.28
-711.016,273.28,300.12,84.63,-3.85,-14.0,-694.912,327.936,296.704
-713.456,261.08,317.688,80.99,-3.29,-15.12,-694.912,296.704,288.896
-711.992,243.024,326.472,78.33,-3.22,-15.96,-671.488,304.512,312.32
-705.648,216.672,325.984,76.86,-3.29,-16.45,-640.256,249.856,288.896
-696.376,181.536,317.2,76.65,-2.87,-16.94,-679.296,234.24,304.512
-687.104,135.664,311.344,77.77,-1.96,-17.57,-663.68,187.392,304.512
-682.224,81.984,306.952,80.57,-0.56,-18.34,-655.872,132.736,296.704
-679.784,27.328,303.536,85.12,1.19,-19.67,-655.872,62.464,281.088
-675.88,-31.232,293.776,90.93,2.87,-21.42,-640.256,23.424,273.28
-669.048,-85.4,288.896,98.14,5.25,-23.87,-655.872,-54.656,273.28
-666.608,-135.176,283.528,106.33,8.54,-26.53,-648.064,-93.696,257.664
-668.072,-163.48,283.04,114.52,11.83,-29.47,-632.448,-109.312,242.048
-656.36,-188.368,251.808,122.08,14.77,-31.78,-632.448,-132.736,226.432
-643.184,-225.944,222.04,130.83,18.83,-33.11,-585.6,-210.816,187.392
-647.576,-269.864,212.28,143.01,23.66,-33.39,-601.216,-218.624,195.2
-670.024,-296.704,216.184,159.46,27.02,-32.69,-632.448,-234.24,187.392
-683.688,-317.2,221.552,178.92,27.79,-30.45,-671.488,-257.664,218.624
-687.592,-338.672,223.992,198.94,27.65,-27.93,-640.256,-273.28,210.816
-695.4,-359.656,241.072,217.21,28.14,-26.81,-671.488,-320.128,210.816
-707.112,-374.784,259.616,232.33,28.28,-27.23,-687.104,-343.552,218.624
-704.184,-388.936,256.688,243.11,27.65,-29.47,-663.68,-343.552,210.816
-691.984,-401.136,229.848,248.92,26.95,-32.76,-655.872,-366.976,195.2
-672.952,-410.896,187.88,249.69,26.67,-37.17,-632.448,-382.592,140.544
-655.384,-408.944,141.52,246.12,26.67,-42.28,-648.064,-335.744,117.12
-646.112,-390.888,103.456,239.19,27.09,-47.04,-593.408,-351.36,85.888
-640.744,-356.728,77.592,229.6,27.23,-50.68,-601.216,-296.704,46.848
-634.888,-311.832,59.536,218.12,26.67,-52.22,-593.408,-242.048,39.04
-634.888,-259.616,51.728,206.15,26.39,-50.96,-585.6,-218.624,46.848
-639.768,-205.936,48.8,194.18,26.04,-46.83,-585.6,-156.16,23.424
-648.064,-148.352,48.8,183.33,26.25,-40.11,-601.216,-78.08,7.808
-670.024,-92.72,62.952,173.95,26.81,-31.36,-655.872,-39.04,31.232
-701.744,-39.04,82.96,166.04,26.67,-21.35,-671.488,46.848,70.272
-737.368,14.152,101.992,159.32,26.25,-10.85,-694.912,78.08,78.08
-770.064,66.368,116.632,153.3,25.06,-0.7,-726.144,148.352,70.272
-802.272,113.704,126.392,147.91,23.52,8.68,-772.992,148.352,117.12
-833.016,153.232,134.2,142.8,21.84,16.59,-827.648,187.392,124.928
-859.856,188.368,132.736,138.04,20.16,22.82,-819.84,249.856,117.12
-885.232,220.088,128.344,133.84,18.97,27.02,-851.072,281.088,124.928
-914.512,243.512,123.464,129.78,17.99,29.33,-897.92,281.088,109.312
-940.864,265.472,114.68,126.07,17.08,30.03,-890.112,281.088,85.888
-971.12,284.992,108.336,122.71,16.31,29.05,-952.576,335.744,78.08
-1011.136,306.952,121.024,119.21,14.91,26.95,-999.424,366.976,117.12
-1053.104,324.032,146.888,115.36,12.18,24.08,-1038.464,366.976,148.352
-1093.608,341.112,175.192,111.23,8.12,20.58,-1061.888,366.976,163.968
-1127.768,354.288,212.768,106.96,3.22,17.36,-1100.928,413.824,195.2
-1155.584,359.656,249.856,102.83,-2.03,14.49,-1116.544,390.4,249.856
-1179.008,359.168,287.92,98.7,-7.42,12.11,-1147.776,413.824,288.896
-1194.624,353.312,322.08,95.2,-13.02,10.57,-1179.008,413.824,320.128
-1199.992,341.6,351.36,92.05,-18.55,9.59,-1163.392,390.4,327.936
-1191.696,324.032,371.856,89.67,-24.01,9.31,-1163.392,343.552,366.976
-1174.616,304.512,386.496,87.85,-29.19,9.73,-1132.16,343.552,390.4
-1147.288,283.528,399.184,86.24,-33.74,10.99,-1124.352,327.936,398.208
-1110.688,259.128,411.872,84.91,-38.01,12.46,-1077.504,320.128,413.824
-1071.16,234.728,422.608,83.72,-41.44,14.07,-1030.656,288.896,413.824
-1022.36,211.792,432.368,82.53,-44.31,15.82,-976.0,257.664,413.824
-972.584,189.832,442.616,81.27,-46.2,17.22,-952.576,226.432,413.824
-921.832,171.288,458.232,80.36,-47.25,18.41,-897.92,203.008,452.864
-867.176,153.72,465.552,80.22,-47.32,19.39,-835.456,218.624,452.864
-807.64,138.104,460.672,81.06,-46.13,20.3,-772.992,179.584,429.44
-745.664,121.512,447.496,83.3,-43.12,20.65,-702.72,179.584,437.248
-691.496,107.36,426.512,86.94,-38.5,20.3,-671.488,156.16,374.784
-647.576,91.256,400.16,92.33,-32.27,19.25,-632.448,132.736,374.784
-611.464,73.2,366.488,98.7,-25.13,17.15,-585.6,109.312,343.552
-584.624,49.288,334.768,105.63,-17.43,14.14,-546.56,85.888,320.128
-569.008,19.52,299.144,112.63,-9.24,10.29,-562.176,70.272,273.28
-569.008,-15.128,266.936,119.14,-1.33,5.67,-546.56,7.808,242.048
-584.624,-52.704,246.44,124.74,5.88,0.77,-538.752,0.0,218.624
-615.368,-90.28,240.584,128.73,11.69,-4.06,-593.408,-46.848,218.624
-657.336,-125.416,244.0,131.04,15.4,-8.61,-640.256,-70.272,234.24
-702.232,-158.112,255.224,131.53,17.29,-12.25,-648.064,-132.736,234.24
-748.592,-187.88,270.84,130.69,17.36,-15.19,-726.144,-132.736,249.856
-789.584,-210.328,280.6,128.8,15.82,-17.08,-772.992,-132.736,249.856
-821.304,-228.384,287.432,126.49,13.58,-17.78,-772.992,-187.392,273.28
-847.656,-240.096,286.456,124.25,11.13,-17.43,-827.648,-203.008,249.856
-865.712,-246.44,278.648,122.99,8.75,-15.89,-827.648,-195.2,273.28
-876.936,-247.904,266.448,122.71,7.28,-13.72,-835.456,-203.008,249.856
-880.84,-244.488,253.272,123.76,6.3,-11.2,-866.688,-187.392,242.048
-877.424,-239.608,235.704,126.07,6.37,-8.68,-827.648,-179.584,218.624
-871.08,-229.848,221.064,129.43,7.35,-6.51,-851.072,-179.584,210.816
-865.224,-214.232,212.28,133.35,9.1,-4.9,-843.264,-163.968,210.816
-863.272,-195.2,211.304,137.48,11.34,-4.13,-827.648,-132.736,187.392
-861.32,-170.8,213.256,141.26,14.0,-4.06,-843.264,-132.736,187.392
-864.248,-143.96,218.624,144.13,16.59,-4.55,-827.648,-101.504,195.2
-869.128,-112.728,226.92,146.09,18.9,-5.46,-851.072,-70.272,226.432
-874.496,-81.008,232.288,147.0,21.07,-6.44,-835.456,-39.04,218.624
-879.376,-47.336,231.312,147.0,22.75,-7.56,-858.88,15.616,203.008
-885.72,-14.64,234.24,146.23,24.15,-8.54,-866.688,46.848,187.392
-895.968,18.056,231.312,145.04,25.06,-9.38,-851.072,78.08,195.2
-903.776,48.312,229.848,143.57,25.83,-10.01,-858.88,78.08,187.392
-913.536,74.176,227.408,141.89,26.32,-10.22,-897.92,124.928,226.432
-923.784,96.624,226.92,140.07,26.81,-10.29,-890.112,132.736,218.624
-933.544,113.704,230.336,138.25,27.37,-10.29,-913.536,179.584,226.432
-943.304,127.368,236.68,136.43,27.93,-10.29,-921.344,179.584,218.624
-957.456,133.712,240.584,134.47,28.56,-10.15,-921.344,179.584,203.008
-967.216,135.664,244.0,132.58,29.33,-10.22,-921.344,171.776,249.856
-978.928,134.2,247.416,130.69,30.31,-10.36,-944.768,195.2,218.624
-990.64,126.88,249.856,128.94,31.36,-10.5,-976.0,179.584,257.664
-999.424,116.144,249.856,127.47,32.55,-10.85,-983.808,171.776,218.624
-1006.744,102.968,246.44,126.35,33.95,-11.2,-976.0,187.392,226.432
-1016.016,87.84,243.024,125.58,35.21,-11.76,-983.808,140.544,203.008
-1026.752,75.64,239.12,124.95,36.61,-12.25,-999.424,109.312,210.816
-1037.0,63.44,236.192,124.74,37.87,-12.67,-1007.232,109.312,218.624
-1046.76,51.728,232.776,124.53,38.78,-13.09,-991.616,93.696,218.624
-1057.984,44.896,225.944,124.46,39.48,-13.3,-1038.464,109.312,218.624
-1068.72,39.528,220.576,124.67,40.04,-13.3,-1022.848,78.08,218.624
-1079.944,36.112,214.72,124.88,40.39,-13.16,-1038.464,93.696,203.008
-1092.144,37.088,213.256,125.51,40.53,-12.6,-1077.504,78.08,187.392
-1105.808,40.016,209.84,126.56,40.6,-11.9,-1077.504,109.312,195.2
-1118.984,47.824,206.424,128.1,40.46,-11.06,-1093.12,117.12,210.816
-1134.112,58.56,205.448,129.64,40.25,-10.22,-1124.352,93.696,203.008
-1151.192,71.736,211.304,131.39,39.83,-9.1,-1132.16,109.312,203.008
-1162.416,86.376,214.232,133.14,39.13,-8.4,-1124.352,124.928,203.008
-1176.08,106.384,221.064,134.68,38.5,-7.77,-1132.16,156.16,218.624
-1188.768,127.856,230.336,135.73,37.59,-7.07,-1155.584,179.584,218.624
-1204.872,150.792,243.512,136.57,36.68,-6.37,-1155.584,210.816,226.432
-1217.56,174.704,259.128,136.78,35.35,-5.74,-1186.816,218.624,249.856
-1221.952,198.616,267.424,136.92,33.81,-5.25,-1186.816,265.472,257.664
-1221.952,222.04,270.84,136.99,32.62,-4.76,-1186.816,265.472,249.856
-1221.464,244.976,271.816,136.92,31.64,-4.34,-1210.24,304.512,273.28
-1219.512,264.984,274.744,136.5,30.94,-3.99,-1210.24,320.128,234.24
-1219.024,284.504,279.136,136.08,29.89,-3.99,-1233.664,312.32,265.472
-1216.584,299.144,283.528,134.96,28.84,-4.06,-1179.008,382.592,257.664
-1214.144,312.32,291.336,133.63,27.72,-4.2,-1186.816,359.168,265.472
-1212.68,322.568,294.752,132.02,26.6,-4.2,-1163.392,382.592,304.512
-1205.848,328.424,293.776,130.13,25.48,-4.2,-1171.2,366.976,257.664
-1202.92,329.888,297.68,127.96,24.5,-4.13,-1218.048,359.168,273.28
-1199.992,327.448,302.072,125.86,23.73,-3.85,-1186.816,382.592,281.088
-1199.504,321.592,307.44,123.62,22.96,-3.5,-1179.008,359.168,273.28
-1199.992,311.832,312.32,121.24,22.19,-3.22,-1147.776,366.976,304.512
-1199.504,302.072,313.784,118.86,21.28,-2.87,-1171.2,351.36,288.896
-1199.016,290.848,314.76,116.41,20.51,-2.52,-1171.2,366.976,304.512
-1199.504,278.16,314.272,113.75,19.53,-2.03,-1171.2,335.744,304.512
-1199.992,261.08,309.88,111.44,18.83,-1.54,-1194.624,312.32,296.704
-1200.968,242.048,305.976,109.48,18.27,-0.98,-1194.624,288.896,296.704
-1203.896,223.992,303.536,108.08,17.64,-0.56,-1155.584,296.704,281.088
-1204.872,204.96,296.216,107.24,17.08,0.0,-1186.816,242.048,273.28
-1207.312,185.928,288.408,106.75,16.59,0.35,-1210.24,218.624,273.28
-1211.216,163.968,282.064,106.75,16.17,0.77,-1179.008,218.624,273.28
-1214.632,146.4,275.232,106.96,15.82,0.91,-1202.432,226.432,281.088
-1220.976,130.784,268.4,107.17,15.47,0.91,-1194.624,187.392,265.472
-1228.296,115.168,265.472,107.24,14.91,0.91,-1218.048,163.968,242.048
-1238.056,102.48,265.472,107.38,14.35,0.77,-1210.24,132.736,226.432
-1246.352,92.232,264.984,107.38,13.51,0.63,-1210.24,132.736,242.048
-1253.672,84.912,262.544,107.38,12.67,0.7,-1233.664,132.736,234.24
-1260.016,80.032,259.128,107.31,11.62,0.77,-1233.664,140.544,234.24
-1265.872,76.128,251.808,107.38,10.85,1.05,-1241.472,132.736,203.008
-1274.168,74.176,249.368,107.52,10.15,1.33,-1241.472,117.12,234.24
-1281.976,75.64,246.928,107.73,9.45,1.75,-1280.512,132.736,242.048
-1290.272,77.104,244.0,107.8,8.61,2.1,-1241.472,124.928,210.816
-1294.176,79.544,238.144,108.15,7.91,2.59,-1264.896,132.736,249.856
-1299.544,82.96,231.8,108.64,7.14,2.87,-1257.088,148.352,218.624
-1301.984,92.72,221.552,108.92,6.51,3.08,-1272.704,140.544,210.816
-1304.424,98.576,213.744,109.41,6.09,3.29,-1303.936,140.544,195.2
-1307.84,109.312,207.4,109.76,5.67,3.29,-1264.896,156.16,187.392
-1311.256,119.072,199.104,109.97,5.39,2.94,-1280.512,171.776,195.2
-1315.648,130.784,193.736,109.69,5.04,2.59,-1296.128,187.392,195.2
-1319.552,143.96,188.368,109.13,4.76,2.1,-1319.552,210.816,179.584
-1324.432,157.136,184.464,108.43,4.2,1.47,-1296.128,210.816,156.16
-1329.8,172.752,181.048,107.24,3.64,0.91,-1311.744,218.624,179.584
-1331.752,184.952,178.12,105.84,3.22,0.42,-1303.936,249.856,156.16
-1333.704,197.64,172.264,104.23,2.66,0.14,-1311.744,265.472,171.776
-1336.632,206.912,168.848,102.62,2.1,-0.07,-1272.704,257.664,163.968
-1339.072,215.696,163.48,100.94,1.82,-0.21,-1311.744,273.28,132.736
-1342.0,226.92,161.528,99.12,1.4,-0.21,-1288.32,273.28,132.736
-1341.024,233.752,158.6,97.23,1.12,-0.14,-1303.936,273.28,132.736
-1340.048,238.144,152.256,95.41,0.84,-0.07,-1311.744,296.704,148.352
-1338.096,242.048,146.888,93.66,0.77,0.07,-1335.168,304.512,148.352
-1336.632,244.488,143.472,91.84,0.7,0.28,-1311.744,304.512,109.312
-1334.192,244.488,140.544,90.37,0.7,0.49,-1327.36,304.512,109.312
-1330.776,243.512,140.056,88.83,0.77,0.7,-1296.128,320.128,93.696
-1323.944,240.096,132.248,87.43,0.77,0.91,-1303.936,296.704,109.312
-1317.112,235.216,126.88,86.31,0.91,1.19,-1296.128,281.088,109.312
-1310.28,232.288,122.976,85.26,1.05,1.26,-1280.512,281.088,124.928
-1303.936,225.944,120.048,84.21,1.19,1.47,-1288.32,242.048,109.312
-1298.568,220.088,117.12,83.16,1.26,1.68,-1280.512,273.28,93.696
-1290.76,214.232,116.632,82.11,0.91,1.89,-1257.088,249.856,85.888
-1280.024,209.84,111.752,81.13,0.7,2.45,-1249.28,242.048,109.312
-1269.776,205.448,107.848,80.43,0.56,2.94,-1233.664,242.048,93.696
-1259.04,198.128,105.408,79.94,0.49,3.5,-1202.432,242.048,85.888
-1250.256,189.344,105.896,79.66,0.42,4.27,-1225.856,249.856,101.504
-1240.496,183.488,108.824,79.45,0.21,4.9,-1225.856,226.432,93.696
-1229.76,176.656,108.336,79.59,0.14,5.81,-1194.624,210.816,85.888
-1217.56,167.872,106.872,79.66,0.28,6.51,-1194.624,218.624,85.888
-1204.384,161.528,105.896,79.87,0.35,7.07,-1202.432,218.624,54.656
-1194.136,153.72,106.872,79.87,0.35,7.7,-1147.776,226.432,101.504
-1183.4,146.4,108.336,79.73,0.42,8.19,-1179.008,195.2,109.312
-1172.664,141.52,111.264,79.59,0.21,8.68,-1155.584,218.624,101.504
-1160.464,134.688,114.68,79.45,0.07,9.24,-1116.544,187.392,93.696
-1146.8,128.344,115.656,79.38,-0.07,9.8,-1116.544,171.776,85.888
-1135.576,123.952,116.632,79.52,-0.28,10.43,-1116.544,195.2,93.696
-1122.888,118.096,119.072,79.8,-0.42,11.13,-1100.928,179.584,93.696
-1107.272,113.704,121.024,80.22,-0.56,11.69,-1061.888,163.968,78.08
-1093.608,111.264,118.584,80.5,-0.63,12.39,-1061.888,124.928,109.312
-1080.92,109.8,116.144,80.92,-0.77,12.95,-1054.08,148.352,117.12
-1065.792,107.848,118.096,81.06,-0.84,13.3,-1022.848,171.776,93.696
-1057.008,106.872,123.952,80.99,-0.98,13.65,-1038.464,163.968,117.12
-1045.784,107.848,129.808,80.92,-1.33,14.07,-1022.848,163.968,124.928
-1034.072,107.848,129.808,80.78,-1.68,14.35,-999.424,156.16,117.12
-1018.456,105.896,128.344,80.36,-1.96,14.84,-968.192,156.16,117.12
-1006.256,108.336,125.904,80.08,-2.38,15.26,-983.808,156.16,85.888
-994.544,110.288,125.904,79.87,-2.59,15.75,-960.384,140.544,109.312
-984.296,111.264,126.88,79.24,-3.01,16.24,-944.768,156.16,93.696
-974.536,111.752,133.224,78.61,-3.5,16.8,-944.768,156.16,101.504
-963.8,109.8,139.568,77.91,-4.27,17.29,-936.96,195.2,132.736
-953.064,108.336,143.96,77.28,-5.11,17.78,-929.152,148.352,109.312
-943.304,105.896,149.328,76.72,-5.95,18.13,-905.728,148.352,140.544
-930.616,101.016,150.304,76.16,-6.72,18.62,-897.92,156.16,117.12
-916.952,96.136,148.84,75.81,-7.28,18.76,-897.92,163.968,124.928
-905.24,87.352,145.424,75.53,-7.56,18.97,-858.88,124.928,140.544
-893.528,80.52,142.008,75.04,-7.77,18.97,-866.688,117.12,124.928
-885.232,73.2,140.544,74.76,-7.98,18.69,-866.688,132.736,109.312
-877.424,63.928,141.032,74.2,-8.05,18.55,-843.264,109.312,109.312
-871.08,55.632,139.08,73.78,-8.33,18.27,-835.456,93.696,132.736
-865.712,45.872,137.616,73.29,-8.33,17.92,-827.648,117.12,117.12
-860.344,39.528,132.248,72.87,-8.4,17.71,-819.84,85.888,85.888
-856.44,32.208,129.808,72.59,-8.4,17.64,-843.264,85.888,93.696
-852.536,27.816,123.464,72.31,-8.4,17.57,-819.84,62.464,93.696
-851.072,23.912,120.536,72.1,-8.19,17.71,-827.648,70.272,101.504
-850.584,22.448,114.68,71.89,-8.19,17.85,-819.84,62.464,109.312
-848.144,19.52,112.728,71.61,-8.26,17.92,-843.264,93.696,109.312
-850.096,19.52,109.8,71.4,-8.26,18.13,-835.456,62.464,85.888
-849.12,20.984,109.312,71.12,-8.26,18.34,-827.648,70.272,78.08
-850.584,20.984,108.336,70.84,-8.26,18.62,-827.648,70.272,78.08
-851.072,23.424,109.312,70.56,-8.33,18.62,-796.416,62.464,117.12
-852.536,24.4,107.848,70.35,-8.4,18.76,-812.032,109.312,85.888
-852.048,25.864,109.8,70.14,-8.4,18.9,-812.032,70.272,101.504
-851.56,26.84,107.848,70.14,-8.33,19.18,-827.648,78.08,109.312
-851.072,26.84,103.944,70.35,-8.19,19.32,-812.032,85.888,85.888
-850.584,26.84,100.04,70.49,-8.05,19.53,-835.456,62.464,85.888
-849.608,27.328,97.112,70.63,-7.98,19.67,-819.84,93.696,62.464
-850.096,28.304,89.792,70.91,-7.63,19.81,-819.84,78.08,93.696
-850.096,26.352,82.96,71.4,-7.49,20.02,-788.608,78.08,54.656
-851.072,23.912,77.104,71.96,-7.14,20.3,-843.264,70.272,54.656
-852.536,19.52,73.2,72.66,-7.07,20.44,-835.456,70.272,46.848
-855.464,15.616,69.296,73.43,-6.93,20.79,-843.264,39.04,54.656
-858.392,12.2,63.44,74.06,-6.93,21.0,-812.032,70.272,46.848
-862.784,7.808,65.88,74.62,-7.07,21.35,-843.264,62.464,62.464
-864.248,5.368,67.344,74.9,-7.49,21.7,-835.456,62.464,39.04
-868.64,4.88,68.808,75.11,-7.91,22.19,-866.688,62.464,31.232
-871.08,1.952,68.32,75.39,-8.54,22.68,-843.264,70.272,46.848
-871.08,2.928,61.976,75.74,-9.03,23.38,-851.072,46.848,54.656
-871.568,1.952,61.488,76.37,-9.59,24.08,-843.264,78.08,31.232
-873.52,4.88,60.512,76.86,-10.15,24.78,-874.496,70.272,62.464
-872.544,6.832,62.464,77.56,-10.71,25.34,-843.264,46.848,39.04
-871.568,7.808,64.416,78.19,-11.41,25.9,-843.264,54.656,39.04
-868.64,10.248,62.952,78.68,-11.97,26.11,-827.648,54.656,54.656
-866.688,14.152,62.952,79.03,-12.46,26.25,-827.648,85.888,15.616
-862.296,17.08,64.904,79.24,-13.09,26.25,-843.264,62.464,46.848
-860.832,22.448,65.88,79.1,-13.51,25.9,-827.648,62.464,54.656
-857.904,27.816,73.2,78.61,-14.07,25.62,-835.456,62.464,54.656
-854.0,35.136,75.64,77.7,-14.63,25.2,-804.224,93.696,54.656
-848.632,45.872,79.544,76.72,-15.26,24.78,-819.84,109.312,54.656
-842.288,55.144,78.568,75.46,-15.89,24.43,-835.456,93.696,70.272
-836.92,64.904,79.056,74.06,-16.17,24.08,-796.416,101.504,70.272
-831.552,77.104,82.472,72.59,-16.38,23.73,-819.84,117.12,70.272
-828.136,87.84,83.448,71.12,-16.59,23.45,-812.032,132.736,70.272
-823.256,95.16,89.792,69.72,-16.87,23.1,-772.992,156.16,101.504
-820.328,102.968,91.256,68.32,-17.08,22.68,-772.992,132.736,54.656
-816.424,110.288,92.232,66.78,-17.22,22.05,-788.608,179.584,78.08
-811.544,114.192,92.72,65.31,-17.22,21.14,-780.8,171.776,70.272
-809.592,118.584,94.184,63.42,-17.22,20.16,-780.8,132.736,62.464
-810.568,122.0,95.16,61.46,-17.15,19.04,-765.184,195.2,85.888
-812.52,121.024,98.088,59.22,-17.15,17.85,-804.224,179.584,101.504
-813.008,121.512,98.576,56.91,-17.22,16.66,-788.608,156.16,70.272
-816.912,117.608,99.064,54.53,-17.5,15.54,-780.8,187.392,54.656
-821.792,115.656,97.112,52.43,-17.85,14.56,-780.8,179.584,62.464
-823.744,110.776,98.576,50.47,-18.13,13.72,-804.224,148.352,70.272
-828.136,104.92,98.088,48.72,-18.48,13.02,-780.8,140.544,101.504
-831.552,99.064,99.064,47.32,-18.83,12.6,-804.224,148.352,78.08
-834.968,91.744,97.6,46.13,-19.32,12.18,-819.84,132.736,78.08
-837.408,84.424,95.16,45.29,-19.74,11.83,-827.648,132.736,93.696
-840.824,78.08,93.208,44.8,-20.09,11.62,-804.224,132.736,70.272
-842.288,71.248,91.744,44.38,-20.58,11.2,-796.416,117.12,70.272
-847.168,67.344,92.72,44.1,-20.86,11.06,-851.072,117.12,78.08
-851.56,63.928,98.576,43.89,-21.35,10.71,-835.456,93.696,70.272
-856.44,63.928,99.552,43.61,-21.91,10.43,-812.032,117.12,85.888
-858.392,64.904,103.456,43.33,-22.68,10.15,-812.032,101.504,85.888
-859.368,66.368,103.944,43.19,-23.1,10.08,-835.456,124.928,101.504
-861.808,72.224,103.944,43.26,-23.45,10.01,-835.456,124.928,85.888
-863.272,77.104,104.432,43.54,-23.73,10.01,-858.88,132.736,85.888
-863.76,85.4,104.92,44.03,-24.01,10.01,-843.264,132.736,85.888
-864.248,92.72,104.432,44.73,-24.08,10.01,-827.648,140.544,85.888
-866.688,101.504,104.92,45.29,-24.15,9.8,-812.032,140.544,93.696
-867.176,110.776,105.896,45.92,-24.15,9.66,-866.688,156.16,70.272
-869.128,119.56,104.92,46.27,-24.22,9.38,-835.456,156.16,85.888
-869.616,127.368,105.896,46.48,-23.94,9.17,-835.456,156.16,85.888
-874.496,135.176,106.384,46.69,-23.87,8.61,-851.072,218.624,93.696
-877.424,141.032,103.456,46.48,-23.8,8.19,-835.456,195.2,109.312
-882.792,146.888,103.456,46.13,-23.8,7.7,-858.88,195.2,70.272
-892.064,150.792,105.896,45.71,-23.87,7.35,-851.072,195.2,85.888
-898.408,154.696,106.384,45.01,-24.01,6.93,-874.496,187.392,101.504
-905.24,157.136,109.8,43.96,-24.36,6.65,-874.496,195.2,85.888
-912.56,156.648,111.264,43.12,-24.85,6.37,-890.112,203.008,78.08
-920.368,156.648,111.752,42.21,-25.34,6.16,-913.536,210.816,101.504
-924.76,152.744,114.68,41.44,-25.76,5.88,-897.92,210.816,117.12
-929.152,148.352,114.192,40.74,-26.18,5.67,-905.728,187.392,93.696
-933.056,141.032,114.192,40.25,-26.6,5.32,-882.304,195.2,101.504
-936.96,133.224,115.656,39.9,-26.95,4.9,-905.728,140.544,78.08
-939.888,124.928,114.192,39.48,-27.16,4.34,-897.92,179.584,109.312
-943.304,113.704,114.68,39.55,-27.44,3.78,-897.92,187.392,93.696
-945.744,104.92,115.656,39.83,-27.72,2.94,-905.728,171.776,93.696
-947.208,93.208,113.216,40.04,-27.93,2.17,-929.152,132.736,109.312
-945.256,84.912,110.776,40.81,-28.0,1.19,-913.536,148.352,85.888
-944.28,77.104,107.848,41.58,-27.93,0.49,-921.344,117.12,85.888
-942.328,70.272,103.944,42.63,-27.93,-0.35,-890.112,109.312,93.696
-939.888,65.392,98.576,43.54,-27.72,-1.19,-936.96,93.696,85.888
-938.424,64.904,98.088,44.38,-27.51,-1.96,-897.92,101.504,85.888
-935.984,64.416,96.624,45.15,-27.37,-2.73,-882.304,124.928,101.504
-933.056,65.88,96.136,45.92,-27.37,-3.29,-913.536,109.312,85.888
-930.128,67.832,100.528,46.55,-27.23,-3.78,-905.728,101.504,85.888
-926.224,72.224,101.992,47.18,-27.02,-4.27,-897.92,140.544,78.08
-924.272,78.568,107.36,47.81,-26.88,-4.62,-905.728,124.928,101.504
-919.392,86.376,110.776,48.44,-26.67,-4.83,-897.92,140.544,109.312
-914.512,91.744,117.608,49.0,-26.32,-5.11,-890.112,148.352,101.504
-911.584,98.088,124.44,49.63,-25.76,-5.25,-882.304,132.736,117.12
-909.144,103.944,127.368,50.26,-25.27,-5.6,-882.304,140.544,101.504
-907.192,110.288,132.736,50.89,-24.71,-5.88,-890.112,140.544,109.312
-905.728,116.632,138.104,51.31,-24.08,-6.23,-890.112,171.776,124.928
-905.24,124.44,145.912,51.59,-23.52,-6.79,-858.88,187.392,117.12
-901.824,131.272,147.864,51.66,-23.03,-7.49,-874.496,203.008,117.12
-902.312,139.08,150.304,51.52,-22.33,-8.05,-866.688,195.2,140.544
-899.384,145.912,156.16,51.38,-21.35,-8.54,-913.536,210.816,140.544
-901.824,149.328,155.672,51.03,-20.58,-9.24,-866.688,218.624,124.928
-902.8,155.672,162.992,50.82,-19.88,-9.73,-874.496,218.624,140.544
-905.728,159.088,168.848,50.61,-19.32,-10.22,-874.496,218.624,148.352
-907.68,162.992,177.632,50.19,-18.9,-10.64,-905.728,210.816,163.968
-910.608,162.992,185.928,49.56,-18.62,-11.13,-874.496,218.624,156.16
-912.072,165.92,192.272,48.72,-18.55,-11.48,-905.728,187.392,179.584
-911.584,165.432,196.664,47.81,-18.41,-11.76,-874.496,203.008,163.968
-910.608,164.456,202.032,46.9,-18.48,-11.97,-890.112,210.816,163.968
-910.608,160.552,202.52,46.27,-18.69,-12.04,-874.496,187.392,187.392
-904.752,157.624,199.592,45.85,-18.97,-12.25,-882.304,187.392,171.776
-898.896,155.184,199.592,45.57,-19.18,-12.6,-866.688,210.816,179.584
-893.04,149.328,200.08,45.71,-19.32,-12.81,-858.88,187.392,187.392
-886.696,143.472,203.008,45.99,-19.32,-13.16,-866.688,195.2,179.584
-880.352,136.64,202.52,46.27,-19.46,-13.72,-843.264,179.584,187.392
-873.52,132.736,207.4,46.62,-19.53,-14.14,-858.88,187.392,179.584
-865.712,124.44,209.352,46.97,-19.39,-14.77,-851.072,203.008,203.008
-855.952,119.56,212.28,47.25,-19.32,-15.47,-827.648,171.776,195.2
-847.168,116.632,212.28,47.6,-18.97,-16.1,-819.84,179.584,195.2
-839.36,113.704,213.256,47.88,-18.62,-16.73,-827.648,163.968,203.008
-833.992,113.704,217.16,47.88,-18.27,-17.29,-796.416,148.352,195.2
-825.208,112.728,218.624,48.02,-17.92,-17.64,-804.224,163.968,195.2
-818.864,112.24,223.016,47.95,-17.71,-18.13,-788.608,156.16,195.2
-810.568,112.728,224.968,47.95,-17.43,-18.41,-780.8,148.352,203.008
-803.736,116.144,225.944,47.88,-16.87,-18.62,-765.184,156.16,203.008
-797.88,118.584,227.896,47.81,-16.45,-18.55,-765.184,179.584,210.816
-793.488,123.464,228.872,47.67,-15.75,-18.34,-765.184,163.968,210.816
-793.0,127.368,229.36,47.6,-15.26,-18.13,-772.992,218.624,210.816
-790.56,129.808,232.288,47.46,-14.7,-17.99,-726.144,163.968,210.816
-787.632,135.176,233.264,47.18,-14.14,-17.85,-741.76,187.392,210.816
-787.632,137.616,236.68,46.76,-13.72,-17.71,-757.376,195.2,234.24
-789.584,141.52,244.0,46.27,-13.37,-17.43,-788.608,179.584,210.816
-793.976,144.448,252.296,45.57,-13.23,-17.29,-780.8,210.816,249.856
-796.904,146.888,263.52,45.01,-13.16,-17.08,-765.184,187.392,234.24
-800.32,147.864,269.376,44.38,-13.23,-17.01,-765.184,171.776,257.664
-802.76,150.304,274.744,43.96,-13.44,-16.94,-772.992,226.432,273.28
-807.152,149.328,280.6,43.47,-13.79,-16.8,-749.568,187.392,249.856
-813.008,149.816,284.016,43.12,-14.21,-16.66,-788.608,179.584,273.28
-815.448,148.84,284.504,42.84,-14.63,-16.66,-796.416,187.392,257.664
-816.424,149.328,289.384,42.49,-15.33,-16.66,-772.992,218.624,265.472
-818.376,150.304,290.848,42.0,-16.24,-16.59,-812.032,195.2,257.664
-818.376,149.816,291.824,41.72,-17.08,-16.45,-796.416,203.008,281.088
-815.936,148.84,292.8,41.37,-17.92,-16.24,-772.992,203.008,265.472
-813.008,148.352,293.288,41.23,-18.76,-15.96,-772.992,187.392,265.472
-808.128,147.864,291.336,41.16,-19.81,-15.61,-788.608,203.008,249.856
-802.76,148.84,292.8,41.23,-20.86,-14.98,-757.376,203.008,281.088
-794.464,149.816,291.336,41.23,-21.98,-14.28,-749.568,195.2,281.088
-782.264,147.864,293.288,41.23,-23.1,-13.65,-741.76,179.584,257.664
-769.576,146.888,291.336,41.09,-24.15,-12.74,-749.568,218.624,281.088
-754.448,145.912,289.384,40.88,-25.2,-11.9,-718.336,203.008,273.28
-736.88,142.008,288.896,40.53,-26.39,-11.06,-710.528,148.352,265.472
-718.336,137.616,284.992,40.11,-27.58,-10.08,-679.296,203.008,265.472
-698.816,133.712,282.552,39.62,-28.63,-9.24,-679.296,187.392,265.472
-678.808,125.416,279.136,39.2,-29.89,-8.33,-632.448,163.968,257.664
-656.848,120.048,280.6,38.92,-31.08,-7.42,-648.064,156.16,249.856
-634.888,109.312,280.112,38.71,-32.27,-6.37,-593.408,140.544,249.856
-613.904,100.528,279.136,38.57,-33.39,-5.32,-585.6,148.352,281.088
-590.48,89.304,279.624,38.85,-34.51,-4.34,-546.56,156.16,281.088
-566.08,75.152,277.184,39.27,-35.21,-3.22,-554.368,140.544,249.856
-545.096,62.952,274.256,39.76,-35.7,-2.17,-530.944,132.736,257.664
-523.624,47.336,269.864,40.39,-35.91,-1.4,-499.712,93.696,242.048
-502.64,33.184,261.568,40.88,-35.98,-0.77,-468.48,78.08,242.048
-486.048,19.032,250.832,41.3,-35.63,-0.28,-445.056,85.888,226.432
-470.92,5.368,235.704,41.65,-35.21,0.0,-429.44,39.04,218.624
-459.696,-9.272,220.576,41.86,-34.51,0.35,-437.248,62.464,210.816
-450.912,-24.4,204.472,41.93,-33.67,0.63,-429.44,39.04,187.392
-447.008,-36.6,190.808,41.79,-32.62,1.05,-413.824,7.808,156.16
-447.984,-47.824,176.656,41.58,-31.64,1.33,-421.632,-15.616,156.16
-451.4,-59.536,170.312,41.37,-30.66,1.89,-437.248,-7.808,148.352
-458.232,-69.296,165.92,41.23,-29.68,2.45,-460.672,15.616,140.544
-466.04,-79.056,159.088,41.23,-28.91,3.01,-429.44,-23.424,109.312
-474.336,-85.888,150.304,41.09,-28.21,3.64,-452.864,-31.232,132.736
-483.12,-95.648,142.496,41.02,-27.37,4.2,-445.056,-46.848,109.312
-493.856,-101.992,134.688,40.88,-26.53,4.69,-452.864,-70.272,101.504
-504.104,-106.872,129.32,40.6,-25.83,4.83,-468.48,-39.04,124.928
-515.328,-112.24,123.952,40.11,-25.13,4.76,-484.096,-46.848,78.08
-525.088,-114.192,119.56,39.27,-24.57,4.62,-491.904,-62.464,124.928
-532.408,-112.24,117.12,38.15,-23.94,4.27,-491.904,-62.464,78.08
-539.24,-109.8,114.192,36.75,-23.31,3.71,-538.752,-70.272,109.312
-545.096,-104.92,114.192,34.93,-22.68,3.29,-530.944,-62.464,85.888
-549.0,-98.576,113.704,33.18,-21.84,2.8,-538.752,-39.04,93.696
-552.416,-89.304,112.24,31.29,-21.07,2.52,-515.328,-39.04,109.312
-555.344,-82.472,108.824,29.12,-20.02,2.31,-515.328,-15.616,93.696
-557.296,-71.736,108.824,27.16,-19.04,2.1,-523.136,-31.232,70.272
-561.2,-63.928,110.288,25.2,-17.92,2.1,-523.136,-15.616,85.888
-565.592,-52.704,110.776,22.96,-16.94,1.96,-530.944,0.0,70.272
-569.008,-44.408,121.024,20.72,-15.82,2.03,-538.752,15.616,101.504
-575.352,-38.552,124.928,18.2,-14.98,2.1,-562.176,23.424,117.12
-580.72,-29.768,133.712,15.68,-13.93,2.03,-546.56,39.04,101.504
-589.016,-24.4,138.592,13.23,-13.02,1.96,-546.56,31.232,140.544
-600.728,-22.936,148.84,10.78,-12.11,2.03,-562.176,62.464,117.12
-615.368,-21.472,157.136,8.4,-11.34,2.03,-577.792,39.04,156.16
-634.4,-22.448,171.288,6.44,-10.71,1.96,-632.448,-15.616,163.968
-656.36,-25.376,185.928,4.69,-10.15,1.96,-624.64,23.424,156.16
-682.712,-32.208,202.032,3.43,-10.01,1.96,-671.488,23.424,179.584
-713.944,-40.504,218.624,3.01,-10.15,2.03,-655.872,-15.616,210.816
-742.248,-51.24,229.848,3.08,-10.5,2.24,-710.528,15.616,210.816
-770.552,-64.416,239.12,4.13,-11.13,2.38,-718.336,-15.616,218.624
-795.44,-79.544,245.952,5.95,-11.76,2.73,-741.76,-23.424,242.048
-823.744,-95.648,247.416,8.19,-12.32,3.15,-796.416,-54.656,234.24
-851.56,-113.704,251.32,11.06,-13.02,3.36,-835.456,-62.464,218.624
-880.84,-130.296,256.2,14.21,-13.79,3.5,-866.688,-93.696,234.24
-908.656,-143.472,264.496,17.57,-14.91,3.43,-858.88,-109.312,249.856
-934.032,-153.232,275.232,21.07,-16.24,3.36,-913.536,-117.12,257.664
-955.504,-157.624,281.576,24.43,-17.92,3.08,-929.152,-109.312,288.896
-971.12,-158.112,285.968,27.51,-19.6,3.01,-944.768,-117.12,257.664
-986.248,-151.768,287.92,30.59,-21.28,2.94,-944.768,-101.504,265.472
-998.448,-146.888,287.432,33.6,-22.82,3.15,-976.0,-109.312,265.472
-1008.208,-140.056,286.944,36.68,-24.29,3.43,-976.0,-93.696,273.28
-1018.944,-131.272,282.064,39.62,-25.83,3.57,-991.616,-62.464,249.856
-1029.192,-119.072,280.112,42.14,-27.37,3.78,-960.384,-78.08,242.048
-1037.976,-103.456,279.624,43.96,-29.05,3.78,-1030.656,-31.232,249.856
-1047.736,-88.816,279.624,45.15,-30.8,3.78,-1007.232,-46.848,257.664
-1055.056,-71.736,273.28,45.57,-32.41,3.64,-1030.656,-15.616,265.472
-1062.864,-57.584,267.912,45.43,-34.02,3.57,-1046.272,7.808,242.048
-1069.696,-44.896,259.128,44.94,-35.63,3.29,-1061.888,7.808,257.664
-1074.576,-32.208,249.368,44.24,-36.82,3.08,-1038.464,46.848,242.048
-1082.872,-20.496,236.192,43.68,-37.94,2.45,-1069.696,23.424,218.624
-1092.144,-8.296,222.528,42.98,-38.92,1.82,-1077.504,31.232,195.2
-1099.464,1.952,204.96,42.07,-39.9,0.77,-1077.504,46.848,179.584
-1106.784,12.2,186.416,40.88,-40.74,-0.56,-1085.312,39.04,163.968
-1118.984,19.52,172.264,39.27,-41.44,-2.17,-1069.696,62.464,156.16
-1125.816,25.864,150.792,37.24,-42.28,-3.85,-1093.12,78.08,132.736
-1134.112,31.72,131.76,34.72,-42.98,-5.67,-1116.544,78.08,148.352
-1141.92,36.6,113.216,32.06,-43.75,-7.63,-1147.776,93.696,93.696
-1148.264,40.016,95.16,29.33,-44.59,-9.52,-1132.16,85.888,62.464
-1155.584,40.992,77.592,26.67,-45.22,-11.2,-1100.928,101.504,70.272
-1159.0,41.968,58.072,24.15,-45.99,-12.6,-1147.776,85.888,31.232
-1161.44,41.968,42.456,21.77,-46.48,-13.86,-1132.16,70.272,23.424
-1161.928,40.992,27.816,19.53,-46.97,-15.05,-1155.584,85.888,7.808
-1158.024,40.504,18.056,17.5,-47.18,-15.75,-1132.16,85.888,15.616
-1153.632,38.064,6.832,15.4,-47.18,-16.52,-1124.352,78.08,-31.232
-1147.776,35.136,-0.976,13.37,-47.04,-17.15,-1100.928,70.272,-31.232
-1139.968,29.28,-9.76,11.13,-46.76,-17.57,-1132.16,54.656,-31.232
-1131.672,24.888,-17.08,9.03,-46.34,-17.99,-1093.12,78.08,-39.04
-1124.84,19.52,-21.472,6.93,-45.71,-18.2,-1093.12,54.656,-23.424
-1120.936,14.152,-18.544,4.9,-44.94,-18.27,-1093.12,62.464,-46.848
-1117.032,5.368,-14.152,2.8,-44.38,-17.99,-1085.312,54.656,-7.808
-1112.64,-0.488,-6.832,0.98,-43.75,-17.43,-1069.696,39.04,-31.232
-1109.712,-10.248,-1.464,-0.35,-43.26,-16.73,-1069.696,54.656,-39.04
-1106.296,-20.496,5.856,-1.05,-42.49,-15.68,-1069.696,31.232,-7.808
-1104.344,-33.672,11.224,-1.19,-41.86,-14.84,-1085.312,7.808,-23.424
-1101.416,-45.872,16.104,-0.49,-41.02,-13.79,-1061.888,-7.808,-7.808
-1098.0,-60.512,21.96,0.77,-39.97,-12.74,-1069.696,0.0,0.0
-1092.632,-75.64,22.448,2.59,-38.85,-11.83,-1061.888,-15.616,0.0
-1088.24,-92.232,27.328,5.04,-37.31,-11.06,-1069.696,-39.04,0.0
-1085.8,-106.384,35.624,7.77,-35.77,-10.71,-1054.08,-78.08,-7.808
-1085.8,-118.584,44.896,10.78,-34.23,-10.5,-1046.272,-101.504,23.424
-1088.728,-131.272,51.728,13.79,-32.97,-10.43,-1077.504,-85.888,23.424
-1086.776,-136.64,59.536,17.01,-31.78,-10.57,-1061.888,-101.504,46.848
-1087.264,-137.616,69.296,20.23,-30.73,-10.78,-1061.888,-85.888,46.848
-1086.288,-139.08,77.104,23.66,-29.89,-10.85,-1061.888,-78.08,62.464
-1084.336,-133.712,88.816,27.09,-29.19,-10.78,-1069.696,-70.272,78.08
-1082.384,-127.368,97.6,30.8,-28.42,-10.57,-1046.272,-85.888,70.272
-1077.504,-118.096,103.944,34.58,-27.72,-10.29,-1061.888,-62.464,62.464
-1075.552,-104.92,114.68,38.15,-26.88,-10.15,-1046.272,-54.656,85.888
-1070.672,-90.768,124.44,41.44,-25.9,-9.94,-1022.848,-39.04,117.12
-1066.28,-75.152,132.736,44.31,-24.85,-9.94,-1038.464,-7.808,156.16
-1061.4,-60.024,142.496,46.76,-23.87,-10.08,-1030.656,0.0,93.696
-1054.568,-38.552,150.792,48.65,-22.89,-10.43,-1015.04,7.808,148.352
-1046.76,-19.52,157.136,49.98,-21.7,-11.06,-1022.848,54.656,132.736
-1036.512,1.464,166.896,50.75,-20.65,-11.69,-991.616,70.272,163.968
-1031.632,23.424,173.728,51.03,-19.6,-12.25,-1007.232,78.08,171.776
-1024.312,43.432,187.88,50.68,-18.69,-12.81,-976.0,109.312,179.584
-1017.48,61.488,195.2,49.98,-17.99,-13.23,-968.192,109.312,179.584
-1009.672,76.616,205.936,48.72,-17.36,-13.51,-960.384,140.544,210.816
-1003.328,89.792,217.16,47.18,-16.87,-13.79,-960.384,132.736,195.2
-996.008,99.552,228.872,45.5,-16.38,-13.93,-960.384,148.352,210.816
-986.248,104.92,233.752,43.82,-15.89,-13.93,-960.384,179.584,234.24
-975.024,108.824,236.192,42.42,-15.26,-14.07,-952.576,156.16,210.816
-966.24,109.312,240.096,40.67,-14.56,-14.28,-929.152,156.16,195.2
-957.944,106.384,245.952,38.92,-14.0,-14.77,-936.96,140.544,218.624
-954.04,102.48,251.32,37.17,-13.23,-15.33,-905.728,156.16,218.624
-948.184,96.624,258.152,35.28,-12.74,-16.1,-921.344,140.544,242.048
-942.816,89.304,265.472,33.32,-12.39,-16.87,-905.728,124.928,249.856
-938.424,81.008,269.864,31.64,-11.97,-17.57,-905.728,109.312,218.624
-932.08,70.76,271.816,30.1,-11.55,-18.27,-874.496,124.928,257.664
-925.736,60.024,272.304,28.77,-11.27,-19.04,-890.112,101.504,242.048
-916.464,48.312,276.696,27.79,-10.85,-19.6,-882.304,93.696,249.856
-912.56,38.552,277.672,27.02,-10.29,-20.16,-905.728,85.888,242.048
-904.752,26.352,281.576,26.53,-10.01,-20.58,-866.688,70.272,257.664
-897.92,15.128,284.992,26.46,-9.73,-20.93,-882.304,78.08,281.088
-890.6,4.392,295.24,26.74,-9.24,-21.14,-890.112,62.464,281.088
-882.304,-3.904,301.584,27.09,-8.82,-21.56,-835.456,31.232,273.28
-875.472,-13.176,305.976,27.86,-8.26,-21.77,-827.648,39.04,288.896
-869.616,-20.008,310.856,29.05,-7.7,-22.05,-819.84,31.232,281.088
-862.296,-26.352,316.224,30.24,-7.0,-22.4,-827.648,23.424,288.896
-856.928,-30.256,318.664,31.71,-6.37,-22.82,-827.648,15.616,304.512
-851.56,-33.672,324.032,33.53,-5.53,-23.31,-827.648,31.232,320.128
-849.608,-36.6,326.96,35.42,-4.83,-23.8,-827.648,15.616,296.704
-847.656,-38.552,327.936,37.52,-4.2,-24.43,-827.648,15.616,312.32
-848.632,-39.528,326.472,39.9,-3.64,-25.2,-819.84,7.808,312.32
-851.072,-36.6,325.984,41.93,-3.15,-25.97,-827.648,15.616,320.128
-852.048,-33.672,320.616,44.1,-2.87,-26.6,-819.84,15.616,296.704
-850.584,-30.744,319.152,46.06,-2.73,-27.23,-827.648,31.232,296.704
-851.56,-24.4,313.784,47.81,-2.52,-27.72,-812.032,7.808,312.32
-850.096,-16.592,313.784,49.28,-2.31,-28.07,-819.84,70.272,273.28
-848.144,-5.856,317.688,50.61,-2.24,-28.35,-835.456,62.464,288.896
-847.656,5.856,328.424,51.66,-1.96,-28.28,-827.648,31.232,312.32
-842.288,20.984,332.816,52.64,-1.82,-28.28,-812.032,70.272,296.704
-835.456,36.6,334.28,53.34,-1.47,-28.07,-780.8,85.888,312.32
-828.624,53.68,332.816,53.69,-1.05,-27.86,-819.84,132.736,320.128
-822.768,71.248,333.304,53.83,-0.28,-27.58,-788.608,124.928,312.32
-819.352,89.792,340.624,53.55,0.35,-27.3,-780.8,140.544,327.936
-815.448,107.36,347.944,52.92,0.98,-27.02,-796.416,156.16,359.168
-810.568,125.416,354.776,52.01,1.4,-26.74,-780.8,163.968,335.744
-804.224,140.056,358.68,50.96,1.75,-26.6,-788.608,210.816,343.552
-798.368,152.256,363.56,49.77,2.24,-26.46,-765.184,195.2,327.936
-793.976,161.528,366.976,48.51,2.8,-26.39,-757.376,210.816,335.744
-794.464,167.384,376.736,47.32,3.15,-26.39,-772.992,218.624,359.168
-790.072,170.8,382.592,45.71,3.29,-26.32,-757.376,203.008,351.36
-787.144,172.752,386.984,44.1,3.22,-26.32,-772.992,226.432,366.976
-779.824,171.288,390.4,42.42,3.22,-26.25,-733.952,218.624,398.208
-772.504,166.896,395.28,40.53,3.43,-26.25,-741.76,203.008,374.784
-765.672,161.04,401.136,38.5,3.5,-26.11,-733.952,210.816,382.592
-758.84,152.744,404.552,36.82,3.5,-25.83,-726.144,195.2,390.4
-751.52,140.056,404.064,35.56,3.5,-25.48,-702.72,195.2,382.592
-747.128,125.904,402.112,34.58,3.5,-24.99,-733.952,179.584,374.784
-743.712,110.776,402.6,33.88,3.57,-24.5,-741.76,163.968,374.784
-745.176,94.184,412.36,33.32,3.57,-23.87,-710.528,140.544,382.592
-750.056,77.592,426.512,32.83,3.36,-23.24,-718.336,117.12,406.016
-754.448,60.512,440.176,32.27,2.87,-22.68,-726.144,101.504,445.056
-757.376,44.408,449.936,31.85,2.17,-22.05,-726.144,93.696,445.056
-760.792,27.328,460.184,31.57,1.47,-21.49,-741.76,93.696,460.672
-764.208,14.64,467.992,31.64,0.84,-21.07,-749.568,54.656,460.672
-765.184,1.464,469.944,32.13,0.35,-20.65,-726.144,39.04,468.48
-768.6,-9.76,468.968,32.9,-0.21,-20.3,-726.144,54.656,452.864
-774.456,-19.52,469.456,33.67,-0.77,-20.23,-741.76,7.808,437.248
-782.264,-23.424,470.92,34.65,-1.4,-20.16,-741.76,39.04,445.056
-792.024,-25.864,472.384,35.56,-2.17,-20.3,-780.8,15.616,437.248
-802.76,-24.4,475.312,36.4,-3.01,-20.58,-796.416,23.424,468.48
-811.056,-20.984,474.824,37.1,-4.06,-21.07,-788.608,62.464,452.864
-821.304,-13.176,474.824,37.59,-4.97,-21.63,-780.8,23.424,445.056
-831.552,-0.488,474.336,37.59,-6.16,-22.26,-788.608,15.616,445.056
-841.312,11.712,478.24,37.31,-7.28,-23.1,-804.224,46.848,452.864
-855.464,27.328,482.144,36.75,-8.4,-24.01,-812.032,78.08,452.864
-866.2,43.92,487.024,35.56,-9.66,-25.06,-858.88,78.08,460.672
-877.912,61.976,491.416,34.23,-10.85,-26.11,-866.688,117.12,499.712
-891.576,78.08,491.416,32.55,-12.18,-27.16,-843.264,132.736,468.48
-903.776,93.696,492.392,30.59,-13.44,-28.07,-874.496,109.312,476.288
-915.0,102.48,490.928,28.7,-14.63,-29.05,-905.728,148.352,476.288
-927.2,109.8,483.608,26.88,-15.96,-29.96,-897.92,163.968,460.672
-938.912,113.216,475.312,25.41,-17.36,-30.87,-905.728,148.352,452.864
-949.648,113.216,467.016,23.8,-18.69,-31.78,-929.152,156.16,468.48
-963.312,112.728,464.576,22.19,-19.81,-32.69,-944.768,187.392,452.864
-976.0,109.312,466.528,20.16,-21.14,-33.46,-952.576,140.544,460.672
-985.272,104.92,467.016,17.99,-22.33,-34.16,-952.576,148.352,445.056
-991.128,99.552,466.528,15.75,-23.59,-34.86,-968.192,140.544,437.248
-993.568,95.648,462.136,13.79,-24.78,-35.56,-960.384,140.544,445.056
-997.96,93.208,459.208,12.11,-25.48,-36.19,-968.192,140.544,429.44
-998.936,91.744,456.768,10.99,-26.25,-37.03,-952.576,132.736,445.056
-999.912,89.304,455.304,10.29,-26.74,-37.59,-968.192,140.544,437.248
-1001.864,88.816,451.4,10.01,-27.16,-38.15,-968.192,109.312,437.248
-1005.768,86.376,442.616,10.08,-27.44,-38.85,-968.192,140.544,421.632
-1007.232,83.936,429.928,10.36,-27.65,-39.55,-983.808,140.544,437.248
-1011.624,84.424,426.024,10.36,-27.72,-40.32,-983.808,140.544,413.824
-1017.968,83.448,428.952,10.15,-27.86,-41.23,-991.616,124.928,413.824
-1022.36,87.84,434.32,9.45,-28.14,-42.0,-991.616,140.544,437.248
-1023.824,94.184,434.808,8.4,-28.56,-42.7,-999.424,140.544,421.632
-1017.968,100.528,434.808,7.14,-28.7,-43.12,-1030.656,124.928,429.44
-1008.696,108.824,427.976,5.95,-28.7,-43.33,-960.384,156.16,398.208
-998.448,115.168,422.608,4.9,-28.42,-43.26,-952.576,148.352,398.208
-991.128,121.512,419.192,4.13,-27.93,-43.05,-952.576,156.16,390.4
-987.224,126.88,418.216,3.43,-27.02,-42.91,-976.0,148.352,390.4
-983.32,128.344,420.168,2.87,-26.25,-42.56,-976.0,187.392,413.824
-980.88,125.904,419.68,2.31,-25.41,-42.21,-968.192,179.584,406.016
-982.344,121.512,422.608,1.47,-24.78,-42.07,-968.192,156.16,421.632
-982.832,113.704,427.976,0.49,-24.22,-41.86,-944.768,163.968,398.208
-982.344,101.504,431.392,-0.56,-23.73,-41.72,-952.576,148.352,413.824
-979.904,88.816,438.712,-1.47,-23.45,-41.51,-976.0,132.736,413.824
-977.464,73.2,440.176,-2.17,-22.96,-41.23,-944.768,101.504,445.056
-973.072,56.12,441.64,-2.45,-22.4,-40.88,-921.344,93.696,413.824
-969.168,40.504,438.712,-2.52,-21.56,-40.6,-936.96,101.504,437.248
-968.192,27.816,437.248,-2.38,-20.58,-40.39,-944.768,62.464,437.248
-970.144,18.056,438.224,-2.17,-19.67,-39.97,-976.0,78.08,437.248
-970.144,10.248,440.664,-1.89,-18.9,-39.69,-944.768,46.848,437.248
-972.584,5.856,442.128,-1.89,-18.13,-39.13,-944.768,62.464,413.824
-975.024,3.904,441.152,-1.82,-17.22,-38.57,-952.576,46.848,421.632
-978.928,4.392,442.616,-1.96,-16.45,-37.87,-936.96,46.848,421.632
-982.832,6.344,443.104,-2.1,-15.61,-37.17,-952.576,54.656,429.44
-987.712,10.248,444.08,-2.38,-14.77,-36.4,-983.808,46.848,429.44
-992.104,15.128,448.472,-2.73,-14.28,-35.77,-976.0,62.464,429.44
-996.984,18.544,457.744,-3.22,-13.79,-35.14,-976.0,54.656,460.672
-1000.4,20.984,466.528,-3.5,-13.44,-34.72,-983.808,54.656,452.864
-1003.816,20.496,470.92,-3.85,-13.16,-34.3,-983.808,54.656,452.864
-1005.768,19.032,474.824,-3.99,-12.74,-33.88,-999.424,62.464,468.48
-1007.232,13.664,478.24,-4.2,-12.32,-33.81,-976.0,54.656,476.288
-1010.16,5.856,481.168,-4.48,-11.9,-33.95,-999.424,46.848,476.288
-1014.064,-3.416,480.192,-4.62,-11.62,-34.02,-976.0,46.848,484.096
-1018.944,-15.128,480.68,-4.76,-11.34,-34.3,-960.384,39.04,484.096
-1025.288,-25.376,478.24,-4.83,-11.27,-34.51,-999.424,7.808,468.48
-1033.096,-38.064,471.896,-4.69,-11.41,-34.65,-991.616,23.424,460.672
-1038.464,-49.288,459.696,-4.55,-11.34,-34.58,-1007.232,7.808,429.44
-1047.248,-57.584,451.4,-4.55,-11.41,-34.58,-1015.04,-15.616,406.016
-1053.592,-64.416,446.032,-4.76,-11.55,-34.44,-1007.232,-7.808,421.632
-1059.936,-65.392,439.688,-5.11,-11.76,-34.3,-1046.272,-15.616,429.44
-1064.328,-65.392,433.832,-5.6,-12.11,-33.88,-1038.464,7.808,429.44
-1066.768,-64.416,425.536,-6.16,-12.39,-33.39,-1022.848,-23.424,398.208
-1065.792,-63.44,418.704,-6.37,-12.46,-32.9,-1030.656,7.808,390.4
-1067.256,-59.536,413.336,-6.51,-12.46,-32.48,-1046.272,15.616,390.4
-1064.816,-57.584,404.064,-6.44,-12.53,-32.27,-1022.848,7.808,390.4
-1058.472,-53.68,398.208,-6.37,-12.6,-32.27,-1030.656,0.0,382.592
-1055.056,-51.24,391.864,-6.23,-12.53,-32.48,-1030.656,-7.808,382.592
-1049.2,-49.776,389.424,-6.09,-12.25,-32.97,-1030.656,15.616,359.168
-1044.808,-48.312,381.128,-6.02,-11.83,-33.67,-1007.232,23.424,351.36
-1040.904,-46.848,372.832,-5.81,-11.34,-34.44,-999.424,23.424,359.168
-1038.952,-47.336,364.536,-5.88,-10.85,-35.21,-1022.848,0.0,351.36
-1037.0,-48.312,353.312,-5.81,-10.43,-36.05,-999.424,15.616,327.936
-1038.952,-45.872,346.968,-5.88,-9.94,-36.82,-1015.04,-15.616,327.936
-1040.416,-43.92,348.92,-6.44,-9.38,-37.45,-1007.232,0.0,327.936
-1043.344,-42.456,345.992,-6.93,-8.75,-37.87,-999.424,-23.424,327.936
-1045.296,-41.48,337.696,-7.49,-8.19,-38.08,-1015.04,15.616,320.128
-1044.32,-40.504,329.888,-7.98,-7.49,-37.87,-1007.232,0.0,296.704
-1045.784,-42.456,322.568,-8.4,-6.58,-37.59,-1007.232,15.616,288.896
-1047.248,-41.968,313.296,-8.54,-5.67,-37.17,-1015.04,39.04,312.32
-1048.712,-42.944,305.976,-8.61,-4.55,-36.82,-1038.464,7.808,296.704
-1051.64,-42.456,303.048,-8.61,-3.57,-36.47,-1038.464,39.04,296.704
-1050.664,-42.456,303.048,-8.47,-2.59,-36.05,-1007.232,39.04,281.088
-1051.152,-41.48,305.488,-8.33,-1.4,-35.77,-1030.656,31.232,288.896
-1052.128,-37.088,308.416,-7.91,-0.42,-35.63,-1022.848,31.232,312.32
-1049.2,-35.624,312.32,-7.49,0.63,-35.56,-1030.656,-7.808,288.896
-1048.224,-33.672,316.712,-7.21,1.75,-35.63,-1038.464,31.232,273.28
-1046.272,-31.72,320.128,-6.65,2.59,-35.77,-1022.848,23.424,304.512
-1047.248,-26.352,318.664,-6.02,3.5,-35.84,-1030.656,23.424,304.512
-1049.688,-20.984,317.688,-5.46,4.41,-35.91,-1038.464,23.424,312.32
-1053.592,-17.08,318.176,-4.97,5.32,-35.7,-1022.848,31.232,304.512
-1061.4,-11.224,325.008,-4.83,6.16,-35.42,-1054.08,23.424,312.32
-1068.232,-7.808,333.304,-4.62,6.79,-35.07,-1038.464,39.04,320.128
-1072.624,-0.976,340.624,-4.69,7.14,-34.44,-1061.888,54.656,312.32
-1076.04,3.416,343.552,-4.69,7.7,-33.88,-1046.272,39.04,327.936
-1077.992,9.272,348.432,-4.48,8.4,-33.18,-1038.464,46.848,335.744
-1080.92,13.664,352.336,-4.34,9.03,-32.48,-1054.08,62.464,335.744
-1080.92,19.032,355.752,-3.99,9.31,-31.92,-1061.888,70.272,359.168
-1082.384,21.96,360.632,-3.5,9.66,-31.64,-1046.272,78.08,351.36
-1083.848,24.4,367.464,-3.22,10.08,-31.5,-1046.272,78.08,359.168
-1085.8,27.816,376.248,-3.01,10.22,-31.36,-1038.464,70.272,343.552
-1086.288,30.256,379.176,-2.73,10.36,-31.29,-1069.696,78.08,359.168
-1084.824,31.232,382.104,-2.73,10.36,-31.29,-1061.888,70.272,382.592
-1087.264,31.232,384.056,-2.52,10.43,-31.36,-1054.08,93.696,374.784
-1085.8,32.208,386.008,-2.31,10.43,-31.29,-1069.696,62.464,374.784
-1087.752,31.72,385.032,-2.1,10.36,-31.43,-1054.08,70.272,359.168
-1089.216,30.744,382.592,-1.75,10.22,-31.5,-1077.504,85.888,366.976
-1096.048,28.792,379.176,-1.19,10.01,-31.36,-1061.888,117.12,359.168
-1100.44,25.376,379.176,-0.77,9.87,-31.22,-1061.888,78.08,366.976
-1104.832,24.4,379.664,-0.56,9.8,-31.15,-1085.312,85.888,366.976
-1109.224,23.912,378.2,-0.21,9.59,-31.01,-1085.312,78.08,374.784
-1112.64,22.936,377.224,-0.14,9.24,-31.01,-1085.312,62.464,366.976
-1114.104,24.4,374.296,-0.07,9.03,-30.73,-1077.504,93.696,351.36
-1112.64,28.304,370.88,-0.07,8.68,-30.59,-1108.736,78.08,335.744
-1112.152,32.208,372.832,-0.07,8.75,-30.24,-1085.312,93.696,343.552
-1113.128,34.648,369.416,0.14,8.68,-29.75,-1093.12,93.696,351.36
-1113.616,38.064,364.048,0.35,8.68,-29.4,-1108.736,101.504,351.36
-1115.568,39.528,359.656,0.7,8.68,-28.98,-1085.312,101.504,320.128
-1119.96,43.92,356.728,0.98,8.75,-28.63,-1085.312,109.312,335.744
-1124.84,46.848,361.12,1.05,8.68,-28.35,-1077.504,93.696,351.36
-1130.696,48.312,364.536,1.05,8.47,-27.93,-1085.312,78.08,351.36
-1135.088,48.312,359.656,1.05,8.19,-27.44,-1147.776,109.312,343.552
-1137.04,47.824,353.312,1.05,8.19,-26.95,-1124.352,117.12,327.936
-1142.896,47.336,352.824,0.91,8.19,-26.39,-1100.928,93.696,320.128
-1147.776,45.872,352.824,0.77,8.26,-25.83,-1132.16,117.12,335.744
-1152.656,44.896,354.288,0.7,8.33,-25.06,-1132.16,109.312,335.744
-1157.048,42.944,352.336,0.63,8.47,-24.15,-1147.776,109.312,343.552
-1163.392,39.04,347.944,0.7,8.54,-23.38,-1147.776,70.272,343.552
-1168.76,34.648,346.48,0.91,8.54,-22.47,-1147.776,70.272,335.744
-1175.104,31.232,348.92,1.26,8.61,-21.63,-1171.2,78.08,335.744
-1180.96,25.864,353.312,1.47,8.82,-20.79,-1155.584,93.696,327.936
-1182.912,22.936,355.752,1.89,8.89,-20.16,-1147.776,78.08,351.36
-1183.888,19.52,354.288,2.17,9.17,-19.6,-1179.008,70.272,351.36
-1186.328,19.032,353.312,2.31,9.59,-19.11,-1179.008,54.656,335.744
-1188.768,19.032,351.848,2.59,9.87,-18.83,-1155.584,70.272,351.36
-1192.672,20.008,356.24,2.73,10.29,-18.48,-1163.392,70.272,351.36
-1194.624,22.448,357.704,2.73,10.64,-17.99,-1155.584,85.888,335.744
-1197.552,22.448,357.704,2.8,10.99,-17.43,-1171.2,78.08,343.552
-1200.968,18.056,362.096,2.66,11.48,-16.73,-1163.392,62.464,343.552
-1202.432,13.664,364.048,2.94,11.76,-16.03,-1202.432,70.272,366.976
-1202.92,5.368,363.56,3.22,12.11,-15.4,-1179.008,46.848,335.744
-1198.04,-4.88,364.536,3.5,12.46,-14.98,-1155.584,46.848,359.168
-1193.16,-16.592,361.12,3.92,12.88,-14.56,-1171.2,39.04,343.552
-1190.232,-27.328,360.632,4.55,13.44,-14.35,-1171.2,39.04,351.36
-1187.304,-39.04,359.168,5.18,13.86,-14.35,-1179.008,23.424,351.36
-1184.864,-47.824,358.192,5.74,14.42,-14.42,-1132.16,7.808,366.976
-1181.448,-52.216,357.704,6.16,14.98,-14.35,-1147.776,-15.616,335.744
-1176.568,-55.632,356.728,6.72,15.54,-14.35,-1116.544,-15.616,343.552
-1174.616,-56.12,359.168,6.93,15.96,-14.35,-1124.352,0.0,366.976
-1171.2,-54.168,362.096,7.0,16.8,-14.21,-1132.16,-15.616,351.36
-1167.784,-52.704,364.048,6.93,17.43,-14.0,-1155.584,7.808,359.168
-1167.296,-50.264,365.512,6.93,18.06,-13.86,-1155.584,-7.808,343.552
-1164.368,-47.824,364.048,6.79,18.55,-13.58,-1147.776,-7.808,335.744
-1161.44,-49.776,360.144,6.58,19.04,-13.3,-1147.776,-7.808,351.36
-1161.928,-48.8,356.24,6.23,19.32,-12.95,-1124.352,-7.808,335.744
-1160.464,-50.752,352.824,6.02,19.67,-12.53,-1147.776,31.232,351.36
-1158.512,-54.168,353.312,5.39,19.81,-12.18,-1108.736,-7.808,320.128
-1154.608,-58.072,353.8,4.9,20.02,-11.76,-1108.736,0.0,366.976
-1149.728,-62.952,358.192,4.48,20.16,-11.62,-1124.352,0.0,343.552
-1140.944,-66.856,358.192,3.85,20.37,-11.27,-1100.928,15.616,327.936
-1131.672,-71.248,356.24,3.43,20.44,-11.2,-1093.12,-31.232,343.552
-1122.888,-73.688,355.752,3.08,20.79,-11.06,-1093.12,-7.808,335.744
-1114.592,-74.176,356.24,2.52,20.93,-10.92,-1077.504,-23.424,343.552
-1106.296,-74.664,352.336,1.82,21.0,-10.71,-1069.696,-23.424,335.744
-1096.536,-75.64,349.408,1.12,21.07,-10.36,-1069.696,-31.232,327.936
-1089.704,-77.104,344.528,0.35,21.0,-9.94,-1030.656,-23.424,320.128
-1083.36,-77.592,344.528,-0.56,21.14,-9.59,-1069.696,0.0,327.936
-1078.968,-77.592,342.088,-1.4,21.07,-9.24,-1038.464,-39.04,327.936
-1072.136,-78.08,345.016,-2.1,21.0,-8.96,-1054.08,-23.424,327.936
-1064.328,-81.496,345.504,-2.87,20.86,-8.68,-1038.464,-31.232,335.744
-1057.008,-82.472,345.016,-3.64,20.72,-8.47,-999.424,-39.04,335.744
-1045.784,-83.448,346.968,-4.41,20.65,-8.33,-1038.464,-39.04,343.552
-1036.024,-90.768,343.064,-5.11,20.37,-8.33,-1007.232,-54.656,320.128
-1027.24,-94.672,341.6,-5.67,20.23,-8.4,-999.424,-39.04,320.128
-1017.968,-103.456,341.6,-6.09,20.09,-8.47,-960.384,-54.656,327.936
-1010.648,-111.264,337.208,-6.3,19.81,-8.4,-999.424,-78.08,327.936
-1001.376,-122.0,333.304,-6.3,19.39,-8.33,-983.808,-70.272,320.128
-991.128,-130.784,328.912,-6.02,19.11,-8.47,-960.384,-85.888,320.128
-981.856,-142.008,325.984,-5.81,19.04,-8.47,-960.384,-85.888,312.32
-976.0,-147.864,323.056,-5.67,18.97,-8.68,-960.384,-109.312,320.128
-966.728,-152.256,320.616,-5.67,18.69,-8.96,-944.768,-101.504,296.704
-961.36,-155.184,317.688,-5.6,18.62,-9.24,-913.536,-85.888,320.128
-954.04,-155.184,313.784,-5.6,18.13,-9.45,-913.536,-117.12,296.704
-947.208,-153.232,311.344,-5.74,17.92,-9.45,-897.92,-85.888,296.704
-940.864,-147.864,308.416,-5.88,17.57,-9.45,-890.112,-109.312,288.896
-935.496,-142.496,306.952,-5.95,17.29,-9.24,-905.728,-109.312,296.704
-930.128,-137.128,307.928,-6.37,17.01,-9.1,-905.728,-85.888,273.28
-927.2,-130.784,308.416,-7.0,16.8,-8.96,-866.688,-54.656,312.32
-924.76,-125.904,303.048,-7.49,16.59,-8.96,-913.536,-78.08,288.896
-922.808,-121.512,305.488,-7.84,16.38,-8.89,-890.112,-78.08,288.896
-923.784,-119.072,306.952,-8.4,16.1,-8.89,-890.112,-62.464,296.704
-923.784,-117.12,309.392,-8.82,15.82,-8.96,-890.112,-46.848,312.32
-922.808,-115.656,309.88,-9.24,15.4,-8.96,-874.496,-78.08,304.512
-922.32,-116.144,308.904,-9.8,15.05,-9.03,-874.496,-62.464,296.704
-919.88,-117.12,307.44,-10.5,14.7,-9.1,-897.92,-70.272,296.704
-918.416,-117.608,307.44,-11.2,14.35,-9.1,-905.728,-70.272,288.896
-918.416,-116.144,304.512,-11.97,13.93,-9.1,-866.688,-62.464,296.704
-916.952,-115.656,304.024,-12.81,13.44,-8.96,-905.728,-85.888,288.896
-914.024,-115.168,304.512,-13.51,13.02,-8.82,-866.688,-39.04,296.704
-912.072,-112.24,300.608,-14.14,12.46,-8.61,-890.112,-62.464,281.088
-911.096,-109.8,298.168,-14.84,12.18,-8.4,-905.728,-54.656,296.704
-911.096,-105.408,296.704,-15.47,11.69,-8.19,-874.496,-46.848,257.664
-911.584,-103.944,296.704,-16.17,11.13,-7.98,-890.112,-62.464,288.896
-911.096,-99.552,297.68,-17.08,10.64,-7.84,-874.496,-31.232,296.704
-911.096,-98.576,299.144,-18.06,10.01,-7.7,-897.92,-46.848,273.28
-909.632,-95.648,301.096,-19.04,9.38,-7.49,-890.112,-54.656,265.472
-908.168,-97.112,302.56,-20.09,8.96,-7.35,-874.496,-46.848,296.704
-903.288,-96.624,304.024,-21.28,8.33,-7.14,-858.88,-54.656,281.088
-900.36,-96.624,305.0,-22.19,7.91,-7.0,-882.304,-62.464,273.28
-897.432,-100.04,301.584,-23.1,7.49,-6.93,-874.496,-46.848,288.896
-896.456,-102.968,297.68,-23.87,7.07,-6.79,-897.92,-54.656,281.088
-896.456,-105.896,293.288,-24.57,6.79,-6.79,-897.92,-62.464,249.856
-896.944,-110.776,291.336,-25.41,6.3,-6.79,-866.688,-54.656,273.28
-897.92,-111.752,288.408,-26.11,5.67,-6.93,-874.496,-70.272,296.704
-898.408,-116.632,284.016,-26.88,5.32,-6.93,-866.688,-85.888,288.896
-898.896,-119.56,280.6,-27.37,4.62,-7.0,-897.92,-70.272,265.472
-896.944,-124.928,273.768,-27.86,3.92,-6.93,-890.112,-62.464,257.664
-895.968,-127.856,265.96,-28.28,3.43,-6.93,-890.112,-70.272,242.048
-898.408,-131.272,261.08,-28.63,2.73,-6.93,-874.496,-70.272,242.048
-897.92,-132.736,260.592,-29.33,2.24,-6.72,-866.688,-78.08,242.048
-894.504,-134.688,256.688,-29.61,1.61,-6.51,-866.688,-93.696,234.24
-890.6,-136.64,252.784,-30.1,1.12,-6.3,-835.456,-101.504,234.24
-887.672,-135.176,251.808,-30.45,0.63,-6.09,-851.072,-93.696,226.432
-883.28,-134.2,249.856,-30.8,0.42,-5.95,-851.072,-85.888,249.856
-880.84,-132.736,253.76,-31.08,0.0,-5.81,-866.688,-54.656,249.856
-877.424,-130.784,256.688,-31.5,-0.21,-5.6,-866.688,-62.464,249.856
-872.544,-130.296,257.664,-31.92,-0.63,-5.67,-843.264,-78.08,234.24
-872.056,-127.856,255.224,-32.27,-0.7,-5.53,-835.456,-78.08,242.048
-872.056,-128.832,253.76,-32.69,-0.91,-5.6,-827.648,-101.504,218.624
-871.568,-128.832,255.712,-33.18,-1.33,-5.74,-874.496,-85.888,234.24
-869.128,-129.808,252.296,-33.53,-1.68,-5.74,-835.456,-85.888,226.432
-869.128,-131.272,249.856,-33.95,-2.1,-5.88,-827.648,-101.504,234.24
-867.176,-132.248,246.928,-34.23,-2.45,-5.81,-819.84,-93.696,210.816
-863.76,-134.2,246.44,-34.23,-2.73,-5.88,-812.032,-101.504,226.432
-862.296,-139.08,246.44,-34.23,-3.15,-5.95,-835.456,-85.888,210.816
-862.296,-140.544,245.464,-34.09,-3.29,-6.09,-843.264,-124.928,218.624
-860.832,-142.984,246.44,-33.95,-3.64,-6.16,-819.84,-101.504,226.432
-861.808,-143.96,250.344,-33.88,-3.92,-6.51,-835.456,-93.696,218.624
-862.784,-142.984,252.296,-33.88,-4.27,-6.86,-819.84,-54.656,249.856
-862.296,-143.96,252.296,-33.88,-4.69,-7.0,-819.84,-101.504,218.624
-862.784,-142.496,253.76,-33.81,-5.04,-7.14,-851.072,-85.888,234.24
-864.248,-142.984,251.32,-33.74,-5.39,-7.28,-851.072,-85.888,226.432
-863.76,-142.496,250.832,-33.74,-5.67,-7.28,-827.648,-109.312,249.856
-866.2,-142.008,251.808,-33.81,-6.02,-7.42,-827.648,-85.888,249.856
-868.64,-140.056,253.76,-33.74,-6.37,-7.42,-835.456,-70.272,249.856
-871.08,-138.104,257.176,-33.81,-6.58,-7.28,-843.264,-85.888,210.816
-872.056,-135.176,254.736,-34.02,-6.93,-7.21,-843.264,-70.272,265.472
-871.568,-136.152,251.808,-34.09,-7.28,-7.21,-858.88,-85.888,226.432
-873.52,-136.152,247.416,-34.16,-7.56,-7.0,-851.072,-93.696,218.624
-876.936,-133.712,243.512,-34.16,-7.63,-6.93,-835.456,-85.888,234.24
-880.352,-133.712,240.584,-34.16,-7.91,-6.72,-851.072,-85.888,218.624
-881.816,-133.712,238.144,-34.23,-8.19,-6.65,-866.688,-93.696,210.816
-885.72,-132.248,236.68,-34.3,-8.47,-6.58,-851.072,-85.888,210.816
-887.672,-132.248,233.264,-34.37,-8.75,-6.44,-882.304,-93.696,203.008
-887.672,-130.784,231.312,-34.58,-9.1,-6.37,-851.072,-109.312,210.816
-885.72,-130.296,230.824,-34.72,-9.45,-6.3,-835.456,-62.464,218.624
-884.256,-130.784,230.336,-34.72,-9.59,-6.23,-858.88,-93.696,210.816
-882.304,-129.808,228.872,-34.72,-9.59,-6.02,-874.496,-85.888,234.24
-879.376,-132.248,228.384,-34.86,-9.52,-6.02,-866.688,-62.464,195.2
-878.4,-136.152,224.48,-34.86,-9.31,-5.95,-858.88,-78.08,210.816
-876.448,-140.056,221.552,-34.86,-9.17,-5.88,-866.688,-70.272,210.816
-876.448,-142.008,219.112,-34.79,-9.03,-5.74,-843.264,-85.888,203.008
-874.984,-145.912,218.136,-35.07,-8.75,-5.74,-835.456,-101.504,187.392
-876.448,-149.816,215.696,-35.21,-8.54,-5.67,-835.456,-93.696,195.2
-875.472,-154.696,211.304,-35.21,-8.19,-5.53,-851.072,-109.312,195.2
-874.008,-157.624,208.864,-35.14,-8.05,-5.53,-851.072,-117.12,203.008
-874.984,-161.04,204.472,-34.86,-7.63,-5.53,-835.456,-109.312,163.968
-875.472,-163.968,206.424,-34.58,-7.14,-5.6,-843.264,-124.928,195.2
-877.912,-165.92,208.864,-34.3,-6.65,-5.6,-835.456,-109.312,210.816
-876.448,-170.8,211.304,-34.02,-6.23,-5.67,-843.264,-117.12,187.392
-876.936,-173.24,210.816,-33.6,-5.81,-5.81,-843.264,-101.504,203.008
-874.496,-175.68,213.256,-33.25,-5.32,-5.95,-812.032,-124.928,179.584
-874.984,-177.632,214.72,-32.83,-4.69,-6.23,-851.072,-124.928,195.2
-874.984,-179.096,221.552,-32.34,-4.13,-6.51,-866.688,-117.12,195.2
-877.424,-175.68,223.504,-32.2,-3.64,-6.72,-843.264,-132.736,195.2
-880.352,-175.68,225.456,-31.99,-3.15,-6.86,-866.688,-117.12,218.624
-883.28,-174.216,226.432,-31.85,-2.73,-7.07,-843.264,-109.312,195.2
-886.208,-171.776,228.872,-31.71,-2.52,-7.21,-866.688,-117.12,226.432
-888.648,-165.432,234.24,-31.57,-2.17,-7.28,-874.496,-124.928,234.24
-891.576,-160.064,242.048,-31.57,-1.68,-7.42,-843.264,-101.504,226.432
-894.504,-154.208,246.928,-31.43,-1.26,-7.49,-874.496,-93.696,226.432
-896.944,-147.376,248.88,-31.43,-0.77,-7.63,-851.072,-109.312,226.432
-897.432,-140.056,251.32,-31.43,-0.49,-7.84,-866.688,-93.696,249.856
-897.432,-134.688,256.2,-31.5,-0.21,-8.12,-874.496,-70.272,257.664
-894.992,-129.32,263.52,-31.85,0.14,-8.4,-866.688,-93.696,257.664
-894.504,-122.976,267.424,-32.2,0.35,-8.68,-851.072,-101.504,249.856
-890.112,-118.096,270.84,-32.76,0.49,-8.82,-866.688,-93.696,265.472
-888.648,-115.168,271.816,-33.46,0.91,-8.89,-858.88,-78.08,257.664
-885.72,-111.264,276.696,-34.3,0.98,-8.89,-843.264,-39.04,242.048
-887.184,-109.8,278.16,-35.07,1.26,-8.96,-866.688,-54.656,265.472
-886.208,-107.848,280.112,-35.91,1.26,-8.96,-866.688,-70.272,281.088
-888.16,-108.824,276.208,-36.47,1.19,-8.82,-874.496,-31.232,242.048
-888.16,-110.288,275.232,-37.03,1.26,-8.75,-851.072,-54.656,265.472
-889.136,-112.24,277.184,-37.73,1.26,-8.61,-874.496,-46.848,265.472
-890.112,-115.168,280.112,-38.36,1.12,-8.68,-858.88,-70.272,265.472
-892.552,-116.144,283.528,-38.92,0.84,-8.75,-874.496,-85.888,265.472
-895.48,-118.584,283.04,-39.34,0.42,-8.96,-858.88,-70.272,273.28
-894.504,-119.56,283.04,-39.48,-0.07,-9.17,-866.688,-54.656,249.856
-894.016,-122.488,284.016,-39.69,-0.56,-9.24,-866.688,-46.848,273.28
-894.992,-123.464,286.456,-39.62,-0.98,-9.45,-858.88,-70.272,249.856
-896.944,-124.44,287.432,-39.48,-1.33,-9.66,-874.496,-54.656,281.088
-898.408,-121.512,284.992,-39.41,-1.89,-9.8,-866.688,-85.888,249.856
-901.336,-118.096,282.064,-39.41,-2.38,-9.8,-858.88,-78.08,265.472
-902.312,-114.68,278.648,-39.55,-3.01,-9.8,-866.688,-39.04,242.048
-907.192,-108.336,280.6,-39.97,-3.43,-9.66,-851.072,-70.272,288.896
-910.608,-102.968,282.552,-40.39,-3.99,-9.52,-913.536,-46.848,281.088
-912.56,-98.088,283.528,-40.67,-4.55,-9.17,-897.92,-46.848,249.856
-914.024,-96.624,282.064,-41.02,-5.04,-8.75,-874.496,-62.464,257.664
-914.512,-94.672,280.6,-41.23,-5.32,-8.54,-882.304,-39.04,249.856
-915.0,-90.768,280.112,-41.44,-5.46,-8.26,-890.112,-46.848,242.048
-920.856,-90.768,280.112,-41.65,-5.53,-8.12,-890.112,-31.232,273.28
-921.344,-88.816,278.16,-41.72,-5.67,-8.12,-897.92,-54.656,265.472
-921.832,-88.816,276.208,-41.79,-5.6,-8.12,-890.112,-23.424,265.472
-925.736,-88.816,274.256,-42.0,-5.67,-8.12,-890.112,-23.424,273.28
-927.2,-86.864,273.28,-42.21,-5.67,-7.98,-921.344,-54.656,234.24
-932.08,-88.816,271.816,-42.28,-5.74,-7.84,-913.536,-62.464,234.24
-934.032,-90.768,265.96,-42.28,-5.95,-7.7,-890.112,-23.424,249.856
-935.984,-91.256,261.568,-42.35,-5.95,-7.35,-913.536,-31.232,249.856
-942.328,-96.136,263.032,-42.28,-6.02,-7.0,-913.536,-31.232,257.664
-944.28,-97.112,264.008,-42.07,-6.16,-6.65,-905.728,-54.656,249.856
-949.16,-99.552,265.472,-41.93,-6.09,-6.37,-905.728,-46.848,249.856
-955.504,-104.432,269.864,-41.79,-6.23,-6.02,-921.344,-31.232,242.048
-959.408,-107.848,273.768,-41.44,-6.3,-5.53,-905.728,-70.272,265.472
-965.264,-112.728,278.16,-41.02,-6.3,-5.04,-936.96,-62.464,249.856
-969.168,-117.608,278.16,-40.32,-6.3,-4.55,-929.152,-62.464,265.472
-973.072,-121.024,279.136,-39.41,-6.37,-4.2,-929.152,-62.464,242.048
-981.856,-124.928,277.184,-38.5,-6.23,-3.71,-960.384,-85.888,265.472
-990.152,-127.856,279.136,-37.66,-6.23,-3.29,-968.192,-54.656,242.048
-997.472,-130.296,280.6,-36.96,-6.51,-2.87,-960.384,-101.504,242.048
-1001.864,-129.32,277.672,-36.47,-6.72,-2.52,-944.768,-70.272,242.048
-1008.208,-127.368,279.136,-36.12,-6.86,-1.96,-976.0,-85.888,273.28
-1014.552,-123.952,282.552,-35.7,-7.14,-1.33,-960.384,-93.696,273.28
-1023.336,-121.024,287.92,-35.28,-7.35,-0.63,-976.0,-70.272,257.664
-1031.632,-120.048,287.92,-34.65,-7.77,0.07,-1007.232,-54.656,257.664
-1036.024,-119.56,287.432,-34.02,-8.05,0.77,-1015.04,-70.272,265.472
-1045.784,-119.072,287.92,-33.46,-8.26,1.33,-1022.848,-70.272,273.28
-1054.08,-120.048,286.456,-32.83,-8.4,1.89,-1030.656,-70.272,273.28
-1061.4,-122.976,284.992,-32.27,-8.68,2.45,-1007.232,-85.888,257.664
-1070.672,-127.368,285.968,-31.92,-8.75,2.8,-1054.08,-78.08,257.664
-1076.528,-129.808,287.92,-31.64,-9.03,3.36,-1061.888,-62.464,257.664
-1082.384,-132.736,292.312,-31.36,-9.24,3.92,-1054.08,-70.272,288.896
-1084.336,-136.152,292.312,-30.94,-9.38,4.55,-1030.656,-85.888,288.896
-1087.264,-139.568,291.336,-30.73,-9.24,5.25,-1061.888,-109.312,288.896
-1090.192,-142.008,292.312,-30.24,-9.03,5.81,-1077.504,-93.696,273.28
-1096.536,-145.424,292.312,-29.82,-8.68,6.37,-1061.888,-101.504,273.28
-1103.856,-147.864,291.824,-29.54,-8.19,6.86,-1077.504,-85.888,304.512
-1111.664,-149.328,294.264,-29.19,-7.7,7.21,-1085.312,-93.696,249.856
-1123.376,-149.816,293.288,-28.98,-7.14,7.56,-1100.928,-93.696,257.664
-1136.064,-146.4,293.288,-28.77,-6.58,7.91,-1100.928,-101.504,288.896
-1148.264,-147.864,295.24,-28.63,-6.16,8.26,-1108.736,-109.312,273.28
-1162.416,-146.4,295.728,-28.56,-5.6,8.54,-1132.16,-101.504,265.472
-1176.568,-145.424,293.776,-28.49,-4.97,8.82,-1124.352,-93.696,288.896
-1192.184,-148.352,293.288,-28.49,-4.34,9.17,-1132.16,-101.504,281.088
-1206.824,-150.792,292.312,-28.35,-3.71,9.52,-1202.432,-109.312,281.088
-1223.416,-153.72,290.36,-28.07,-2.87,9.8,-1186.816,-93.696,296.704
-1236.104,-159.576,290.848,-27.86,-2.1,10.15,-1225.856,-109.312,273.28
-1250.256,-167.872,293.288,-27.65,-1.47,10.36,-1225.856,-117.12,281.088
-1260.016,-176.656,292.8,-27.09,-0.91,10.64,-1241.472,-132.736,281.088
-1266.36,-186.904,294.752,-26.39,-0.28,10.78,-1241.472,-156.16,273.28
-1276.608,-197.64,294.264,-25.83,0.49,11.06,-1241.472,-140.544,273.28
-1285.392,-207.888,292.312,-25.13,1.12,11.13,-1249.28,-140.544,273.28
-1295.64,-217.648,291.824,-24.57,1.96,11.34,-1257.088,-187.392,273.28
-1303.936,-226.92,293.776,-23.94,2.73,11.48,-1272.704,-187.392,265.472
-1314.672,-231.8,295.728,-23.45,3.43,11.76,-1288.32,-187.392,281.088
-1321.016,-238.632,297.68,-22.89,4.27,12.25,-1296.128,-179.584,265.472
-1327.36,-242.048,301.584,-22.26,5.04,12.74,-1296.128,-218.624,288.896
-1332.728,-244.488,302.072,-21.63,5.95,13.3,-1327.36,-203.008,312.32
-1336.144,-244.488,307.44,-21.07,6.79,13.86,-1303.936,-187.392,281.088
-1339.072,-246.44,310.368,-20.58,7.7,14.35,-1311.744,-187.392,296.704
-1340.536,-246.928,308.416,-19.95,8.47,14.77,-1319.552,-195.2,320.128
-1340.536,-247.416,307.44,-19.53,9.45,15.05,-1335.168,-195.2,304.512
-1337.608,-250.344,306.464,-18.76,10.36,15.26,-1296.128,-203.008,320.128
-1338.096,-253.76,306.464,-18.27,11.34,15.33,-1303.936,-195.2,281.088
-1339.56,-258.152,308.904,-17.85,12.25,15.33,-1311.744,-218.624,296.704
-1341.024,-262.544,310.368,-17.57,13.02,15.12,-1327.36,-218.624,304.512
-1340.048,-269.376,311.832,-17.29,13.79,15.26,-1296.128,-234.24,273.28
-1339.072,-274.744,311.832,-17.22,14.49,15.19,-1288.32,-226.432,312.32
-1333.704,-280.112,313.784,-17.15,15.19,15.19,-1311.744,-226.432,273.28
-1326.872,-285.968,315.736,-17.08,15.96,15.47,-1303.936,-234.24,296.704
-1318.088,-290.848,314.76,-17.01,16.87,15.68,-1296.128,-257.664,281.088
-1310.768,-295.728,312.808,-16.87,17.99,15.96,-1272.704,-218.624,312.32
-1302.96,-300.608,312.808,-16.52,18.97,16.24,-1280.512,-257.664,304.512
-1296.616,-307.928,316.712,-16.24,20.09,16.52,-1257.088,-273.28,320.128
-1290.76,-313.296,318.664,-15.82,21.0,16.66,-1257.088,-265.472,312.32
-1283.928,-320.616,321.104,-15.54,21.98,16.73,-1249.28,-288.896,335.744
-1278.072,-328.424,326.96,-15.33,22.68,16.8,-1257.088,-265.472,320.128
-1273.192,-337.208,327.448,-14.98,23.38,16.73,-1218.048,-288.896,312.32
-1266.848,-343.064,333.304,-14.7,24.01,16.66,-1257.088,-312.32,327.936
-1257.576,-348.92,336.232,-14.49,24.57,16.45,-1241.472,-320.128,327.936
-1248.304,-356.728,337.696,-14.35,25.34,16.38,-1194.624,-320.128,343.552
-1240.008,-360.632,335.744,-14.21,25.83,16.24,-1233.664,-304.512,296.704
-1235.616,-366.0,335.256,-13.86,26.39,16.24,-1210.24,-312.32,320.128
-1231.224,-370.392,330.864,-13.37,26.67,16.1,-1202.432,-312.32,312.32
-1226.832,-372.832,329.4,-12.88,26.88,16.03,-1179.008,-327.936,320.128
-1221.952,-377.712,329.4,-12.46,27.02,15.96,-1202.432,-296.704,312.32
-1215.12,-381.128,328.424,-12.25,27.09,15.89,-1186.816,-343.552,320.128
-1208.776,-381.616,329.888,-12.04,27.16,15.68,-1179.008,-320.128,288.896
-1204.384,-381.616,333.792,-12.04,26.95,15.54,-1179.008,-312.32,320.128
-1192.672,-381.616,335.256,-12.04,26.81,15.4,-1155.584,-320.128,320.128
-1184.376,-377.224,336.232,-12.11,26.53,15.26,-1179.008,-327.936,327.936
-1172.176,-372.344,333.304,-12.18,26.25,15.19,-1147.776,-320.128,312.32
-1166.808,-367.952,332.328,-12.04,26.18,15.05,-1139.968,-304.512,335.744
-1163.88,-362.096,330.864,-12.04,25.97,14.91,-1147.776,-296.704,296.704
-1160.952,-357.216,330.864,-11.9,25.55,14.84,-1116.544,-320.128,327.936
-1159.0,-352.336,325.984,-11.83,25.2,14.63,-1147.776,-288.896,320.128
-1157.048,-349.408,320.616,-11.9,24.85,14.21,-1116.544,-312.32,312.32
-1158.512,-343.552,313.784,-12.04,24.29,13.93,-1116.544,-281.088,304.512
-1159.488,-338.184,305.488,-12.39,23.66,13.58,-1139.968,-273.28,288.896
-1160.464,-331.84,297.192,-12.74,22.89,13.3,-1139.968,-265.472,312.32
-1159.976,-324.032,291.336,-13.51,22.19,13.23,-1147.776,-288.896,257.664
-1159.0,-315.736,284.504,-14.21,21.42,13.23,-1132.16,-281.088,265.472
-1160.464,-305.976,277.672,-14.77,20.72,13.51,-1116.544,-249.856,265.472
-1159.488,-295.24,273.28,-15.4,20.23,13.72,-1147.776,-265.472,249.856
-1165.344,-286.944,269.864,-15.89,19.81,13.79,-1116.544,-218.624,265.472
-1165.832,-277.672,268.888,-16.24,19.32,13.93,-1147.776,-226.432,265.472
-1168.272,-269.376,271.328,-16.73,18.69,13.86,-1155.584,-195.2,257.664
-1169.736,-262.544,270.84,-17.15,18.34,13.51,-1132.16,-187.392,249.856
-1167.784,-257.176,268.888,-17.57,18.13,13.3,-1147.776,-218.624,242.048
-1166.32,-253.272,266.448,-18.06,17.71,12.81,-1147.776,-226.432,234.24
-1164.368,-252.784,266.448,-18.34,17.5,12.53,-1132.16,-210.816,249.856
-1161.928,-253.272,260.592,-18.34,17.29,12.18,-1132.16,-210.816,242.048
-1159.0,-250.344,259.128,-18.41,17.08,12.04,-1147.776,-179.584,234.24
-1160.952,-250.344,256.2,-18.27,17.22,11.83,-1132.16,-203.008,234.24
-1163.88,-251.32,256.2,-18.06,17.29,11.69,-1124.352,-195.2,249.856
-1168.272,-250.344,253.76,-17.78,17.36,11.55,-1132.16,-203.008,249.856
-1172.176,-247.416,256.2,-17.43,17.29,11.48,-1147.776,-210.816,234.24
-1177.056,-244.488,254.736,-17.22,17.57,11.34,-1163.392,-187.392,242.048
-1179.984,-238.632,253.76,-17.01,17.64,11.2,-1155.584,-171.776,226.432
-1181.936,-232.288,258.152,-16.52,17.78,11.13,-1194.624,-187.392,249.856
-1182.424,-225.456,259.128,-16.24,17.99,10.99,-1163.392,-203.008,249.856
-1182.424,-219.112,263.52,-15.68,18.27,10.92,-1179.008,-179.584,242.048
