acc_x[mg],acc_y[mg],acc_z[mg]
-11.0,-34.0,-994.0
-11.0,-34.0,-993.0
-10.0,-34.0,-992.0
-10.0,-34.0,-992.0
-11.0,-35.0,-992.0
-11.0,-34.0,-993.0
-10.0,-34.0,-992.0
-11.0,-34.0,-994.0
-9.0,-35.0,-994.0
-10.0,-36.0,-991.0
-10.0,-34.0,-990.0
-10.0,-33.0,-994.0
282.0,37.0,-1444.0
170.0,-246.0,-1352.0
192.0,-720.0,-1200.0
290.0,-30.0,-1371.0
59.0,-147.0,-1304.0
237.0,-81.0,-1164.0
56.0,-34.0,-1072.0
46.0,-29.0,-945.0
11.0,-41.0,-838.0
91.0,-103.0,-801.0
51.0,-157.0,-877.0
-73.0,-288.0,-964.0
-157.0,-347.0,-917.0
-299.0,-468.0,-848.0
-135.0,-428.0,-1078.0
-234.0,-349.0,-891.0
6.0,-299.0,-776.0
-41.0,-142.0,-874.0
-34.0,-62.0,-749.0
-83.0,65.0,-691.0
-145.0,132.0,-884.0
-110.0,77.0,-1020.0
-74.0,121.0,-883.0
-116.0,129.0,-968.0
-295.0,121.0,-1310.0
-329.0,-19.0,-1114.0
-363.0,-102.0,-1103.0
-292.0,-90.0,-924.0
-296.0,-63.0,-790.0
-209.0,-81.0,-920.0
-189.0,-150.0,-945.0
92.0,-227.0,-986.0
119.0,-240.0,-1138.0
56.0,-199.0,-1031.0
-103.0,-189.0,-1199.0
-85.0,-149.0,-976.0
-98.0,-30.0,-977.0
-166.0,53.0,-880.0
-54.0,2.0,-837.0
25.0,26.0,-910.0
-113.0,107.0,-952.0
-146.0,107.0,-932.0
18.0,153.0,-1101.0
-27.0,101.0,-1131.0
-46.0,139.0,-1021.0
-213.0,159.0,-1088.0
-214.0,59.0,-978.0
-366.0,60.0,-825.0
-348.0,-31.0,-1027.0
-407.0,-77.0,-935.0
-305.0,-74.0,-970.0
-339.0,-80.0,-892.0
-228.0,-102.0,-971.0
-235.0,-93.0,-1061.0
-115.0,-128.0,-1015.0
9.0,-42.0,-944.0
-15.0,-48.0,-1247.0
40.0,-186.0,-931.0
-83.0,-216.0,-1048.0
-68.0,-189.0,-1031.0
-115.0,-182.0,-953.0
-48.0,-127.0,-826.0
-58.0,-22.0,-902.0
17.0,-2.0,-1040.0
-13.0,5.0,-995.0
-28.0,2.0,-1105.0
-6.0,22.0,-1070.0
-49.0,-85.0,-1228.0
-250.0,-174.0,-903.0
-280.0,-157.0,-987.0
-203.0,-163.0,-917.0
-172.0,-25.0,-791.0
-91.0,-8.0,-803.0
-89.0,85.0,-814.0
-6.0,90.0,-919.0
-15.0,51.0,-1027.0
-28.0,-129.0,-1272.0
-159.0,-273.0,-1350.0
-237.0,-379.0,-1305.0
-45.0,-369.0,-1081.0
-28.0,-277.0,-855.0
-84.0,-128.0,-697.0
-100.0,13.0,-609.0
-146.0,153.0,-685.0
-179.0,263.0,-815.0
-245.0,313.0,-1016.0
-376.0,224.0,-1254.0
-364.0,-20.0,-1418.0
-360.0,-199.0,-1173.0
-395.0,-200.0,-1108.0
-272.0,-273.0,-1092.0
-150.0,-224.0,-845.0
-62.0,-187.0,-816.0
12.0,-84.0,-825.0
140.0,-69.0,-768.0
279.0,-123.0,-935.0
274.0,-153.0,-1066.0
305.0,-240.0,-1203.0
202.0,-220.0,-1052.0
208.0,-169.0,-1076.0
143.0,-125.0,-897.0
-88.0,-43.0,-837.0
-206.0,16.0,-766.0
-334.0,164.0,-864.0
-452.0,285.0,-857.0
-558.0,362.0,-1008.0
-417.0,339.0,-1055.0
-411.0,339.0,-1192.0
-426.0,158.0,-1189.0
-409.0,-45.0,-1091.0
-165.0,-184.0,-802.0
-336.0,-189.0,-1005.0
-23.0,-206.0,-733.0
102.0,-164.0,-800.0
266.0,-147.0,-775.0
320.0,-123.0,-1000.0
210.0,-132.0,-922.0
229.0,-57.0,-1133.0
199.0,-119.0,-1034.0
119.0,-144.0,-1123.0
74.0,-117.0,-1014.0
-37.0,-65.0,-890.0
-139.0,-33.0,-885.0
-277.0,82.0,-959.0
-329.0,102.0,-1012.0
-398.0,75.0,-1205.0
-207.0,-9.0,-937.0
-369.0,9.0,-1179.0
-274.0,-154.0,-972.0
-326.0,-286.0,-925.0
-237.0,-310.0,-848.0
-116.0,-226.0,-777.0
-19.0,-255.0,-699.0
-92.0,-183.0,-917.0
30.0,-169.0,-906.0
25.0,-227.0,-991.0
-16.0,-146.0,-1007.0
8.0,-99.0,-1104.0
-98.0,-176.0,-982.0
38.0,-155.0,-971.0
-80.0,-99.0,-986.0
-95.0,-22.0,-953.0
-73.0,-27.0,-734.0
-42.0,-25.0,-755.0
-116.0,-116.0,-1007.0
-134.0,-116.0,-853.0
-149.0,-192.0,-1061.0
-64.0,-420.0,-947.0
-261.0,-219.0,-1198.0
-293.0,-318.0,-919.0
-213.0,-161.0,-1039.0
-81.0,-131.0,-983.0
-119.0,-241.0,-1004.0
-137.0,-255.0,-1051.0
-77.0,-232.0,-1140.0
114.0,-233.0,-1156.0
75.0,-101.0,-977.0
-18.0,139.0,-1046.0
74.0,247.0,-1008.0
-40.0,56.0,-973.0
-25.0,-51.0,-996.0
6.0,-69.0,-943.0
-13.0,-52.0,-942.0
-39.0,94.0,-1065.0
33.0,175.0,-1049.0
33.0,67.0,-1002.0
-33.0,-36.0,-976.0
-20.0,-42.0,-959.0
15.0,51.0,-995.0
28.0,99.0,-1003.0
9.0,65.0,-997.0
-9.0,-3.0,-978.0
-12.0,-3.0,-983.0
4.0,52.0,-999.0
10.0,71.0,-1001.0
-2.0,33.0,-990.0
-7.0,9.0,-981.0
-1.0,28.0,-994.0
5.0,54.0,-995.0
2.0,45.0,-995.0
-4.0,24.0,-991.0
-4.0,24.0,-991.0
1.0,41.0,-995.0
262.0,-4.0,-907.0
-43.0,-21.0,-1432.0
108.0,-401.0,-1422.0
-88.0,-126.0,-1404.0
-126.0,-119.0,-1404.0
31.0,-208.0,-1377.0
-129.0,-197.0,-1267.0
-182.0,-24.0,-1101.0
-226.0,83.0,-998.0
-95.0,115.0,-829.0
-89.0,73.0,-774.0
-297.0,21.0,-708.0
-249.0,125.0,-743.0
270.0,345.0,-674.0
279.0,306.0,-680.0
134.0,159.0,-815.0
38.0,93.0,-662.0
7.0,123.0,-798.0
-22.0,167.0,-858.0
16.0,150.0,-904.0
63.0,141.0,-900.0
55.0,208.0,-1015.0
31.0,208.0,-984.0
-105.0,215.0,-1048.0
36.0,222.0,-1006.0
-321.0,146.0,-1264.0
-450.0,188.0,-1315.0
-323.0,151.0,-1136.0
-209.0,266.0,-862.0
-267.0,263.0,-660.0
-376.0,295.0,-668.0
-273.0,318.0,-739.0
-215.0,186.0,-904.0
-30.0,173.0,-1017.0
82.0,232.0,-1132.0
131.0,137.0,-1199.0
165.0,235.0,-1051.0
218.0,109.0,-1015.0
176.0,-10.0,-848.0
-91.0,15.0,-877.0
-81.0,59.0,-748.0
-12.0,225.0,-607.0
-157.0,375.0,-842.0
-223.0,448.0,-881.0
-322.0,554.0,-1123.0
-418.0,478.0,-1381.0
-353.0,188.0,-1081.0
-333.0,122.0,-988.0
-360.0,38.0,-1026.0
-211.0,-19.0,-824.0
-62.0,-23.0,-808.0
10.0,22.0,-825.0
102.0,10.0,-828.0
169.0,44.0,-960.0
213.0,36.0,-1046.0
166.0,95.0,-1136.0
209.0,21.0,-1157.0
145.0,-29.0,-1039.0
34.0,-25.0,-911.0
-87.0,16.0,-834.0
-124.0,89.0,-811.0
-184.0,164.0,-900.0
-226.0,236.0,-935.0
-259.0,284.0,-1099.0
-301.0,312.0,-1148.0
-390.0,179.0,-1248.0
-332.0,132.0,-1026.0
-215.0,-91.0,-850.0
-323.0,-15.0,-1000.0
-35.0,-52.0,-765.0
-34.0,7.0,-831.0
25.0,44.0,-872.0
81.0,59.0,-866.0
330.0,123.0,-1080.0
274.0,158.0,-1113.0
148.0,110.0,-1109.0
102.0,-17.0,-938.0
69.0,-1.0,-958.0
26.0,12.0,-844.0
-45.0,54.0,-850.0
-122.0,152.0,-770.0
-52.0,259.0,-809.0
-188.0,193.0,-1190.0
-100.0,259.0,-1053.0
-206.0,57.0,-954.0
-190.0,156.0,-1140.0
-126.0,-99.0,-761.0
-126.0,-71.0,-817.0
-7.0,45.0,-856.0
1.0,-141.0,-729.0
4.0,60.0,-900.0
171.0,116.0,-1039.0
8.0,-104.0,-1147.0
22.0,69.0,-1096.0
90.0,-345.0,-917.0
-25.0,-230.0,-928.0
-2.0,-224.0,-1057.0
-36.0,-158.0,-1145.0
-99.0,-78.0,-1081.0
-118.0,-111.0,-1180.0
-133.0,-174.0,-1118.0
-28.0,-155.0,-1035.0
-137.0,-175.0,-1279.0
-201.0,-111.0,-1410.0
-50.0,-76.0,-807.0
-75.0,-35.0,-1136.0
-26.0,-56.0,-965.0
74.0,-5.0,-994.0
-3.0,-56.0,-974.0
-51.0,-53.0,-990.0
-1.0,-34.0,-1004.0
35.0,-46.0,-998.0
-19.0,-57.0,-981.0
-35.0,-37.0,-987.0
-5.0,-38.0,-1002.0
-18.0,-49.0,-1001.0
-19.0,-48.0,-998.0
-11.0,-36.0,-983.0
-23.0,-37.0,-986.0
-4.0,-49.0,-995.0
15.0,-49.0,-999.0
-18.0,-39.0,-998.0
-23.0,-41.0,-984.0
4.0,-49.0,-985.0
-6.0,-46.0,-995.0
-20.0,-35.0,-986.0
-10.0,-42.0,-991.0
-14.0,-49.0,-997.0
-5.0,-45.0,-998.0
-1.0,-40.0,-983.0
369.0,-79.0,-952.0
22.0,-273.0,-1481.0
-145.0,97.0,-1456.0
-132.0,-185.0,-1407.0
-292.0,-94.0,-1452.0
-365.0,-95.0,-1453.0
-236.0,20.0,-1307.0
-196.0,305.0,-1160.0
53.0,-174.0,-726.0
-90.0,-133.0,-615.0
-54.0,-71.0,-618.0
-38.0,15.0,-476.0
-83.0,93.0,-302.0
-439.0,133.0,-360.0
-80.0,341.0,-939.0
108.0,395.0,-928.0
119.0,243.0,-802.0
18.0,222.0,-854.0
85.0,151.0,-723.0
10.0,137.0,-935.0
122.0,49.0,-963.0
125.0,69.0,-1089.0
95.0,118.0,-1108.0
-2.0,135.0,-1130.0
-68.0,164.0,-1231.0
-85.0,77.0,-1151.0
-171.0,11.0,-994.0
-116.0,43.0,-1201.0
-258.0,20.0,-1034.0
-169.0,-20.0,-913.0
-111.0,-44.0,-762.0
-31.0,48.0,-764.0
18.0,144.0,-835.0
92.0,222.0,-884.0
117.0,234.0,-1076.0
290.0,216.0,-1153.0
337.0,3.0,-1354.0
185.0,-217.0,-1114.0
137.0,-135.0,-963.0
142.0,-99.0,-904.0
-26.0,-130.0,-796.0
-111.0,-18.0,-798.0
-176.0,123.0,-857.0
-289.0,235.0,-915.0
-353.0,333.0,-1084.0
-266.0,308.0,-1136.0
-279.0,267.0,-1182.0
-318.0,123.0,-1066.0
-302.0,67.0,-1069.0
-267.0,-74.0,-991.0
-112.0,-110.0,-811.0
0.0,-55.0,-779.0
80.0,-10.0,-819.0
180.0,19.0,-871.0
191.0,3.0,-1117.0
230.0,25.0,-1123.0
349.0,38.0,-1158.0
350.0,-20.0,-1022.0
328.0,-98.0,-1078.0
181.0,-163.0,-932.0
74.0,-59.0,-758.0
11.0,57.0,-773.0
-86.0,158.0,-849.0
-83.0,270.0,-976.0
-123.0,304.0,-1232.0
-218.0,299.0,-1336.0
-300.0,155.0,-1186.0
-278.0,78.0,-1007.0
-242.0,36.0,-938.0
-157.0,-9.0,-755.0
5.0,5.0,-733.0
65.0,45.0,-819.0
179.0,43.0,-884.0
248.0,57.0,-1124.0
227.0,14.0,-1029.0
328.0,41.0,-1044.0
255.0,0.0,-1013.0
217.0,-59.0,-995.0
99.0,-53.0,-930.0
-1.0,7.0,-744.0
-28.0,122.0,-887.0
-54.0,215.0,-883.0
-73.0,271.0,-959.0
-188.0,271.0,-1202.0
-177.0,260.0,-1117.0
-222.0,176.0,-1076.0
-143.0,22.0,-722.0
-107.0,101.0,-1028.0
-95.0,-38.0,-654.0
-76.0,87.0,-624.0
39.0,-47.0,-730.0
30.0,116.0,-743.0
206.0,29.0,-673.0
100.0,94.0,-856.0
-2.0,7.0,-847.0
13.0,-218.0,-572.0
111.0,-101.0,-833.0
-54.0,-97.0,-846.0
5.0,-176.0,-898.0
-86.0,-148.0,-1003.0
-123.0,-203.0,-1062.0
-181.0,-214.0,-1197.0
-172.0,-181.0,-1261.0
-117.0,-133.0,-1291.0
-119.0,-135.0,-1388.0
-61.0,-167.0,-1305.0
-97.0,-128.0,-1317.0
-783.0,838.0,-1677.0
-379.0,-1089.0,31.0
9.0,-150.0,-1000.0
-16.0,-151.0,-1037.0
-4.0,-64.0,-981.0
-3.0,-3.0,-1014.0
-20.0,-48.0,-1002.0
-17.0,-58.0,-988.0
-9.0,-38.0,-997.0
-16.0,-66.0,-992.0
-11.0,-39.0,-997.0
-15.0,-53.0,-991.0
-11.0,-44.0,-996.0
-14.0,-48.0,-992.0
-12.0,-47.0,-992.0
-13.0,-48.0,-992.0
-14.0,-47.0,-994.0
-12.0,-48.0,-992.0
-13.0,-48.0,-994.0
-12.0,-46.0,-992.0
-13.0,-48.0,-993.0
-12.0,-48.0,-991.0
-12.0,-47.0,-994.0
-13.0,-47.0,-992.0
-12.0,-47.0,-991.0
-13.0,-49.0,-990.0
-13.0,-47.0,-993.0
-13.0,-48.0,-993.0
-13.0,-48.0,-992.0
-12.0,-48.0,-994.0
-11.0,-48.0,-992.0
-13.0,-48.0,-992.0
-523.0,-203.0,-1313.0
78.0,-212.0,-1686.0
172.0,-7.0,-1599.0
-112.0,-237.0,-1587.0
-84.0,-229.0,-1385.0
-25.0,-195.0,-1495.0
-54.0,-157.0,-1533.0
-45.0,-189.0,-1255.0
68.0,173.0,-923.0
89.0,41.0,-1202.0
-97.0,172.0,-640.0
-74.0,29.0,-223.0
134.0,110.0,52.0
124.0,122.0,-292.0
-779.0,60.0,-610.0
332.0,-251.0,-811.0
-137.0,123.0,-985.0
-232.0,128.0,-972.0
-226.0,78.0,-899.0
-124.0,44.0,-888.0
-97.0,134.0,-905.0
-70.0,212.0,-970.0
44.0,183.0,-969.0
169.0,213.0,-934.0
75.0,135.0,-1040.0
116.0,149.0,-1045.0
74.0,143.0,-892.0
56.0,201.0,-887.0
78.0,191.0,-835.0
54.0,231.0,-909.0
19.0,231.0,-949.0
-19.0,251.0,-939.0
-81.0,302.0,-951.0
-144.0,327.0,-1071.0
-187.0,320.0,-1117.0
-274.0,252.0,-1206.0
-303.0,120.0,-1146.0
-293.0,91.0,-948.0
-199.0,84.0,-1010.0
-124.0,-27.0,-880.0
-30.0,-33.0,-781.0
97.0,150.0,-840.0
17.0,88.0,-791.0
71.0,200.0,-975.0
73.0,195.0,-1173.0
124.0,253.0,-1138.0
217.0,140.0,-1109.0
174.0,108.0,-843.0
214.0,118.0,-898.0
2.0,108.0,-836.0
-117.0,143.0,-835.0
-146.0,233.0,-885.0
-276.0,282.0,-902.0
-253.0,369.0,-1008.0
-380.0,363.0,-1180.0
-291.0,382.0,-1003.0
-409.0,262.0,-1138.0
-376.0,123.0,-1064.0
-292.0,-18.0,-838.0
-129.0,39.0,-759.0
-7.0,68.0,-804.0
101.0,134.0,-883.0
62.0,152.0,-960.0
116.0,117.0,-1078.0
111.0,204.0,-1106.0
219.0,150.0,-1138.0
142.0,103.0,-1058.0
49.0,62.0,-869.0
11.0,111.0,-805.0
95.0,65.0,-985.0
-99.0,233.0,-864.0
-163.0,276.0,-889.0
-241.0,391.0,-1067.0
-262.0,378.0,-1085.0
-350.0,367.0,-1236.0
-390.0,253.0,-1086.0
-382.0,161.0,-1023.0
-284.0,74.0,-930.0
-112.0,-26.0,-801.0
-5.0,47.0,-823.0
83.0,142.0,-843.0
152.0,201.0,-864.0
101.0,177.0,-1079.0
169.0,221.0,-1033.0
221.0,203.0,-1053.0
122.0,230.0,-920.0
-5.0,237.0,-934.0
-31.0,195.0,-878.0
-119.0,217.0,-888.0
-135.0,257.0,-924.0
-207.0,253.0,-895.0
-219.0,399.0,-965.0
-249.0,383.0,-1058.0
-198.0,508.0,-997.0
-207.0,219.0,-934.0
-293.0,325.0,-1216.0
-253.0,92.0,-1038.0
-128.0,-4.0,-934.0
-25.0,0.0,-824.0
-46.0,67.0,-933.0
0.0,15.0,-880.0
72.0,62.0,-985.0
202.0,141.0,-1005.0
167.0,245.0,-1150.0
138.0,184.0,-1063.0
156.0,186.0,-1001.0
107.0,139.0,-957.0
-11.0,130.0,-857.0
-42.0,188.0,-810.0
-116.0,242.0,-839.0
-221.0,319.0,-873.0
-281.0,381.0,-1052.0
-317.0,444.0,-1152.0
-385.0,333.0,-1172.0
-276.0,221.0,-918.0
-352.0,210.0,-1016.0
-240.0,90.0,-879.0
-119.0,121.0,-790.0
-147.0,221.0,-777.0
-154.0,252.0,-764.0
-108.0,299.0,-849.0
-177.0,272.0,-1006.0
-218.0,241.0,-1017.0
-408.0,210.0,-1162.0
-410.0,91.0,-947.0
-421.0,195.0,-937.0
-236.0,135.0,-1019.0
-236.0,127.0,-889.0
-130.0,221.0,-878.0
-260.0,280.0,-847.0
-236.0,326.0,-967.0
-230.0,311.0,-1057.0
-322.0,394.0,-1082.0
-320.0,339.0,-1111.0
-164.0,355.0,-956.0
-99.0,248.0,-1014.0
30.0,217.0,-908.0
107.0,263.0,-898.0
113.0,298.0,-948.0
89.0,165.0,-913.0
155.0,250.0,-1006.0
280.0,360.0,-1137.0
251.0,261.0,-1047.0
194.0,197.0,-1039.0
169.0,131.0,-925.0
97.0,196.0,-966.0
73.0,206.0,-827.0
-38.0,237.0,-778.0
-65.0,327.0,-742.0
-87.0,387.0,-685.0
-170.0,410.0,-794.0
-319.0,403.0,-835.0
-462.0,394.0,-928.0
-417.0,355.0,-843.0
-422.0,172.0,-859.0
-246.0,69.0,-898.0
-115.0,-33.0,-743.0
130.0,19.0,-722.0
120.0,74.0,-762.0
111.0,88.0,-923.0
233.0,197.0,-1079.0
119.0,-17.0,-1334.0
125.0,-80.0,-1469.0
166.0,-61.0,-1267.0
163.0,-103.0,-1312.0
71.0,-89.0,-1064.0
-42.0,-64.0,-932.0
-41.0,-12.0,-924.0
-86.0,-44.0,-900.0
-109.0,-54.0,-993.0
-235.0,-97.0,-1131.0
-245.0,-180.0,-1259.0
-210.0,-196.0,-968.0
-261.0,-131.0,-1076.0
-183.0,-132.0,-1016.0
15.0,-119.0,-911.0
41.0,-116.0,-927.0
62.0,-160.0,-908.0
-14.0,-194.0,-999.0
-87.0,-246.0,-1162.0
-88.0,-264.0,-1077.0
-152.0,-56.0,-1053.0
-130.0,102.0,-1060.0
-30.0,179.0,-1069.0
28.0,217.0,-914.0
28.0,310.0,-836.0
-88.0,318.0,-848.0
-159.0,183.0,-848.0
-271.0,203.0,-977.0
-317.0,226.0,-1116.0
-115.0,215.0,-904.0
-137.0,131.0,-1005.0
-104.0,104.0,-970.0
86.0,49.0,-911.0
174.0,18.0,-906.0
230.0,-109.0,-940.0
222.0,-159.0,-1009.0
55.0,-63.0,-976.0
173.0,198.0,-978.0
64.0,255.0,-1013.0
-51.0,144.0,-864.0
99.0,139.0,-834.0
-30.0,132.0,-900.0
-9.0,197.0,-1002.0
-84.0,113.0,-1132.0
-245.0,139.0,-1305.0
-132.0,188.0,-1171.0
-218.0,190.0,-1100.0
-307.0,87.0,-1011.0
-310.0,84.0,-928.0
-301.0,114.0,-958.0
-171.0,94.0,-904.0
-131.0,76.0,-913.0
-139.0,57.0,-994.0
-46.0,60.0,-871.0
34.0,116.0,-895.0
70.0,215.0,-948.0
131.0,223.0,-961.0
268.0,226.0,-913.0
-8.0,13.0,-1093.0
111.0,25.0,-1160.0
-29.0,-21.0,-1100.0
-38.0,-92.0,-1041.0
108.0,-34.0,-876.0
67.0,160.0,-1003.0
143.0,278.0,-843.0
83.0,242.0,-850.0
75.0,211.0,-918.0
69.0,135.0,-1037.0
-31.0,143.0,-1208.0
5.0,91.0,-1223.0
74.0,100.0,-1015.0
62.0,-2.0,-1017.0
-2.0,6.0,-1080.0
-38.0,-62.0,-867.0
120.0,91.0,-837.0
135.0,175.0,-887.0
175.0,117.0,-865.0
154.0,79.0,-966.0
202.0,121.0,-1137.0
112.0,2.0,-1113.0
122.0,-32.0,-1096.0
183.0,-17.0,-1031.0
150.0,-37.0,-863.0
113.0,56.0,-754.0
40.0,137.0,-784.0
0.0,270.0,-884.0
-46.0,244.0,-987.0
-147.0,65.0,-1091.0
-167.0,156.0,-1129.0
-289.0,12.0,-1065.0
-285.0,132.0,-1104.0
-201.0,-51.0,-910.0
-49.0,0.0,-873.0
132.0,-33.0,-855.0
137.0,-133.0,-813.0
269.0,-206.0,-870.0
219.0,-269.0,-802.0
-23.0,103.0,-984.0
-6.0,-96.0,-672.0
-24.0,-96.0,-513.0
-86.0,-85.0,-742.0
5.0,-5.0,-727.0
-95.0,-143.0,-728.0
-8.0,-215.0,-772.0
-275.0,-216.0,-1169.0
-117.0,-286.0,-1147.0
-37.0,-200.0,-1271.0
-135.0,-245.0,-1247.0
-113.0,-253.0,-1213.0
-191.0,-307.0,-1241.0
29.0,-216.0,-1242.0
-40.0,-270.0,-1096.0
-97.0,-216.0,-1142.0
-41.0,-266.0,-1069.0
-96.0,-269.0,-1113.0
102.0,-122.0,-1077.0
-3.0,-101.0,-1072.0
-17.0,-118.0,-951.0
-4.0,-99.0,-1048.0
42.0,39.0,-1038.0
26.0,125.0,-1126.0
15.0,-13.0,-1008.0
-21.0,-20.0,-935.0
47.0,126.0,-1072.0
8.0,14.0,-1003.0
23.0,-92.0,-952.0
11.0,-48.0,-971.0
-11.0,29.0,-1020.0
-11.0,25.0,-1015.0
8.0,-21.0,-986.0
9.0,-53.0,-968.0
0.0,-9.0,-997.0
-6.0,11.0,-1009.0
2.0,-12.0,-994.0
4.0,-32.0,-981.0
0.0,-12.0,-994.0
-3.0,-1.0,-1000.0
1.0,-14.0,-991.0
2.0,-20.0,-988.0
0.0,-9.0,-995.0
-1.0,-7.0,-996.0
1.0,-15.0,-991.0
1.0,-13.0,-992.0
0.0,-10.0,-996.0
1.0,-13.0,-993.0
0.0,-14.0,-991.0
0.0,-11.0,-994.0
0.0,-12.0,-993.0
1.0,-14.0,-992.0
0.0,-12.0,-993.0
0.0,-12.0,-992.0
0.0,-13.0,-991.0
0.0,-13.0,-992.0
0.0,-12.0,-992.0
1.0,-13.0,-993.0
0.0,-13.0,-993.0
1.0,-13.0,-992.0
59.0,59.0,-1024.0
-85.0,-79.0,-1051.0
263.0,-29.0,-1412.0
86.0,-100.0,-1309.0
10.0,-246.0,-1203.0
-61.0,-141.0,-1412.0
112.0,-214.0,-1361.0
75.0,-149.0,-1361.0
29.0,-169.0,-1152.0
67.0,-43.0,-1237.0
135.0,23.0,-1139.0
-16.0,16.0,-1031.0
35.0,2.0,-796.0
26.0,14.0,-668.0
89.0,-84.0,-464.0
245.0,-226.0,-309.0
-90.0,-221.0,-446.0
-51.0,-118.0,-670.0
177.0,297.0,-1238.0
76.0,140.0,-1073.0
57.0,150.0,-1142.0
-68.0,220.0,-1055.0
-71.0,220.0,-980.0
89.0,56.0,-809.0
41.0,61.0,-841.0
-109.0,47.0,-931.0
-66.0,24.0,-885.0
-58.0,44.0,-993.0
-25.0,114.0,-1078.0
47.0,71.0,-1097.0
43.0,73.0,-1137.0
114.0,-49.0,-854.0
177.0,11.0,-772.0
184.0,98.0,-869.0
81.0,96.0,-859.0
27.0,134.0,-891.0
60.0,96.0,-829.0
-58.0,216.0,-994.0
-73.0,233.0,-1040.0
-78.0,217.0,-1090.0
-174.0,202.0,-1194.0
-214.0,110.0,-1139.0
-181.0,77.0,-960.0
-259.0,55.0,-1067.0
-196.0,-4.0,-877.0
-102.0,-22.0,-792.0
-29.0,26.0,-879.0
14.0,36.0,-885.0
92.0,40.0,-1014.0
139.0,52.0,-1108.0
161.0,130.0,-1101.0
252.0,103.0,-1085.0
123.0,7.0,-910.0
88.0,74.0,-950.0
-2.0,100.0,-926.0
-56.0,148.0,-944.0
-151.0,253.0,-949.0
-229.0,293.0,-932.0
-261.0,273.0,-989.0
-236.0,206.0,-1080.0
-232.0,211.0,-1194.0
-341.0,92.0,-1099.0
-349.0,-18.0,-1011.0
-317.0,-120.0,-1065.0
-228.0,-161.0,-936.0
-153.0,-157.0,-829.0
-64.0,-73.0,-903.0
25.0,-47.0,-960.0
95.0,-28.0,-1113.0
138.0,18.0,-1282.0
151.0,3.0,-1003.0
175.0,25.0,-889.0
163.0,12.0,-853.0
52.0,15.0,-865.0
-30.0,65.0,-894.0
-196.0,126.0,-976.0
-229.0,173.0,-997.0
-273.0,159.0,-1127.0
-382.0,140.0,-1241.0
-289.0,58.0,-1270.0
-294.0,-50.0,-980.0
-259.0,-52.0,-1008.0
-239.0,-40.0,-869.0
-188.0,-34.0,-781.0
-187.0,53.0,-866.0
-44.0,69.0,-889.0
-80.0,47.0,-973.0
-29.0,74.0,-1155.0
70.0,63.0,-1222.0
124.0,46.0,-1211.0
64.0,-19.0,-1060.0
-32.0,14.0,-848.0
20.0,-13.0,-959.0
-94.0,32.0,-784.0
-191.0,75.0,-799.0
-187.0,129.0,-921.0
-256.0,161.0,-1027.0
-264.0,231.0,-1112.0
-286.0,200.0,-1273.0
-258.0,122.0,-961.0
-327.0,104.0,-1004.0
-243.0,86.0,-1026.0
-88.0,37.0,-768.0
-57.0,83.0,-820.0
-82.0,97.0,-948.0
32.0,72.0,-962.0
44.0,86.0,-1135.0
11.0,55.0,-1233.0
14.0,66.0,-1015.0
74.0,83.0,-942.0
75.0,84.0,-948.0
1.0,65.0,-833.0
-99.0,146.0,-813.0
-111.0,283.0,-835.0
-71.0,350.0,-873.0
-84.0,309.0,-1024.0
-79.0,172.0,-1085.0
-185.0,48.0,-1385.0
-92.0,-95.0,-882.0
-160.0,-89.0,-1040.0
-103.0,-89.0,-937.0
-150.0,-96.0,-892.0
-73.0,-40.0,-864.0
-32.0,20.0,-909.0
44.0,28.0,-899.0
125.0,47.0,-1060.0
67.0,71.0,-1048.0
158.0,112.0,-1159.0
104.0,65.0,-1097.0
37.0,31.0,-1094.0
-45.0,52.0,-943.0
-94.0,99.0,-863.0
-127.0,176.0,-875.0
-193.0,137.0,-909.0
-123.0,94.0,-907.0
-35.0,111.0,-949.0
-48.0,159.0,-1062.0
-122.0,49.0,-1039.0
-2.0,11.0,-997.0
-149.0,-84.0,-885.0
-144.0,-65.0,-899.0
-186.0,-27.0,-931.0
-146.0,-31.0,-867.0
-128.0,30.0,-754.0
-32.0,16.0,-739.0
-41.0,-58.0,-770.0
-79.0,34.0,-722.0
-55.0,-103.0,-608.0
89.0,-67.0,-697.0
-98.0,-92.0,-872.0
-83.0,-97.0,-908.0
-34.0,-56.0,-1004.0
-39.0,-22.0,-1156.0
-39.0,-143.0,-1185.0
-73.0,-148.0,-1369.0
-40.0,-185.0,-1417.0
-49.0,-203.0,-1296.0
-59.0,-15.0,-1321.0
12.0,-82.0,-1164.0
39.0,23.0,-1154.0
46.0,-51.0,-1084.0
-18.0,-51.0,-1132.0
-123.0,-329.0,-733.0
-29.0,213.0,-1222.0
-16.0,52.0,-1051.0
27.0,-133.0,-933.0
15.0,-44.0,-977.0
4.0,-27.0,-1001.0
-10.0,-69.0,-985.0
-12.0,-45.0,-998.0
-14.0,-61.0,-989.0
-10.0,-50.0,-996.0
-12.0,-55.0,-993.0
-12.0,-55.0,-992.0
-12.0,-53.0,-993.0
-13.0,-55.0,-993.0
-12.0,-54.0,-993.0
-12.0,-55.0,-993.0
-12.0,-55.0,-992.0
-12.0,-55.0,-993.0
-12.0,-54.0,-993.0
-12.0,-54.0,-993.0
-12.0,-55.0,-992.0
-12.0,-54.0,-992.0
-13.0,-54.0,-992.0
672.0,-210.0,-1451.0
-30.0,-358.0,-1160.0
76.0,-452.0,-1491.0
-70.0,-437.0,-1357.0
-80.0,-230.0,-1418.0
-106.0,-298.0,-1228.0
-57.0,-228.0,-1081.0
-122.0,-108.0,-1029.0
59.0,-210.0,-757.0
4.0,-84.0,-720.0
8.0,-93.0,-709.0
93.0,-89.0,-556.0
113.0,-56.0,-606.0
136.0,5.0,-654.0
187.0,-80.0,-681.0
118.0,26.0,-868.0
134.0,-101.0,-927.0
148.0,0.0,-1113.0
-7.0,-31.0,-1088.0
-93.0,223.0,-1340.0
-152.0,269.0,-1259.0
-157.0,174.0,-788.0
-189.0,254.0,-765.0
-151.0,258.0,-894.0
-149.0,48.0,-777.0
-113.0,76.0,-983.0
-89.0,26.0,-919.0
-105.0,160.0,-983.0
-164.0,182.0,-919.0
-152.0,167.0,-936.0
51.0,139.0,-1044.0
118.0,41.0,-1077.0
82.0,123.0,-1145.0
208.0,-34.0,-835.0
152.0,33.0,-902.0
113.0,33.0,-865.0
-38.0,73.0,-955.0
69.0,2.0,-915.0
24.0,-18.0,-924.0
1.0,-27.0,-886.0
224.0,-36.0,-1056.0
-220.0,282.0,-1381.0
-168.0,-137.0,-869.0
-198.0,110.0,-1380.0
-345.0,-66.0,-910.0
-179.0,6.0,-1047.0
-53.0,130.0,-977.0
-5.0,154.0,-962.0
5.0,128.0,-998.0
-31.0,99.0,-1077.0
-10.0,30.0,-1086.0
41.0,-127.0,-1006.0
22.0,-30.0,-1227.0
117.0,-94.0,-997.0
109.0,-107.0,-1032.0
131.0,-56.0,-975.0
63.0,-50.0,-854.0
73.0,-6.0,-828.0
120.0,43.0,-855.0
18.0,11.0,-981.0
28.0,46.0,-1101.0
-39.0,27.0,-1108.0
-58.0,117.0,-1132.0
-39.0,69.0,-997.0
-97.0,87.0,-1026.0
-29.0,44.0,-931.0
18.0,41.0,-815.0
0.0,67.0,-841.0
-5.0,78.0,-929.0
37.0,38.0,-993.0
14.0,-10.0,-1081.0
100.0,5.0,-1092.0
122.0,138.0,-1118.0
32.0,34.0,-1033.0
153.0,-1.0,-1032.0
75.0,46.0,-882.0
57.0,74.0,-775.0
52.0,139.0,-835.0
-51.0,177.0,-895.0
-35.0,164.0,-1069.0
-133.0,89.0,-1129.0
-179.0,177.0,-1270.0
-127.0,81.0,-961.0
-213.0,62.0,-1129.0
-125.0,10.0,-979.0
-93.0,8.0,-783.0
-91.0,72.0,-795.0
-109.0,74.0,-758.0
-30.0,85.0,-795.0
-18.0,46.0,-925.0
47.0,10.0,-989.0
-31.0,14.0,-1038.0
101.0,59.0,-919.0
109.0,20.0,-994.0
29.0,38.0,-955.0
75.0,59.0,-968.0
-26.0,15.0,-813.0
17.0,65.0,-748.0
-19.0,3.0,-784.0
-7.0,-66.0,-832.0
-17.0,-203.0,-737.0
-110.0,-164.0,-915.0
-64.0,-157.0,-826.0
-47.0,-138.0,-943.0
10.0,-108.0,-1052.0
-69.0,-267.0,-900.0
60.0,-107.0,-1342.0
-58.0,-122.0,-1224.0
-42.0,-127.0,-1290.0
-42.0,-87.0,-1241.0
-9.0,-60.0,-1186.0
-50.0,-50.0,-1165.0
-37.0,-79.0,-1196.0
-115.0,-141.0,-1154.0
-11.0,-132.0,-1086.0
63.0,-174.0,-1010.0
-41.0,0.0,-1126.0
-27.0,-6.0,-1040.0
13.0,-93.0,-1000.0
11.0,-47.0,-1022.0
-16.0,-22.0,-925.0
31.0,138.0,-1107.0
20.0,42.0,-1009.0
-35.0,-130.0,-954.0
0.0,-18.0,-1010.0
-2.0,-13.0,-1001.0
-16.0,-73.0,-976.0
-4.0,-11.0,-1002.0
-13.0,-50.0,-986.0
-8.0,-26.0,-996.0
-10.0,-37.0,-991.0
-8.0,-36.0,-992.0
-10.0,-31.0,-993.0
-956.0,96.0,-1543.0
-24.0,-242.0,-1680.0
31.0,-125.0,-1416.0
41.0,-111.0,-1348.0
-9.0,-96.0,-1390.0
13.0,-35.0,-1476.0
-93.0,-114.0,-1385.0
112.0,-46.0,-1327.0
-48.0,-209.0,-1102.0
100.0,-238.0,-831.0
138.0,-233.0,-893.0
-53.0,-179.0,-519.0
89.0,-56.0,-588.0
30.0,-34.0,-432.0
3.0,33.0,-535.0
-58.0,72.0,-609.0
20.0,120.0,-807.0
61.0,79.0,-934.0
21.0,16.0,-956.0
-8.0,22.0,-1012.0
46.0,103.0,-989.0
-47.0,241.0,-1065.0
-140.0,208.0,-1093.0
-240.0,178.0,-903.0
-180.0,234.0,-893.0
-267.0,256.0,-960.0
-245.0,141.0,-836.0
-182.0,136.0,-956.0
-180.0,142.0,-1008.0
-164.0,107.0,-940.0
-77.0,191.0,-947.0
-102.0,175.0,-959.0
-174.0,169.0,-1070.0
-111.0,142.0,-1084.0
65.0,105.0,-1005.0
25.0,112.0,-1040.0
158.0,122.0,-1024.0
49.0,92.0,-908.0
-38.0,128.0,-818.0
-16.0,195.0,-850.0
-35.0,168.0,-831.0
-18.0,210.0,-887.0
21.0,249.0,-975.0
-73.0,258.0,-1043.0
-55.0,231.0,-1080.0
-70.0,114.0,-1064.0
-120.0,36.0,-1175.0
-207.0,-20.0,-1224.0
-210.0,-76.0,-1060.0
-195.0,43.0,-876.0
-190.0,118.0,-845.0
-141.0,129.0,-891.0
-52.0,53.0,-911.0
0.0,96.0,-982.0
20.0,99.0,-1074.0
27.0,111.0,-1074.0
-70.0,204.0,-1135.0
13.0,141.0,-918.0
84.0,33.0,-1135.0
141.0,236.0,-842.0
108.0,234.0,-735.0
66.0,308.0,-845.0
-14.0,263.0,-920.0
37.0,220.0,-1133.0
-48.0,183.0,-1302.0
-33.0,151.0,-1010.0
-40.0,47.0,-1012.0
-71.0,17.0,-1116.0
-41.0,-1.0,-875.0
-52.0,109.0,-860.0
-80.0,170.0,-920.0
-17.0,110.0,-861.0
-30.0,0.0,-1100.0
-26.0,71.0,-983.0
14.0,136.0,-1162.0
105.0,164.0,-1019.0
24.0,104.0,-1100.0
-50.0,65.0,-868.0
-137.0,64.0,-814.0
-115.0,143.0,-870.0
-80.0,120.0,-946.0
-124.0,84.0,-1217.0
-164.0,106.0,-1004.0
4.0,101.0,-992.0
-49.0,131.0,-980.0
-170.0,92.0,-811.0
-164.0,113.0,-826.0
-179.0,78.0,-1009.0
-207.0,-24.0,-964.0
-131.0,34.0,-1035.0
-54.0,97.0,-1163.0
-35.0,164.0,-997.0
279.0,340.0,-962.0
166.0,247.0,-909.0
112.0,106.0,-897.0
-13.0,70.0,-1059.0
217.0,470.0,-1222.0
-65.0,74.0,-1019.0
-218.0,95.0,-979.0
69.0,342.0,-900.0
-60.0,94.0,-944.0
80.0,58.0,-1026.0
-46.0,92.0,-870.0
-161.0,80.0,-958.0
-141.0,41.0,-923.0
-120.0,50.0,-899.0
-205.0,-107.0,-1043.0
7.0,-164.0,-1177.0
-107.0,43.0,-1046.0
-290.0,128.0,-944.0
-228.0,246.0,-1187.0
-76.0,219.0,-1113.0
-155.0,126.0,-1024.0
-116.0,108.0,-1070.0
-123.0,36.0,-958.0
-131.0,-2.0,-1010.0
-85.0,16.0,-1167.0
6.0,-63.0,-961.0
-16.0,13.0,-1016.0
121.0,91.0,-1040.0
80.0,85.0,-863.0
9.0,107.0,-833.0
50.0,119.0,-789.0
30.0,157.0,-819.0
16.0,174.0,-1009.0
-21.0,149.0,-1028.0
7.0,178.0,-1083.0
-4.0,125.0,-1251.0
-39.0,89.0,-1039.0
-125.0,71.0,-1004.0
-66.0,84.0,-1068.0
-32.0,45.0,-867.0
-46.0,49.0,-830.0
-30.0,77.0,-879.0
1.0,81.0,-880.0
-51.0,71.0,-1045.0
-10.0,70.0,-1117.0
-65.0,28.0,-1169.0
33.0,42.0,-1053.0
106.0,-32.0,-985.0
51.0,65.0,-938.0
-24.0,84.0,-845.0
-36.0,142.0,-831.0
11.0,179.0,-887.0
-2.0,142.0,-908.0
-36.0,97.0,-1037.0
-67.0,21.0,-1089.0
-134.0,60.0,-1231.0
-85.0,42.0,-971.0
-130.0,8.0,-1041.0
-145.0,-11.0,-946.0
-156.0,-15.0,-855.0
-168.0,60.0,-880.0
-227.0,120.0,-1008.0
-173.0,84.0,-956.0
-141.0,48.0,-1101.0
-97.0,116.0,-1044.0
-64.0,68.0,-1168.0
-65.0,35.0,-1080.0
-88.0,-45.0,-1056.0
-27.0,30.0,-807.0
-78.0,126.0,-719.0
-144.0,208.0,-762.0
-187.0,205.0,-843.0
-191.0,201.0,-933.0
-178.0,152.0,-1182.0
-156.0,136.0,-1139.0
-225.0,100.0,-1368.0
-196.0,13.0,-1051.0
-206.0,7.0,-1075.0
-141.0,-6.0,-892.0
16.0,22.0,-802.0
78.0,29.0,-764.0
108.0,20.0,-774.0
119.0,12.0,-930.0
78.0,-37.0,-1186.0
134.0,-40.0,-1114.0
142.0,59.0,-1291.0
210.0,-28.0,-1090.0
184.0,13.0,-1040.0
75.0,25.0,-789.0
-104.0,138.0,-889.0
28.0,91.0,-723.0
-121.0,194.0,-961.0
-84.0,187.0,-1100.0
-180.0,176.0,-1035.0
-286.0,224.0,-1347.0
-229.0,106.0,-1161.0
-84.0,37.0,-928.0
34.0,115.0,-824.0
69.0,124.0,-774.0
82.0,100.0,-778.0
155.0,-2.0,-893.0
64.0,-109.0,-1066.0
192.0,-85.0,-1153.0
187.0,-123.0,-1144.0
140.0,1.0,-1110.0
185.0,-95.0,-1003.0
131.0,-14.0,-1006.0
105.0,37.0,-858.0
57.0,153.0,-861.0
48.0,238.0,-857.0
-49.0,255.0,-900.0
-6.0,241.0,-1048.0
-63.0,113.0,-1109.0
-156.0,127.0,-1214.0
-96.0,27.0,-1005.0
-128.0,-21.0,-1005.0
-21.0,-18.0,-850.0
-27.0,-44.0,-683.0
-22.0,-22.0,-657.0
106.0,-39.0,-680.0
13.0,-110.0,-931.0
66.0,-143.0,-971.0
-6.0,-67.0,-883.0
94.0,40.0,-941.0
17.0,56.0,-927.0
-44.0,-29.0,-913.0
-6.0,-64.0,-883.0
62.0,-159.0,-764.0
12.0,-102.0,-985.0
-1.0,-250.0,-1035.0
6.0,-212.0,-1064.0
-18.0,-163.0,-1134.0
-18.0,-170.0,-1098.0
-24.0,-97.0,-1226.0
-51.0,-99.0,-1192.0
-30.0,-13.0,-1260.0
75.0,-28.0,-1255.0
78.0,-28.0,-1128.0
-9.0,5.0,-1200.0
-73.0,-62.0,-1141.0
18.0,-426.0,-845.0
-10.0,97.0,-1024.0
39.0,6.0,-1027.0
-1.0,-58.0,-988.0
-12.0,-64.0,-979.0
-6.0,-23.0,-1001.0
-7.0,-35.0,-994.0
-9.0,-48.0,-989.0
-4.0,-30.0,-997.0
-8.0,-42.0,-990.0
-6.0,-34.0,-994.0
-9.0,-40.0,-992.0
-7.0,-36.0,-994.0
-8.0,-38.0,-993.0
-417.0,614.0,-1368.0
45.0,-346.0,-1727.0
120.0,-247.0,-1527.0
91.0,-83.0,-1438.0
76.0,-144.0,-1315.0
266.0,6.0,-1425.0
178.0,-85.0,-1249.0
275.0,12.0,-1062.0
211.0,73.0,-1049.0
103.0,22.0,-825.0
326.0,-217.0,-567.0
33.0,-99.0,-636.0
14.0,-22.0,-760.0
-56.0,7.0,-761.0
111.0,224.0,-849.0
46.0,336.0,-928.0
-34.0,178.0,-874.0
65.0,227.0,-860.0
-42.0,125.0,-805.0
134.0,244.0,-730.0
154.0,207.0,-979.0
20.0,131.0,-911.0
226.0,49.0,-1042.0
167.0,6.0,-985.0
316.0,41.0,-964.0
235.0,3.0,-967.0
260.0,-133.0,-915.0
235.0,-121.0,-996.0
204.0,-76.0,-961.0
213.0,2.0,-1043.0
179.0,5.0,-1000.0
79.0,-54.0,-995.0
43.0,-25.0,-987.0
19.0,48.0,-986.0
-20.0,103.0,-1066.0
-33.0,80.0,-963.0
-45.0,80.0,-989.0
-61.0,-60.0,-884.0
-11.0,1.0,-934.0
39.0,-30.0,-944.0
75.0,-42.0,-927.0
23.0,-117.0,-941.0
-40.0,-213.0,-919.0
-37.0,-204.0,-969.0
-33.0,-219.0,-940.0
-107.0,-189.0,-949.0
8.0,-170.0,-924.0
-72.0,-320.0,-986.0
-1.0,-254.0,-1056.0
-37.0,-212.0,-1089.0
-32.0,-124.0,-1141.0
-20.0,-69.0,-1126.0
-140.0,-69.0,-1174.0
-177.0,0.0,-1215.0
-306.0,74.0,-1229.0
-248.0,157.0,-1238.0
-254.0,133.0,-1174.0
-239.0,143.0,-1175.0
-103.0,62.0,-1058.0
-94.0,-10.0,-1078.0
-123.0,3.0,-1044.0
-121.0,42.0,-989.0
-74.0,104.0,-960.0
-67.0,85.0,-982.0
-1.0,31.0,-916.0
-16.0,-3.0,-1025.0
42.0,89.0,-1088.0
66.0,81.0,-1106.0
141.0,155.0,-1063.0
81.0,-13.0,-913.0
91.0,4.0,-928.0
-30.0,40.0,-965.0
-69.0,69.0,-914.0
-41.0,118.0,-939.0
-88.0,110.0,-999.0
-57.0,10.0,-1035.0
-45.0,93.0,-1078.0
-38.0,128.0,-1052.0
-53.0,118.0,-883.0
-79.0,170.0,-845.0
-129.0,137.0,-907.0
50.0,111.0,-868.0
73.0,-92.0,-804.0
35.0,8.0,-764.0
70.0,-7.0,-951.0
153.0,-31.0,-1136.0
122.0,-75.0,-1080.0
-22.0,-160.0,-1057.0
-15.0,74.0,-1001.0
116.0,71.0,-1054.0
-61.0,-132.0,-960.0
-42.0,-14.0,-1001.0
41.0,4.0,-884.0
-15.0,-84.0,-974.0
-5.0,-129.0,-917.0
321.0,102.0,-1335.0
-165.0,-28.0,-1430.0
-19.0,-94.0,-1004.0
12.0,145.0,-1056.0
-49.0,35.0,-1014.0
-76.0,-169.0,-951.0
-24.0,-116.0,-950.0
40.0,79.0,-1065.0
16.0,64.0,-1025.0
-12.0,-58.0,-987.0
-22.0,-87.0,-972.0
-3.0,-9.0,-997.0
5.0,21.0,-1009.0
0.0,-4.0,-1000.0
-17.0,-47.0,-984.0
-244.0,-369.0,-1199.0
112.0,-137.0,-1213.0
-13.0,-319.0,-1199.0
-141.0,-120.0,-1111.0
-175.0,-33.0,-1022.0
-318.0,119.0,-956.0
-235.0,161.0,-851.0
-199.0,114.0,-772.0
-202.0,81.0,-815.0
-36.0,128.0,-833.0
16.0,133.0,-810.0
-3.0,155.0,-815.0
20.0,174.0,-891.0
-21.0,162.0,-837.0
-52.0,132.0,-965.0
0.0,92.0,-922.0
82.0,37.0,-938.0
86.0,55.0,-839.0
124.0,-5.0,-813.0
78.0,73.0,-997.0
47.0,20.0,-1070.0
0.0,31.0,-1021.0
-40.0,-30.0,-1152.0
-139.0,-31.0,-1249.0
-196.0,-59.0,-1253.0
-184.0,-91.0,-1215.0
-283.0,-85.0,-1116.0
-252.0,-96.0,-1102.0
-158.0,-75.0,-916.0
-149.0,-34.0,-845.0
-164.0,5.0,-882.0
-119.0,95.0,-899.0
-137.0,62.0,-1082.0
-158.0,32.0,-1139.0
37.0,43.0,-1220.0
-120.0,-104.0,-1010.0
-48.0,-87.0,-973.0
-23.0,-6.0,-919.0
-71.0,-6.0,-882.0
-102.0,65.0,-837.0
-96.0,126.0,-945.0
-40.0,103.0,-950.0
-26.0,32.0,-1031.0
-14.0,59.0,-1107.0
-5.0,33.0,-1077.0
-113.0,44.0,-1135.0
-15.0,0.0,-906.0
-180.0,-14.0,-1001.0
-108.0,-18.0,-1000.0
-2.0,-70.0,-861.0
10.0,-1.0,-834.0
-34.0,64.0,-904.0
-31.0,-27.0,-941.0
-53.0,-98.0,-1071.0
-13.0,-95.0,-1206.0
-38.0,-65.0,-1088.0
-28.0,-51.0,-1017.0
63.0,0.0,-1055.0
-55.0,-49.0,-875.0
-112.0,-42.0,-870.0
-144.0,30.0,-835.0
-98.0,-69.0,-937.0
-74.0,-120.0,-1063.0
-61.0,-72.0,-956.0
-155.0,-175.0,-1081.0
-10.0,-140.0,-1067.0
-65.0,-222.0,-923.0
20.0,-163.0,-993.0
97.0,-152.0,-1028.0
118.0,-98.0,-1039.0
244.0,-31.0,-1074.0
122.0,-41.0,-1290.0
98.0,-69.0,-1178.0
91.0,-52.0,-1014.0
3.0,-12.0,-932.0
5.0,43.0,-970.0
-12.0,-7.0,-975.0
-90.0,47.0,-963.0
-61.0,75.0,-999.0
-61.0,110.0,-963.0
-58.0,129.0,-920.0
-24.0,211.0,-922.0
-37.0,199.0,-938.0
-25.0,143.0,-1033.0
-51.0,180.0,-1018.0
-38.0,97.0,-936.0
-110.0,74.0,-966.0
-101.0,97.0,-922.0
-172.0,14.0,-900.0
-124.0,41.0,-954.0
-83.0,0.0,-1018.0
-68.0,-61.0,-1082.0
13.0,-75.0,-1185.0
171.0,-20.0,-1242.0
110.0,-130.0,-1071.0
147.0,-182.0,-1041.0
124.0,-88.0,-1028.0
99.0,-53.0,-857.0
61.0,44.0,-820.0
64.0,68.0,-826.0
8.0,22.0,-833.0
16.0,16.0,-953.0
7.0,20.0,-1122.0
-11.0,-45.0,-1096.0
-41.0,-50.0,-1199.0
-126.0,-168.0,-1102.0
-116.0,-168.0,-1054.0
-57.0,-176.0,-922.0
14.0,-156.0,-832.0
98.0,-77.0,-865.0
21.0,-140.0,-1058.0
58.0,-188.0,-1039.0
-119.0,-112.0,-1013.0
-127.0,21.0,-960.0
-100.0,78.0,-957.0
-133.0,19.0,-909.0
-118.0,69.0,-955.0
-123.0,147.0,-921.0
-118.0,107.0,-876.0
-136.0,81.0,-1027.0
-49.0,-108.0,-969.0
82.0,-123.0,-1080.0
12.0,-181.0,-1169.0
282.0,-202.0,-1097.0
55.0,-110.0,-1078.0
133.0,-60.0,-938.0
125.0,-34.0,-835.0
43.0,54.0,-886.0
7.0,-33.0,-895.0
-107.0,33.0,-1149.0
-20.0,59.0,-1122.0
12.0,12.0,-1135.0
-68.0,38.0,-1236.0
-77.0,-84.0,-955.0
-166.0,-4.0,-1046.0
-186.0,9.0,-1024.0
-208.0,-8.0,-855.0
-197.0,80.0,-892.0
-255.0,4.0,-932.0
-229.0,-104.0,-1064.0
-77.0,-87.0,-1214.0
-170.0,-82.0,-1026.0
-129.0,-138.0,-936.0
-61.0,26.0,-1070.0
-88.0,-63.0,-871.0
-148.0,-13.0,-848.0
-141.0,91.0,-913.0
96.0,39.0,-1046.0
-11.0,39.0,-943.0
88.0,-132.0,-981.0
154.0,11.0,-1164.0
37.0,-50.0,-1187.0
-58.0,-153.0,-1033.0
-58.0,-115.0,-1125.0
-106.0,-131.0,-828.0
-88.0,29.0,-758.0
-84.0,53.0,-758.0
-185.0,31.0,-932.0
-56.0,2.0,-1016.0
11.0,-23.0,-1137.0
-139.0,-175.0,-1350.0
-210.0,-212.0,-1198.0
-125.0,-136.0,-1046.0
-80.0,-18.0,-932.0
-89.0,57.0,-812.0
-70.0,157.0,-820.0
-148.0,144.0,-951.0
-207.0,164.0,-895.0
-321.0,62.0,-1029.0
-367.0,117.0,-1369.0
-203.0,-42.0,-1037.0
-76.0,-9.0,-1024.0
-85.0,-5.0,-911.0
-69.0,32.0,-762.0
-29.0,-18.0,-809.0
-146.0,29.0,-739.0
113.0,-57.0,-1198.0
33.0,-110.0,-915.0
167.0,-33.0,-1220.0
232.0,158.0,-1222.0
166.0,-50.0,-953.0
149.0,105.0,-1016.0
157.0,55.0,-894.0
48.0,74.0,-768.0
55.0,176.0,-904.0
-111.0,211.0,-959.0
-244.0,144.0,-1230.0
-84.0,143.0,-1109.0
-189.0,-9.0,-1171.0
-117.0,15.0,-1096.0
-80.0,3.0,-835.0
-147.0,40.0,-1051.0
-129.0,9.0,-727.0
11.0,-5.0,-704.0
-6.0,-44.0,-1020.0
49.0,-37.0,-1088.0
89.0,-129.0,-1055.0
168.0,-33.0,-1094.0
108.0,31.0,-1134.0
205.0,91.0,-1018.0
28.0,86.0,-768.0
130.0,42.0,-904.0
-56.0,137.0,-749.0
-88.0,96.0,-813.0
-153.0,21.0,-1000.0
-127.0,-68.0,-947.0
-119.0,-157.0,-1029.0
-128.0,6.0,-1080.0
-82.0,-64.0,-921.0
36.0,7.0,-824.0
70.0,14.0,-656.0
24.0,-123.0,-648.0
58.0,-150.0,-604.0
-8.0,-61.0,-587.0
60.0,-219.0,-629.0
-149.0,-216.0,-1092.0
98.0,-169.0,-799.0
-4.0,-269.0,-1010.0
-20.0,-100.0,-1209.0
-156.0,-267.0,-1335.0
-173.0,-287.0,-1356.0
-59.0,-230.0,-1349.0
-137.0,-268.0,-1344.0
-234.0,-232.0,-1327.0
-535.0,-461.0,-1442.0
8.0,117.0,-1154.0
-36.0,-76.0,-1000.0
-40.0,-47.0,-992.0
-20.0,-54.0,-988.0
-18.0,-43.0,-997.0
-18.0,-48.0,-989.0
-18.0,-48.0,-993.0
-18.0,-45.0,-995.0
-16.0,-46.0,-992.0
-19.0,-45.0,-993.0
-18.0,-46.0,-993.0
-17.0,-46.0,-993.0
-18.0,-45.0,-990.0
-19.0,-45.0,-992.0
-17.0,-46.0,-993.0
-18.0,-46.0,-994.0
-18.0,-45.0,-994.0
-19.0,-45.0,-991.0
-18.0,-45.0,-992.0
-18.0,-45.0,-993.0
-17.0,-45.0,-993.0
-46.0,-611.0,-1291.0
253.0,-290.0,-1451.0
78.0,-246.0,-1461.0
40.0,-383.0,-1430.0
183.0,-383.0,-1356.0
49.0,-281.0,-1403.0
102.0,-307.0,-1264.0
127.0,-218.0,-961.0
88.0,-137.0,-913.0
62.0,-93.0,-646.0
87.0,49.0,-786.0
33.0,74.0,-518.0
16.0,71.0,-517.0
-62.0,-59.0,-578.0
133.0,-477.0,-449.0
-133.0,-250.0,-926.0
-83.0,-99.0,-913.0
-58.0,30.0,-1078.0
14.0,-63.0,-903.0
12.0,-106.0,-864.0
-65.0,-254.0,-852.0
-20.0,-152.0,-851.0
14.0,-218.0,-1039.0
-65.0,-206.0,-988.0
77.0,-178.0,-1162.0
20.0,-181.0,-967.0
11.0,-113.0,-992.0
-75.0,-39.0,-961.0
-48.0,-68.0,-865.0
-164.0,-5.0,-870.0
81.0,111.0,-950.0
4.0,78.0,-948.0
-244.0,242.0,-1029.0
-77.0,136.0,-958.0
-338.0,216.0,-1098.0
-373.0,262.0,-1088.0
-285.0,125.0,-945.0
-254.0,160.0,-991.0
-233.0,169.0,-933.0
-208.0,132.0,-876.0
-179.0,168.0,-920.0
-106.0,143.0,-943.0
-37.0,125.0,-955.0
31.0,196.0,-1169.0
127.0,114.0,-1090.0
187.0,74.0,-1162.0
266.0,10.0,-977.0
247.0,0.0,-871.0
92.0,10.0,-845.0
-62.0,70.0,-856.0
35.0,17.0,-828.0
-115.0,125.0,-931.0
-277.0,213.0,-910.0
-282.0,340.0,-1116.0
-366.0,346.0,-1148.0
-444.0,198.0,-1192.0
-432.0,51.0,-999.0
-300.0,-48.0,-962.0
-180.0,-171.0,-770.0
-63.0,-65.0,-799.0
-18.0,16.0,-902.0
83.0,-10.0,-920.0
121.0,-10.0,-1128.0
198.0,-24.0,-1083.0
246.0,35.0,-1181.0
279.0,-19.0,-1046.0
229.0,-29.0,-969.0
62.0,0.0,-851.0
-25.0,125.0,-857.0
17.0,74.0,-838.0
-204.0,96.0,-945.0
-256.0,172.0,-1018.0
-409.0,314.0,-1141.0
-443.0,334.0,-1230.0
-378.0,118.0,-1010.0
-299.0,30.0,-935.0
-203.0,-48.0,-866.0
-82.0,-19.0,-805.0
116.0,-16.0,-924.0
3.0,-5.0,-877.0
103.0,10.0,-1032.0
205.0,-46.0,-1090.0
155.0,49.0,-1134.0
99.0,35.0,-1075.0
128.0,68.0,-1016.0
118.0,18.0,-940.0
29.0,-11.0,-838.0
-4.0,53.0,-807.0
-24.0,155.0,-922.0
39.0,169.0,-977.0
85.0,201.0,-1163.0
32.0,147.0,-1180.0
-179.0,95.0,-1272.0
-142.0,0.0,-996.0
-230.0,25.0,-1044.0
-172.0,-46.0,-943.0
-79.0,-51.0,-770.0
-30.0,29.0,-774.0
83.0,63.0,-780.0
126.0,137.0,-923.0
138.0,109.0,-1011.0
36.0,133.0,-954.0
98.0,116.0,-957.0
48.0,48.0,-917.0
75.0,56.0,-856.0
83.0,125.0,-805.0
72.0,98.0,-774.0
-6.0,118.0,-749.0
35.0,103.0,-774.0
-101.0,77.0,-884.0
-47.0,1.0,-881.0
-110.0,-71.0,-899.0
-100.0,26.0,-1086.0
-171.0,-151.0,-1094.0
-68.0,-174.0,-1247.0
-74.0,-133.0,-1188.0
-71.0,-115.0,-1332.0
-46.0,-283.0,-1294.0
9.0,921.0,-1760.0
461.0,-293.0,-595.0
110.0,138.0,-1019.0
14.0,122.0,-920.0
-29.0,139.0,-907.0
-15.0,-45.0,-990.0
59.0,-330.0,-907.0
3.0,143.0,-989.0
-60.0,-103.0,-1111.0
27.0,-95.0,-1065.0
-16.0,-45.0,-1000.0
12.0,-112.0,-987.0
-26.0,-94.0,-977.0
75.0,-42.0,-1016.0
6.0,-84.0,-969.0
37.0,-54.0,-1008.0
30.0,-72.0,-985.0
16.0,-70.0,-987.0
31.0,-69.0,-995.0
25.0,-68.0,-995.0
20.0,-73.0,-987.0
28.0,-67.0,-995.0
27.0,-69.0,-991.0
24.0,-70.0,-991.0
26.0,-68.0,-994.0
27.0,-69.0,-991.0
24.0,-70.0,-991.0
27.0,-69.0,-992.0
24.0,-69.0,-992.0
25.0,-69.0,-990.0
26.0,-68.0,-993.0
-273.0,-213.0,-1451.0
-93.0,-550.0,-1291.0
66.0,-435.0,-1372.0
34.0,-299.0,-1240.0
-32.0,-99.0,-1216.0
-18.0,-131.0,-1029.0
27.0,-95.0,-816.0
68.0,8.0,-864.0
97.0,-4.0,-798.0
200.0,-55.0,-740.0
213.0,-52.0,-862.0
272.0,-155.0,-852.0
228.0,-140.0,-932.0
195.0,-41.0,-1114.0
165.0,-119.0,-976.0
103.0,-126.0,-1100.0
7.0,-145.0,-1004.0
-119.0,-8.0,-1091.0
-265.0,-9.0,-1135.0
-256.0,-20.0,-1059.0
-258.0,-19.0,-911.0
-260.0,25.0,-786.0
-219.0,48.0,-791.0
-158.0,66.0,-861.0
-23.0,230.0,-929.0
38.0,185.0,-1107.0
170.0,179.0,-1096.0
262.0,203.0,-1194.0
207.0,81.0,-1273.0
216.0,-85.0,-1027.0
17.0,-116.0,-1040.0
-63.0,-58.0,-913.0
-78.0,0.0,-690.0
-239.0,193.0,-789.0
-475.0,454.0,-807.0
-196.0,159.0,-679.0
-351.0,474.0,-1093.0
-371.0,532.0,-1179.0
-332.0,48.0,-819.0
-385.0,167.0,-1215.0
-225.0,-38.0,-976.0
-329.0,27.0,-949.0
-71.0,-90.0,-827.0
-4.0,-65.0,-843.0
9.0,-122.0,-817.0
397.0,198.0,-904.0
314.0,260.0,-1103.0
293.0,160.0,-1226.0
268.0,179.0,-1366.0
323.0,66.0,-1172.0
250.0,-117.0,-815.0
75.0,-46.0,-909.0
2.0,-173.0,-785.0
107.0,-160.0,-937.0
-116.0,-62.0,-823.0
-168.0,58.0,-957.0
-295.0,116.0,-1172.0
-471.0,334.0,-1257.0
-195.0,579.0,-1453.0
-324.0,344.0,-1130.0
-404.0,31.0,-889.0
-324.0,-87.0,-957.0
-197.0,-175.0,-805.0
-71.0,-175.0,-707.0
60.0,-80.0,-759.0
97.0,1.0,-781.0
121.0,173.0,-1043.0
140.0,375.0,-1221.0
222.0,438.0,-1240.0
190.0,69.0,-1063.0
155.0,94.0,-862.0
190.0,42.0,-925.0
58.0,87.0,-904.0
-23.0,88.0,-829.0
-125.0,181.0,-858.0
-230.0,239.0,-884.0
-276.0,335.0,-1100.0
-229.0,354.0,-1172.0
-280.0,398.0,-1343.0
-290.0,254.0,-988.0
-277.0,208.0,-798.0
-322.0,257.0,-978.0
-317.0,125.0,-1013.0
-249.0,-69.0,-799.0
-118.0,-82.0,-780.0
51.0,-15.0,-760.0
135.0,39.0,-900.0
192.0,184.0,-1386.0
149.0,15.0,-1282.0
79.0,-139.0,-999.0
87.0,-157.0,-833.0
135.0,-15.0,-966.0
-42.0,121.0,-800.0
109.0,86.0,-831.0
-184.0,273.0,-904.0
-283.0,388.0,-1007.0
-414.0,358.0,-1037.0
-558.0,333.0,-1033.0
-581.0,259.0,-1252.0
-541.0,36.0,-800.0
-587.0,-90.0,-829.0
-492.0,-64.0,-919.0
-382.0,-106.0,-886.0
-273.0,-124.0,-942.0
-76.0,-149.0,-870.0
132.0,-80.0,-815.0
132.0,-120.0,-960.0
246.0,7.0,-1072.0
140.0,-172.0,-1264.0
93.0,13.0,-957.0
157.0,92.0,-1001.0
101.0,163.0,-982.0
-18.0,172.0,-808.0
-135.0,232.0,-717.0
-183.0,381.0,-794.0
-210.0,495.0,-849.0
-279.0,461.0,-1032.0
-282.0,467.0,-1059.0
-305.0,97.0,-1132.0
-216.0,252.0,-1031.0
-336.0,-47.0,-1059.0
-190.0,-40.0,-857.0
-80.0,-15.0,-777.0
31.0,20.0,-814.0
144.0,51.0,-849.0
99.0,18.0,-1074.0
62.0,10.0,-1155.0
10.0,220.0,-1281.0
69.0,66.0,-1056.0
61.0,65.0,-948.0
19.0,83.0,-925.0
21.0,75.0,-878.0
-73.0,62.0,-839.0
-213.0,144.0,-802.0
-294.0,258.0,-820.0
-368.0,289.0,-1012.0
-357.0,222.0,-1079.0
-369.0,165.0,-1276.0
-297.0,-24.0,-926.0
-283.0,-64.0,-996.0
-256.0,-123.0,-1073.0
-249.0,-163.0,-1016.0
-182.0,-111.0,-933.0
-123.0,-23.0,-910.0
-39.0,90.0,-922.0
102.0,108.0,-928.0
126.0,96.0,-958.0
117.0,12.0,-1110.0
226.0,-89.0,-1146.0
290.0,-186.0,-1032.0
244.0,-181.0,-992.0
203.0,-60.0,-835.0
35.0,20.0,-818.0
-65.0,42.0,-846.0
-363.0,-54.0,-1015.0
-428.0,36.0,-1062.0
-388.0,129.0,-1042.0
-282.0,220.0,-1193.0
-112.0,264.0,-1011.0
-53.0,171.0,-875.0
-156.0,50.0,-791.0
-246.0,43.0,-933.0
-228.0,15.0,-988.0
-199.0,-36.0,-964.0
-191.0,21.0,-966.0
-166.0,77.0,-1013.0
-106.0,18.0,-1070.0
-65.0,-39.0,-1072.0
-45.0,-7.0,-1252.0
-92.0,15.0,-1194.0
-103.0,-42.0,-889.0
-82.0,112.0,-1026.0
-10.0,60.0,-894.0
-82.0,117.0,-806.0
-114.0,285.0,-809.0
-135.0,342.0,-857.0
-109.0,371.0,-867.0
-72.0,285.0,-984.0
-131.0,229.0,-1079.0
-237.0,41.0,-1403.0
-236.0,-140.0,-1183.0
-181.0,-232.0,-1106.0
-170.0,-255.0,-951.0
-84.0,-237.0,-861.0
-43.0,-193.0,-863.0
24.0,-139.0,-981.0
340.0,-190.0,-781.0
347.0,-80.0,-981.0
455.0,65.0,-1059.0
528.0,107.0,-979.0
334.0,-101.0,-741.0
209.0,29.0,-890.0
93.0,82.0,-906.0
3.0,149.0,-894.0
-84.0,207.0,-881.0
-144.0,218.0,-885.0
-171.0,245.0,-950.0
-202.0,211.0,-1206.0
-136.0,175.0,-1129.0
-132.0,142.0,-1181.0
-99.0,-32.0,-896.0
-58.0,-19.0,-801.0
-99.0,-137.0,-891.0
-29.0,-45.0,-972.0
105.0,-49.0,-982.0
-3.0,-6.0,-954.0
86.0,-45.0,-950.0
12.0,-205.0,-1111.0
-25.0,-257.0,-1294.0
-25.0,-170.0,-1206.0
-24.0,-180.0,-868.0
-92.0,-21.0,-840.0
15.0,66.0,-984.0
-123.0,-52.0,-847.0
-47.0,48.0,-825.0
-198.0,66.0,-804.0
-171.0,41.0,-887.0
-130.0,-5.0,-1199.0
-172.0,23.0,-1231.0
-248.0,-64.0,-971.0
-170.0,-150.0,-1065.0
-207.0,31.0,-1137.0
-86.0,70.0,-981.0
-27.0,-31.0,-924.0
-92.0,9.0,-1032.0
-53.0,-48.0,-964.0
-206.0,-184.0,-1027.0
-123.0,-192.0,-976.0
-1.0,77.0,-1020.0
-57.0,122.0,-919.0
-11.0,71.0,-963.0
-38.0,114.0,-941.0
21.0,121.0,-889.0
51.0,83.0,-822.0
4.0,-10.0,-942.0
-76.0,-96.0,-1089.0
23.0,107.0,-980.0
-89.0,-101.0,-951.0
0.0,-11.0,-970.0
-50.0,-58.0,-926.0
-36.0,-25.0,-905.0
55.0,-97.0,-841.0
-6.0,-103.0,-1022.0
273.0,-222.0,-623.0
69.0,-351.0,-1122.0
363.0,249.0,-946.0
-123.0,302.0,-1097.0
71.0,32.0,-1016.0
-61.0,-185.0,-957.0
-30.0,-180.0,-895.0
-14.0,-29.0,-1017.0
-12.0,36.0,-1021.0
-13.0,-26.0,-997.0
-25.0,-74.0,-980.0
-19.0,-39.0,-993.0
-9.0,-20.0,-999.0
-15.0,-45.0,-990.0
-18.0,-43.0,-993.0
-15.0,-31.0,-995.0
-15.0,-38.0,-991.0
-16.0,-39.0,-991.0
-15.0,-36.0,-991.0
-17.0,-37.0,-993.0
-16.0,-38.0,-991.0
-15.0,-37.0,-993.0
-17.0,-39.0,-992.0
-16.0,-36.0,-992.0
-15.0,-37.0,-992.0
-16.0,-38.0,-993.0
128.0,4.0,-1035.0
-286.0,48.0,-1123.0
186.0,-136.0,-1064.0
319.0,-454.0,-1190.0
435.0,-114.0,-1424.0
347.0,-151.0,-1331.0
241.0,-200.0,-1273.0
-8.0,1.0,-1210.0
-225.0,167.0,-986.0
-290.0,51.0,-763.0
-201.0,-199.0,-649.0
-317.0,-252.0,-661.0
-539.0,-498.0,-556.0
-357.0,-372.0,-723.0
-109.0,-308.0,-898.0
-245.0,-169.0,-1184.0
-228.0,-1.0,-1212.0
13.0,-34.0,-1128.0
-40.0,22.0,-999.0
-224.0,28.0,-970.0
-222.0,27.0,-759.0
-230.0,13.0,-691.0
-3.0,-139.0,-759.0
129.0,-191.0,-891.0
-280.0,-205.0,-1040.0
-203.0,-310.0,-996.0
-210.0,-97.0,-919.0
-259.0,-26.0,-835.0
-313.0,84.0,-953.0
-385.0,30.0,-1026.0
-384.0,-139.0,-1221.0
-308.0,-109.0,-1011.0
-448.0,-160.0,-1137.0
-594.0,-236.0,-1093.0
-546.0,-263.0,-903.0
-571.0,-334.0,-901.0
-456.0,-400.0,-969.0
-256.0,-517.0,-926.0
-100.0,-365.0,-938.0
181.0,-270.0,-772.0
268.0,-76.0,-701.0
433.0,-132.0,-654.0
473.0,-441.0,-742.0
159.0,-803.0,-844.0
64.0,-880.0,-993.0
50.0,-734.0,-613.0
-90.0,-630.0,-513.0
-522.0,-562.0,-530.0
-712.0,-446.0,-660.0
-692.0,-359.0,-663.0
-875.0,-329.0,-632.0
-971.0,-434.0,-796.0
-867.0,-547.0,-843.0
-609.0,-694.0,-588.0
-477.0,-683.0,-542.0
-436.0,-720.0,-589.0
-336.0,-752.0,-537.0
-328.0,-631.0,-617.0
-313.0,-658.0,-673.0
-346.0,-687.0,-572.0
-497.0,-765.0,-486.0
-612.0,-897.0,-478.0
-725.0,-1042.0,-454.0
-554.0,-1129.0,-347.0
-409.0,-1020.0,-243.0
-491.0,-864.0,-447.0
-458.0,-871.0,-398.0
-535.0,-737.0,-416.0
-627.0,-623.0,-582.0
-637.0,-489.0,-438.0
-696.0,-458.0,-421.0
-835.0,-486.0,-358.0
-515.0,-726.0,-446.0
-882.0,-589.0,-391.0
-909.0,-934.0,-176.0
-825.0,-1200.0,-55.0
-554.0,-1225.0,85.0
-368.0,-1005.0,-53.0
-394.0,-1056.0,-172.0
-225.0,-1020.0,-272.0
-25.0,-994.0,-273.0
160.0,-973.0,-156.0
311.0,-1052.0,-170.0
218.0,-1145.0,-381.0
334.0,-1049.0,-342.0
225.0,-1047.0,-357.0
199.0,-949.0,-224.0
35.0,-947.0,-219.0
207.0,-815.0,-172.0
128.0,-833.0,-198.0
136.0,-939.0,-213.0
86.0,-975.0,-293.0
9.0,-1070.0,-341.0
-85.0,-981.0,-386.0
-381.0,-1298.0,-288.0
-416.0,-1256.0,-174.0
-431.0,-1163.0,-131.0
-384.0,-1113.0,-116.0
-222.0,-944.0,-59.0
-101.0,-854.0,-150.0
31.0,-836.0,-147.0
183.0,-822.0,-153.0
221.0,-937.0,-165.0
203.0,-1053.0,-103.0
-78.0,-1104.0,-181.0
-158.0,-1081.0,-180.0
-179.0,-921.0,-91.0
-271.0,-853.0,-159.0
-347.0,-847.0,-129.0
-393.0,-826.0,-118.0
-390.0,-736.0,-338.0
-665.0,-738.0,-439.0
-727.0,-853.0,-484.0
-748.0,-886.0,-537.0
-843.0,-1123.0,-360.0
-637.0,-1149.0,-135.0
-622.0,-1012.0,-121.0
-405.0,-924.0,-165.0
-267.0,-906.0,-18.0
-12.0,-871.0,41.0
58.0,-870.0,-108.0
248.0,-981.0,-68.0
320.0,-995.0,-177.0
315.0,-1024.0,-163.0
146.0,-1085.0,-364.0
178.0,-1125.0,-168.0
119.0,-990.0,-143.0
-80.0,-947.0,-128.0
-118.0,-982.0,-121.0
-186.0,-984.0,-88.0
-291.0,-902.0,-208.0
-387.0,-872.0,-327.0
-452.0,-926.0,-412.0
-648.0,-1078.0,-481.0
-512.0,-1313.0,-256.0
-478.0,-1082.0,-246.0
-506.0,-980.0,-209.0
-355.0,-898.0,-169.0
-146.0,-818.0,-189.0
-113.0,-808.0,-158.0
237.0,-831.0,-137.0
336.0,-800.0,-374.0
464.0,-725.0,-447.0
462.0,-1051.0,-196.0
193.0,-1282.0,-213.0
162.0,-1143.0,-204.0
67.0,-1023.0,-175.0
-46.0,-1045.0,-135.0
-179.0,-928.0,-241.0
-259.0,-892.0,-289.0
-389.0,-904.0,-358.0
-481.0,-848.0,-462.0
-470.0,-856.0,-508.0
-693.0,-934.0,-613.0
-606.0,-1128.0,-357.0
-502.0,-951.0,-288.0
-402.0,-776.0,-352.0
-350.0,-744.0,-270.0
-207.0,-834.0,-243.0
-48.0,-844.0,-312.0
94.0,-841.0,-401.0
228.0,-787.0,-472.0
329.0,-876.0,-595.0
308.0,-976.0,-463.0
90.0,-1199.0,-292.0
144.0,-1051.0,-322.0
59.0,-966.0,-308.0
-66.0,-936.0,-187.0
-243.0,-813.0,-245.0
-467.0,-760.0,-260.0
-528.0,-753.0,-339.0
-842.0,-787.0,-419.0
-729.0,-806.0,-455.0
-772.0,-881.0,-509.0
-789.0,-985.0,-362.0
-704.0,-920.0,-262.0
-451.0,-825.0,-140.0
-691.0,-847.0,-230.0
-202.0,-824.0,-242.0
-305.0,-812.0,-187.0
-54.0,-911.0,-266.0
60.0,-917.0,-335.0
231.0,-882.0,-441.0
177.0,-863.0,-524.0
-302.0,-983.0,-1120.0
337.0,-851.0,-531.0
188.0,-808.0,-414.0
63.0,-787.0,-386.0
-121.0,-746.0,-329.0
-329.0,-754.0,-343.0
-538.0,-835.0,-351.0
-676.0,-903.0,-404.0
-770.0,-991.0,-353.0
-757.0,-901.0,-463.0
-802.0,-972.0,-412.0
-642.0,-895.0,-314.0
-576.0,-925.0,-294.0
-440.0,-1029.0,-173.0
-190.0,-919.0,-144.0
-49.0,-740.0,-236.0
144.0,-688.0,-257.0
271.0,-910.0,-214.0
409.0,-1045.0,-231.0
339.0,-1074.0,-249.0
292.0,-1281.0,-76.0
192.0,-1084.0,-185.0
110.0,-963.0,-177.0
48.0,-864.0,-88.0
-215.0,-780.0,-267.0
-225.0,-857.0,-279.0
-386.0,-806.0,-241.0
-490.0,-863.0,-285.0
-529.0,-957.0,-320.0
-454.0,-1027.0,-258.0
-424.0,-1040.0,-263.0
-312.0,-1054.0,-145.0
-233.0,-981.0,-83.0
-217.0,-964.0,-71.0
-134.0,-981.0,-56.0
-49.0,-1097.0,-7.0
95.0,-975.0,34.0
162.0,-846.0,58.0
106.0,-1020.0,156.0
97.0,-1054.0,209.0
-4.0,-983.0,44.0
3.0,-1052.0,202.0
-111.0,-1254.0,147.0
-204.0,-1337.0,-68.0
-90.0,-1171.0,111.0
1.0,-906.0,-6.0
30.0,-789.0,-197.0
68.0,-740.0,-309.0
-85.0,-766.0,-421.0
-52.0,-876.0,-315.0
-37.0,-875.0,-134.0
-77.0,-1048.0,22.0
-135.0,-1056.0,-5.0
-428.0,-1671.0,-683.0
209.0,-1060.0,206.0
-85.0,-1064.0,195.0
12.0,-988.0,150.0
-140.0,-1070.0,124.0
-10.0,-966.0,-46.0
-61.0,-1003.0,55.0
9.0,-1038.0,210.0
24.0,-1019.0,256.0
-35.0,-1039.0,187.0
-21.0,-1018.0,30.0
-100.0,-989.0,10.0
-39.0,-989.0,22.0
-26.0,-1028.0,141.0
-3.0,-1026.0,202.0
-26.0,-1026.0,145.0
-40.0,-1008.0,54.0
-65.0,-1004.0,38.0
-39.0,-1008.0,70.0
-51.0,-1103.0,161.0
-221.0,-1253.0,256.0
-34.0,-1043.0,88.0
-135.0,-1175.0,85.0
-40.0,-1231.0,175.0
-35.0,-1093.0,59.0
-198.0,-1103.0,76.0
26.0,-1006.0,-13.0
-133.0,-915.0,71.0
-107.0,-825.0,157.0
-131.0,-846.0,231.0
-114.0,-809.0,346.0
-80.0,-643.0,437.0
-124.0,-451.0,653.0
-121.0,-185.0,802.0
-6.0,-178.0,1017.0
-23.0,97.0,1051.0
-149.0,300.0,1074.0
0.0,14.0,1182.0
-163.0,-184.0,1523.0
-228.0,-92.0,1448.0
-349.0,549.0,1138.0
-323.0,443.0,837.0
-315.0,403.0,925.0
-284.0,406.0,943.0
-213.0,394.0,929.0
-91.0,369.0,920.0
31.0,321.0,957.0
176.0,325.0,1028.0
307.0,245.0,977.0
352.0,250.0,808.0
353.0,167.0,828.0
214.0,-11.0,836.0
97.0,19.0,730.0
-88.0,26.0,876.0
-263.0,-66.0,1007.0
-332.0,20.0,1002.0
-405.0,60.0,1069.0
-423.0,144.0,1175.0
-470.0,228.0,1157.0
-280.0,317.0,1315.0
-158.0,385.0,1218.0
-90.0,489.0,1054.0
-19.0,411.0,866.0
40.0,371.0,753.0
224.0,257.0,754.0
255.0,116.0,851.0
401.0,149.0,833.0
369.0,69.0,957.0
448.0,192.0,1024.0
424.0,52.0,1258.0
298.0,-31.0,976.0
211.0,161.0,836.0
46.0,191.0,985.0
-140.0,223.0,1008.0
-277.0,77.0,1064.0
-457.0,66.0,1040.0
-692.0,19.0,1115.0
-796.0,40.0,1293.0
-783.0,29.0,1333.0
-761.0,161.0,1168.0
-654.0,102.0,904.0
-518.0,220.0,721.0
-366.0,200.0,698.0
-165.0,110.0,697.0
-60.0,51.0,714.0
-88.0,-5.0,766.0
-160.0,-24.0,854.0
-374.0,-26.0,1034.0
-277.0,29.0,902.0
-245.0,-40.0,1037.0
-276.0,-16.0,1023.0
-390.0,-29.0,1027.0
-400.0,-223.0,751.0
-440.0,-127.0,949.0
-528.0,-193.0,581.0
-693.0,-218.0,632.0
-809.0,-178.0,819.0
-924.0,42.0,1168.0
-789.0,-112.0,955.0
-737.0,-85.0,1089.0
-591.0,136.0,801.0
-295.0,137.0,758.0
-307.0,138.0,727.0
-337.0,71.0,865.0
-266.0,-5.0,932.0
-237.0,27.0,946.0
-293.0,65.0,1034.0
-364.0,-4.0,1014.0
-375.0,-40.0,1046.0
-208.0,-156.0,983.0
-246.0,-29.0,882.0
-334.0,-42.0,860.0
-418.0,-45.0,674.0
-486.0,-172.0,668.0
-640.0,-191.0,684.0
-754.0,-246.0,866.0
-825.0,-136.0,976.0
-813.0,-79.0,963.0
-919.0,38.0,1075.0
-755.0,7.0,941.0
-687.0,290.0,676.0
-488.0,241.0,803.0
-407.0,248.0,751.0
-401.0,280.0,760.0
-127.0,241.0,683.0
21.0,157.0,809.0
119.0,94.0,943.0
269.0,159.0,920.0
251.0,171.0,1144.0
238.0,115.0,1186.0
139.0,187.0,1078.0
-23.0,79.0,1055.0
-241.0,60.0,1049.0
-420.0,-11.0,1092.0
-546.0,-45.0,1121.0
-610.0,94.0,1097.0
-526.0,208.0,1256.0
-453.0,282.0,1274.0
-303.0,287.0,1130.0
-203.0,324.0,995.0
-93.0,330.0,874.0
-30.0,240.0,754.0
97.0,147.0,823.0
278.0,92.0,791.0
452.0,-38.0,797.0
541.0,97.0,848.0
472.0,350.0,914.0
373.0,282.0,1270.0
307.0,130.0,1274.0
129.0,283.0,899.0
12.0,296.0,817.0
-208.0,155.0,926.0
-337.0,45.0,909.0
-434.0,-23.0,922.0
-571.0,-59.0,1018.0
-576.0,99.0,1098.0
-543.0,90.0,1202.0
-496.0,342.0,1178.0
-378.0,239.0,1291.0
-294.0,318.0,1045.0
-187.0,447.0,879.0
-34.0,388.0,955.0
27.0,318.0,939.0
115.0,241.0,938.0
145.0,225.0,953.0
201.0,239.0,878.0
193.0,310.0,894.0
152.0,308.0,929.0
143.0,40.0,1119.0
150.0,134.0,1041.0
67.0,142.0,1136.0
134.0,199.0,1126.0
-122.0,129.0,909.0
-46.0,157.0,987.0
-204.0,52.0,975.0
-238.0,112.0,1052.0
-284.0,174.0,1133.0
-312.0,263.0,1056.0
-348.0,482.0,858.0
-286.0,527.0,842.0
-169.0,326.0,1022.0
-263.0,164.0,982.0
-359.0,169.0,930.0
-301.0,219.0,931.0
-292.0,196.0,944.0
-287.0,146.0,1127.0
-264.0,251.0,1106.0
-300.0,175.0,1004.0
-130.0,329.0,1015.0
-107.0,134.0,985.0
50.0,40.0,971.0
-23.0,185.0,785.0
-257.0,170.0,796.0
-270.0,-23.0,940.0
-475.0,-114.0,905.0
-474.0,-76.0,1083.0
-521.0,-105.0,1038.0
-437.0,-17.0,1188.0
-463.0,63.0,1069.0
-444.0,86.0,1041.0
-542.0,95.0,953.0
-406.0,197.0,907.0
-455.0,190.0,837.0
-414.0,-68.0,822.0
-340.0,-242.0,943.0
-385.0,-215.0,944.0
-375.0,-164.0,910.0
-428.0,-127.0,955.0
-592.0,-26.0,836.0
-594.0,-205.0,793.0
-488.0,-190.0,846.0
-602.0,-116.0,704.0
-670.0,7.0,703.0
-740.0,-43.0,556.0
-797.0,-87.0,476.0
-925.0,-130.0,484.0
-1023.0,-83.0,554.0
-1018.0,-136.0,613.0
-997.0,102.0,586.0
-1206.0,66.0,628.0
-1022.0,-41.0,665.0
-922.0,-90.0,956.0
-954.0,-220.0,1023.0
-960.0,-331.0,999.0
-824.0,-236.0,901.0
-894.0,-205.0,858.0
-966.0,-133.0,649.0
-1075.0,-102.0,606.0
-1079.0,-89.0,395.0
-881.0,49.0,138.0
-644.0,103.0,63.0
-661.0,2.0,-12.0
-685.0,-107.0,-197.0
-184.0,-224.0,-373.0
173.0,-470.0,-631.0
-61.0,-199.0,-604.0
-382.0,-448.0,-1274.0
-130.0,-274.0,-977.0
183.0,-252.0,-1210.0
-51.0,-26.0,-1123.0
89.0,-199.0,-1044.0
-83.0,-105.0,-1232.0
-9.0,-245.0,-919.0
-34.0,-132.0,-1051.0
-64.0,-40.0,-1033.0
-14.0,118.0,-1054.0
265.0,288.0,-1317.0
-299.0,60.0,-859.0
-17.0,-454.0,-968.0
-29.0,-124.0,-948.0
-180.0,105.0,-1211.0
10.0,-52.0,-1008.0
-3.0,29.0,-1004.0
-50.0,-53.0,-1001.0
-22.0,-21.0,-998.0
-14.0,-27.0,-992.0
-13.0,-28.0,-993.0
-15.0,-29.0,-993.0
-11.0,-28.0,-993.0
-13.0,-27.0,-992.0
-10.0,-28.0,-992.0
-14.0,-27.0,-992.0
-10.0,-28.0,-993.0
-13.0,-29.0,-991.0
-13.0,-28.0,-992.0
-12.0,-27.0,-993.0
-13.0,-29.0,-993.0
-12.0,-28.0,-989.0
-12.0,-29.0,-991.0
-10.0,-27.0,-992.0
-12.0,-29.0,-992.0
-11.0,-28.0,-992.0
-14.0,-28.0,-993.0
-13.0,-29.0,-992.0
-14.0,-27.0,-993.0
-12.0,-27.0,-992.0
-14.0,-27.0,-992.0
-14.0,-28.0,-992.0
-12.0,-27.0,-992.0
-13.0,-28.0,-993.0
-13.0,-30.0,-991.0
-12.0,-27.0,-992.0
-11.0,-30.0,-993.0
-15.0,-29.0,-991.0
9.0,-6.0,-1060.0
-7.0,-33.0,-1000.0
-34.0,-34.0,-980.0
-10.0,-21.0,-982.0
-10.0,-41.0,-966.0
-17.0,-29.0,-987.0
-10.0,-24.0,-993.0
-16.0,-29.0,-995.0
-8.0,-26.0,-997.0
-12.0,-27.0,-994.0
-12.0,-28.0,-992.0
-12.0,-29.0,-991.0
-11.0,-28.0,-992.0
-12.0,-29.0,-990.0
-14.0,-29.0,-991.0
-12.0,-28.0,-991.0
-12.0,-28.0,-993.0
-13.0,-29.0,-993.0
-12.0,-28.0,-993.0
-13.0,-28.0,-993.0
-12.0,-29.0,-993.0
-12.0,-28.0,-993.0
-12.0,-28.0,-993.0
-11.0,-28.0,-992.0
-12.0,-28.0,-993.0
-11.0,-28.0,-992.0
-13.0,-29.0,-992.0
-12.0,-28.0,-994.0
-12.0,-28.0,-993.0
-12.0,-28.0,-993.0
-12.0,-28.0,-993.0
-12.0,-28.0,-993.0
