acc_l_x[mg],acc_l_y[mg],acc_l_z[mg],gyro_x[dps],gyro_y[dps],gyro_z[dps],acc_h_x[mg],acc_h_y[mg],acc_h_z[mg]
21.472,704.672,-768.112,46.83,-4.69,3.92,62.464,765.184,-796.416
30.256,684.176,-781.776,45.78,-5.11,4.13,54.656,733.952,-827.648
36.112,666.608,-790.072,44.66,-5.25,4.2,78.08,702.72,-827.648
44.408,652.944,-796.416,43.89,-5.53,4.13,85.888,710.528,-812.032
54.656,643.184,-801.784,43.05,-5.81,3.71,93.696,702.72,-835.456
63.928,634.888,-801.784,42.35,-5.81,3.29,101.504,687.104,-835.456
72.712,629.52,-804.712,41.72,-5.74,2.87,85.888,679.296,-835.456
82.96,628.056,-807.152,41.44,-5.67,2.45,101.504,702.72,-827.648
94.184,630.496,-819.84,41.09,-5.53,2.31,109.312,702.72,-858.88
103.456,619.76,-827.16,40.88,-5.04,2.17,140.544,687.104,-851.072
108.824,619.76,-831.552,41.51,-4.62,2.31,163.968,663.68,-858.88
111.264,615.856,-825.208,41.86,-4.48,2.66,132.736,663.68,-858.88
113.216,610.488,-817.888,41.93,-4.13,2.73,163.968,655.872,-843.264
111.752,609.024,-813.008,41.3,-3.71,2.59,148.352,648.064,-851.072
108.336,606.096,-805.2,40.11,-3.08,2.24,124.928,663.68,-851.072
101.992,606.096,-798.856,38.43,-2.45,1.47,109.312,640.256,-843.264
94.184,606.096,-796.904,36.61,-2.03,0.63,132.736,655.872,-835.456
84.912,605.608,-795.928,35.07,-1.82,-0.21,109.312,671.488,-835.456
77.104,607.56,-793.488,33.53,-1.68,-0.98,101.504,663.68,-843.264
68.32,607.072,-793.0,32.41,-1.54,-1.54,101.504,687.104,-812.032
60.024,607.56,-790.56,31.64,-1.54,-1.96,78.08,663.68,-835.456
54.656,601.704,-784.704,31.29,-1.75,-2.03,101.504,648.064,-804.224
52.704,599.752,-780.312,31.08,-2.03,-1.89,85.888,648.064,-827.648
51.24,592.92,-779.824,30.94,-2.38,-1.68,85.888,640.256,-796.416
48.8,584.624,-775.92,31.01,-2.66,-1.54,70.272,640.256,-780.8
48.312,574.376,-770.552,31.15,-2.8,-1.33,93.696,632.448,-819.84
46.36,565.592,-762.744,31.36,-3.01,-1.33,62.464,609.024,-780.8
45.384,554.856,-755.912,31.78,-3.15,-1.33,78.08,585.6,-772.992
45.872,545.096,-751.52,32.34,-3.5,-1.4,62.464,616.832,-765.184
47.336,540.704,-749.08,33.04,-3.64,-1.61,62.464,593.408,-796.416
49.776,540.704,-748.104,33.81,-3.78,-1.68,78.08,593.408,-780.8
51.24,539.728,-748.104,34.51,-4.06,-1.68,85.888,601.216,-772.992
55.144,543.632,-747.616,35.21,-4.06,-1.54,109.312,577.792,-772.992
56.608,548.512,-751.52,35.91,-4.06,-1.4,93.696,577.792,-757.376
59.048,559.248,-757.864,36.61,-4.13,-1.26,93.696,601.216,-796.416
58.56,574.376,-763.72,36.75,-4.06,-1.05,93.696,648.064,-788.608
56.12,589.992,-766.648,36.89,-3.99,-0.7,85.888,655.872,-804.224
53.192,610.976,-772.504,36.61,-3.99,-0.42,85.888,663.68,-804.224
52.216,626.592,-776.408,36.12,-4.2,-0.14,85.888,671.488,-812.032
53.192,639.768,-782.752,35.42,-4.41,0.21,85.888,679.296,-796.416
52.216,652.944,-785.192,34.86,-4.69,0.42,101.504,694.912,-827.648
53.192,663.68,-787.144,34.3,-5.11,0.42,78.08,710.528,-827.648
54.168,667.096,-788.12,33.53,-5.6,0.35,85.888,726.144,-835.456
57.584,668.072,-790.56,32.55,-5.74,0.42,93.696,718.336,-796.416
60.512,662.216,-791.048,31.36,-6.09,0.49,93.696,710.528,-827.648
64.904,653.92,-798.368,30.1,-6.44,0.56,70.272,694.912,-843.264
69.296,643.672,-800.32,28.7,-6.58,0.7,101.504,702.72,-819.84
73.2,631.96,-801.296,27.51,-6.72,0.77,101.504,655.872,-843.264
74.176,617.808,-799.344,26.67,-6.86,0.98,124.928,671.488,-827.648
71.736,600.728,-786.656,26.25,-7.28,0.84,101.504,648.064,-827.648
71.736,575.352,-769.576,26.46,-7.7,0.77,101.504,632.448,-812.032
85.888,532.408,-772.016,27.58,-8.19,0.7,101.504,577.792,-819.84
110.776,484.096,-811.056,30.24,-7.91,0.56,140.544,530.944,-858.88
130.296,440.176,-847.656,33.95,-6.79,0.77,140.544,499.712,-882.304
138.592,408.456,-852.536,37.94,-5.6,1.05,179.584,452.864,-890.112
143.472,380.64,-835.456,41.58,-4.41,1.19,163.968,437.248,-843.264
147.376,366.0,-829.6,44.87,-3.36,1.12,171.776,421.632,-866.688
159.576,366.0,-860.344,48.16,-1.75,0.49,163.968,437.248,-905.728
175.68,402.112,-929.152,51.1,0.98,-0.07,195.2,460.672,-991.616
176.656,456.28,-963.8,53.2,4.83,-0.21,195.2,507.52,-968.192
138.104,498.248,-922.808,54.32,7.91,0.77,156.16,554.368,-952.576
101.016,530.456,-884.256,55.51,8.19,1.75,140.544,577.792,-897.92
81.008,565.104,-861.32,56.35,7.0,2.66,109.312,616.832,-874.496
80.032,588.528,-846.68,56.07,5.88,2.73,117.12,655.872,-882.304
87.84,605.12,-845.216,54.88,5.32,2.38,124.928,616.832,-897.92
96.136,607.56,-848.144,53.2,5.39,1.61,140.544,671.488,-897.92
101.992,605.12,-865.224,51.66,6.02,0.42,132.736,655.872,-890.112
106.872,598.288,-879.864,50.47,6.65,-1.05,140.544,655.872,-897.92
107.848,593.896,-888.16,49.49,7.35,-2.24,171.776,632.448,-936.96
105.896,584.136,-886.696,48.79,7.98,-2.73,148.352,632.448,-936.96
98.088,573.4,-873.032,48.23,8.4,-2.52,117.12,616.832,-905.728
86.864,569.496,-859.368,47.88,8.47,-2.03,93.696,616.832,-890.112
74.664,566.08,-841.8,47.25,8.4,-1.19,85.888,640.256,-866.688
66.368,567.056,-832.04,46.48,8.05,-0.63,101.504,624.64,-866.688
62.952,574.864,-824.72,45.36,7.42,-0.28,101.504,648.064,-858.88
61.976,585.112,-824.232,43.68,6.79,-0.28,85.888,632.448,-858.88
62.464,592.92,-821.304,41.79,6.16,-0.7,85.888,640.256,-843.264
66.856,603.656,-816.424,39.62,5.46,-1.4,85.888,655.872,-866.688
70.76,616.832,-813.008,37.73,4.97,-2.17,124.928,679.296,-851.072
77.592,629.032,-814.472,35.98,4.34,-3.22,109.312,694.912,-835.456
83.936,641.232,-815.448,34.65,4.06,-3.99,117.12,710.528,-843.264
87.352,652.456,-813.984,33.46,3.99,-4.69,101.504,710.528,-835.456
86.864,661.24,-811.544,32.41,4.06,-4.76,124.928,694.912,-851.072
84.424,665.632,-803.736,31.22,4.2,-4.2,109.312,702.72,-843.264
81.984,659.288,-808.128,29.96,4.2,-3.43,109.312,694.912,-835.456
81.496,650.016,-818.864,29.05,4.34,-2.73,85.888,702.72,-866.688
78.568,636.352,-824.72,27.93,4.62,-1.89,109.312,663.68,-843.264
69.784,622.688,-815.936,26.88,4.69,-1.33,101.504,687.104,-858.88
60.024,613.904,-804.712,25.41,4.48,-1.12,93.696,671.488,-835.456
58.072,613.416,-805.2,23.66,3.92,-1.05,93.696,655.872,-827.648
56.608,620.736,-813.496,21.91,3.36,-1.05,70.272,671.488,-835.456
57.096,626.592,-822.28,20.23,2.94,-0.98,109.312,710.528,-858.88
56.12,632.448,-826.184,19.46,2.8,-0.7,101.504,663.68,-843.264
54.656,638.304,-821.304,19.04,2.38,-0.28,78.08,694.912,-858.88
51.728,641.72,-809.592,18.83,1.82,-0.14,85.888,687.104,-827.648
51.24,639.768,-801.296,18.2,1.47,-0.21,93.696,679.296,-851.072
51.728,628.056,-796.904,17.36,1.33,-0.56,78.08,671.488,-827.648
53.192,616.344,-801.296,16.1,1.33,-0.91,93.696,671.488,-835.456
51.24,602.192,-807.152,15.05,1.54,-1.05,101.504,648.064,-851.072
47.824,585.6,-812.52,14.07,1.4,-1.05,54.656,609.024,-858.88
46.848,569.984,-819.352,13.51,1.47,-1.05,85.888,624.64,-866.688
44.408,559.248,-823.744,13.3,1.4,-1.05,109.312,632.448,-858.88
44.408,550.464,-825.696,12.95,1.4,-1.12,70.272,616.832,-890.112
42.944,546.56,-832.528,12.67,1.33,-1.26,70.272,577.792,-866.688
40.016,547.536,-835.944,12.39,1.26,-1.54,62.464,593.408,-874.496
39.04,555.832,-838.872,12.04,1.19,-1.82,85.888,585.6,-874.496
38.552,563.152,-838.872,11.62,1.05,-1.89,46.848,593.408,-851.072
40.016,570.472,-843.264,11.13,1.12,-2.03,78.08,632.448,-874.496
42.944,582.184,-848.144,10.85,0.91,-2.17,85.888,616.832,-866.688
42.456,588.04,-853.512,10.78,1.05,-2.03,54.656,616.832,-905.728
40.504,589.992,-855.952,10.78,0.98,-1.75,62.464,624.64,-882.304
41.48,592.92,-853.512,10.85,0.84,-1.54,46.848,632.448,-897.92
41.968,590.968,-854.0,10.85,0.7,-1.26,70.272,624.64,-890.112
44.408,584.136,-852.536,10.92,0.35,-1.12,70.272,640.256,-890.112
47.336,575.352,-852.048,10.92,0.14,-0.91,62.464,624.64,-866.688
51.728,564.128,-852.048,11.27,0.07,-0.91,78.08,601.216,-890.112
55.144,550.464,-854.0,11.62,-0.14,-0.91,78.08,577.792,-897.92
58.56,537.288,-850.096,12.11,-0.07,-0.91,101.504,554.368,-882.304
64.416,521.672,-849.12,12.74,-0.07,-0.84,85.888,562.176,-897.92
64.904,506.056,-843.752,13.51,0.21,-0.98,62.464,538.752,-890.112
69.296,492.88,-840.336,14.21,0.63,-1.19,93.696,554.368,-866.688
68.32,482.632,-836.432,15.05,0.91,-1.26,101.504,515.328,-874.496
69.784,476.288,-831.552,16.17,1.19,-1.47,109.312,499.712,-874.496
67.344,472.384,-826.184,17.43,1.54,-1.68,109.312,507.52,-874.496
66.856,470.432,-820.816,18.9,1.96,-1.75,62.464,515.328,-835.456
66.856,474.824,-816.424,20.37,2.31,-1.75,93.696,507.52,-843.264
63.928,479.704,-813.008,21.91,2.87,-1.4,101.504,523.136,-858.88
57.584,490.44,-809.104,23.17,3.01,-0.98,78.08,562.176,-851.072
59.048,495.808,-810.568,24.29,3.08,-0.77,62.464,546.56,-843.264
60.512,499.712,-813.496,24.99,3.29,0.14,101.504,554.368,-843.264
54.656,509.472,-811.056,25.41,3.71,0.77,54.656,538.752,-851.072
52.216,517.768,-814.96,26.11,3.71,0.77,62.464,538.752,-858.88
48.312,527.528,-815.448,26.32,3.57,0.77,78.08,577.792,-827.648
42.944,535.336,-816.424,26.53,3.5,0.84,85.888,593.408,-843.264
40.504,542.656,-810.08,26.81,3.22,1.19,93.696,593.408,-866.688
36.112,548.512,-802.76,27.58,2.73,1.89,54.656,593.408,-827.648
35.136,552.904,-796.416,28.63,2.24,2.8,70.272,609.024,-835.456
36.6,556.808,-792.024,30.03,1.96,3.78,62.464,624.64,-835.456
37.088,560.712,-793.0,31.08,1.82,4.83,31.232,585.6,-835.456
33.672,561.688,-793.488,31.99,1.68,5.6,70.272,632.448,-827.648
35.136,562.176,-792.024,32.62,1.4,6.16,78.08,601.216,-827.648
33.672,559.736,-794.464,32.97,1.19,6.58,85.888,609.024,-819.84
34.16,554.856,-793.488,33.32,1.05,7.0,54.656,624.64,-812.032
35.624,550.952,-790.56,33.6,0.84,7.28,54.656,577.792,-827.648
34.648,547.048,-792.512,33.67,0.77,7.77,62.464,585.6,-812.032
34.16,539.24,-792.512,33.67,0.49,8.19,62.464,569.984,-819.84
36.112,528.992,-796.416,33.6,0.28,8.54,70.272,585.6,-827.648
38.552,516.304,-798.368,33.53,0.0,8.75,62.464,562.176,-851.072
44.896,499.712,-804.712,33.53,-0.35,8.89,70.272,562.176,-843.264
47.824,490.44,-811.056,33.74,-0.35,8.89,70.272,538.752,-835.456
55.144,480.192,-816.424,33.81,-0.49,8.89,78.08,538.752,-835.456
58.072,472.872,-823.744,33.88,-0.49,8.96,62.464,507.52,-858.88
61.488,470.92,-824.232,33.88,-0.49,9.1,70.272,530.944,-851.072
63.44,470.432,-831.064,33.88,-0.56,9.1,117.12,515.328,-866.688
68.32,474.336,-834.48,34.09,-0.49,9.31,85.888,530.944,-874.496
73.2,477.752,-838.872,34.37,-0.63,9.73,109.312,515.328,-858.88
78.568,481.656,-840.824,34.86,-0.56,10.29,93.696,523.136,-882.304
77.592,487.024,-839.848,35.77,-0.28,10.78,93.696,515.328,-882.304
77.592,490.928,-836.92,36.54,-0.14,11.13,101.504,554.368,-882.304
77.592,494.832,-840.336,37.24,-0.07,11.48,93.696,577.792,-858.88
77.592,496.296,-844.728,37.66,0.07,11.69,109.312,562.176,-874.496
76.128,492.88,-849.12,37.87,0.0,11.97,140.544,546.56,-874.496
75.152,493.856,-853.024,38.01,0.07,12.18,109.312,546.56,-897.92
74.664,494.344,-859.856,37.94,0.0,12.39,101.504,554.368,-882.304
74.176,490.928,-859.368,37.66,0.0,12.53,85.888,554.368,-921.344
71.736,491.904,-860.832,37.45,-0.21,12.46,78.08,562.176,-890.112
67.832,497.272,-859.368,37.31,-0.35,12.53,109.312,546.56,-897.92
68.32,500.2,-860.344,37.24,-0.7,12.46,124.928,515.328,-913.536
67.344,503.128,-861.808,37.03,-1.12,12.53,93.696,546.56,-897.92
67.832,500.688,-866.688,36.96,-1.54,12.81,93.696,562.176,-890.112
70.76,502.152,-875.96,36.61,-1.89,13.3,93.696,554.368,-890.112
75.152,505.568,-880.84,35.91,-2.24,13.79,132.736,554.368,-921.344
74.176,505.568,-868.152,34.58,-2.66,14.28,93.696,546.56,-921.344
68.808,500.2,-860.344,33.11,-3.08,14.49,85.888,562.176,-897.92
66.856,503.128,-854.0,32.13,-3.43,14.63,85.888,538.752,-897.92
66.368,508.984,-855.464,31.57,-4.06,14.63,85.888,562.176,-921.344
63.928,521.184,-858.392,30.94,-4.62,14.63,78.08,577.792,-905.728
67.344,539.728,-865.712,30.1,-5.18,14.7,132.736,569.984,-882.304
76.128,561.2,-873.52,28.63,-5.67,14.77,109.312,593.408,-890.112
83.448,582.672,-889.624,26.88,-5.67,15.05,124.928,648.064,-921.344
88.328,600.728,-903.288,25.27,-5.04,15.61,140.544,648.064,-929.152
90.768,614.88,-913.048,24.29,-4.41,16.38,101.504,655.872,-936.96
88.328,625.128,-916.464,23.73,-3.57,17.36,124.928,663.68,-936.96
83.936,629.032,-917.928,23.59,-3.08,18.48,124.928,687.104,-976.0
80.52,624.152,-916.952,23.59,-2.52,19.46,101.504,694.912,-936.96
78.08,607.072,-914.024,23.38,-2.24,20.65,93.696,655.872,-944.768
73.688,590.48,-910.12,23.1,-2.03,21.35,70.272,624.64,-960.384
72.224,569.984,-905.24,22.82,-1.96,21.63,124.928,609.024,-944.768
68.32,547.536,-900.36,22.33,-1.89,21.77,132.736,569.984,-936.96
71.736,530.456,-898.896,21.7,-1.75,21.63,101.504,601.216,-936.96
71.248,516.792,-895.968,21.28,-1.47,21.35,101.504,562.176,-921.344
71.248,511.424,-898.896,20.79,-1.26,21.14,101.504,554.368,-936.96
72.712,508.496,-902.8,20.16,-1.19,21.07,85.888,569.984,-944.768
77.104,509.472,-909.632,19.6,-1.05,21.28,101.504,562.176,-929.152
79.056,513.376,-913.536,19.25,-0.91,21.56,109.312,569.984,-944.768
79.544,522.16,-915.0,18.62,-0.7,21.91,78.08,569.984,-936.96
80.52,529.968,-915.976,17.85,-0.98,22.05,117.12,585.6,-936.96
87.84,539.24,-920.856,16.73,-1.19,22.12,101.504,593.408,-952.576
96.136,547.536,-931.592,15.61,-1.05,22.33,140.544,577.792,-968.192
100.04,554.368,-940.864,14.42,-0.84,22.68,124.928,593.408,-991.616
107.848,557.296,-950.136,13.44,-0.7,23.17,132.736,640.256,-968.192
111.264,557.296,-958.92,12.81,-0.49,23.8,148.352,601.216,-999.424
116.144,554.368,-961.848,12.39,-0.07,24.22,156.16,609.024,-1015.04
116.632,547.536,-963.312,12.04,0.28,24.71,156.16,569.984,-991.616
115.656,537.288,-958.92,11.76,0.63,25.2,156.16,577.792,-983.808
114.192,523.136,-956.968,11.41,0.98,25.34,117.12,569.984,-999.424
111.752,508.496,-953.064,11.06,1.33,25.41,140.544,523.136,-991.616
108.824,493.368,-947.208,10.64,1.82,25.48,140.544,569.984,-976.0
104.432,479.216,-946.232,10.29,2.38,25.48,117.12,530.944,-991.616
101.992,464.576,-947.208,9.8,2.94,25.48,124.928,515.328,-983.808
96.136,453.352,-944.768,9.45,3.29,25.41,132.736,476.288,-968.192
90.768,440.176,-942.816,9.38,3.5,25.2,124.928,476.288,-968.192
86.376,429.44,-934.032,9.31,3.71,24.85,101.504,476.288,-968.192
79.544,418.704,-920.368,9.24,3.5,24.36,101.504,452.864,-960.384
73.2,408.944,-909.144,9.24,3.29,23.87,109.312,468.48,-921.344
70.76,402.112,-897.432,9.1,2.94,23.45,93.696,445.056,-921.344
69.296,395.768,-887.672,9.03,2.52,22.96,93.696,445.056,-921.344
69.784,390.888,-879.376,8.89,2.17,22.61,117.12,445.056,-897.92
71.736,389.912,-877.912,8.89,1.96,22.4,93.696,445.056,-905.728
73.2,386.496,-875.472,8.75,1.68,22.05,101.504,437.248,-905.728
79.056,384.544,-876.448,8.89,1.4,21.98,109.312,445.056,-921.344
81.984,382.104,-874.008,9.17,1.33,21.98,85.888,429.44,-905.728
84.912,381.616,-872.544,9.59,1.54,21.91,117.12,421.632,-913.536
87.84,380.64,-869.616,10.22,1.47,21.91,109.312,421.632,-905.728
90.28,383.08,-869.128,10.85,1.54,21.7,117.12,437.248,-913.536
93.208,386.008,-871.08,11.48,1.47,21.56,109.312,429.44,-913.536
95.648,391.376,-868.64,12.11,1.54,21.56,124.928,445.056,-890.112
96.136,396.256,-869.128,12.6,1.54,21.63,109.312,437.248,-905.728
100.04,403.088,-868.64,13.02,1.75,21.7,132.736,452.864,-905.728
101.016,413.824,-870.592,13.58,2.03,21.77,156.16,437.248,-913.536
103.456,423.096,-871.568,14.07,2.03,21.98,117.12,484.096,-913.536
103.944,431.392,-873.52,14.49,2.17,22.12,132.736,484.096,-897.92
101.016,440.176,-872.056,14.91,2.31,22.26,124.928,499.712,-890.112
99.064,448.472,-870.104,15.33,2.24,22.26,140.544,499.712,-929.152
101.016,457.256,-871.568,15.68,2.31,22.26,132.736,507.52,-874.496
100.528,464.088,-875.96,15.61,2.24,22.12,140.544,530.944,-905.728
100.04,467.504,-880.352,15.54,2.38,21.98,124.928,515.328,-913.536
100.528,473.36,-884.256,15.33,2.59,21.91,124.928,530.944,-929.152
98.576,481.168,-888.16,15.05,2.8,22.05,117.12,499.712,-921.344
96.136,485.072,-893.528,14.91,2.87,22.05,101.504,530.944,-929.152
94.184,487.024,-900.848,14.77,2.8,22.19,140.544,554.368,-921.344
95.648,486.536,-910.12,14.49,2.52,22.68,132.736,523.136,-944.768
97.6,484.096,-913.048,14.21,2.59,23.17,124.928,546.56,-921.344
96.136,480.192,-911.584,14.0,2.45,23.31,124.928,538.752,-960.384
98.088,475.8,-910.608,13.72,2.45,23.31,132.736,515.328,-944.768
96.136,474.336,-904.752,13.44,2.38,23.24,132.736,530.944,-936.96
97.6,469.456,-904.264,13.02,2.31,22.96,124.928,499.712,-929.152
99.064,467.992,-901.824,12.67,2.38,22.68,117.12,515.328,-936.96
100.528,465.064,-905.24,12.11,2.31,22.54,93.696,523.136,-929.152
99.064,464.576,-901.336,11.69,2.38,22.33,124.928,499.712,-936.96
98.576,462.624,-898.896,11.27,2.17,21.98,109.312,499.712,-944.768
97.6,457.256,-896.456,10.92,1.96,21.7,101.504,523.136,-921.344
100.528,455.792,-895.968,10.57,1.82,21.42,140.544,515.328,-929.152
103.944,454.328,-903.776,10.29,1.75,21.07,109.312,530.944,-929.152
107.36,455.304,-912.56,9.8,2.03,20.72,140.544,499.712,-936.96
109.312,454.816,-922.32,9.03,2.1,20.44,132.736,523.136,-952.576
112.728,454.816,-930.128,8.12,2.24,20.23,109.312,476.288,-944.768
114.68,455.792,-937.936,7.42,2.31,19.95,132.736,507.52,-952.576
115.656,454.816,-941.352,6.58,2.31,19.6,140.544,491.904,-976.0
117.12,458.232,-944.768,5.74,2.24,19.32,132.736,530.944,-991.616
118.584,459.208,-942.328,4.97,2.1,19.04,156.16,530.944,-983.808
120.048,462.136,-942.328,4.2,1.89,18.69,132.736,515.328,-976.0
122.976,464.576,-939.4,3.43,1.68,18.34,117.12,530.944,-991.616
123.464,466.04,-938.912,2.52,1.47,17.92,140.544,515.328,-968.192
126.88,466.04,-934.52,1.68,1.33,17.57,171.776,499.712,-991.616
131.272,462.136,-931.104,0.77,1.12,17.08,171.776,499.712,-960.384
133.224,459.696,-927.688,-0.07,1.12,16.59,163.968,530.944,-991.616
136.152,455.792,-926.224,-0.77,0.98,16.24,163.968,499.712,-936.96
138.104,448.96,-923.784,-1.54,0.84,15.61,163.968,530.944,-944.768
140.056,445.544,-918.416,-2.31,0.77,15.19,163.968,507.52,-960.384
139.568,442.128,-914.024,-3.01,0.77,14.7,124.928,476.288,-936.96
141.52,441.152,-910.608,-3.5,0.63,14.35,140.544,515.328,-944.768
141.52,441.152,-909.632,-4.06,0.42,14.07,187.392,499.712,-952.576
141.032,447.008,-910.12,-4.41,0.42,14.0,171.776,491.904,-929.152
143.472,455.792,-909.144,-4.62,0.35,13.86,171.776,484.096,-952.576
143.96,463.112,-911.584,-5.04,0.49,13.93,171.776,515.328,-944.768
142.008,468.968,-913.048,-5.46,0.42,13.93,156.16,507.52,-960.384
142.008,476.288,-911.096,-6.02,0.35,13.79,156.16,507.52,-936.96
141.52,483.12,-909.144,-6.58,0.28,13.79,187.392,523.136,-921.344
142.008,485.072,-904.752,-7.42,0.0,13.58,163.968,530.944,-944.768
141.032,485.56,-902.312,-8.26,-0.14,13.44,156.16,538.752,-913.536
140.544,483.12,-900.36,-9.03,-0.35,13.09,163.968,554.368,-929.152
142.984,478.24,-899.872,-9.94,-0.49,12.88,156.16,499.712,-936.96
142.496,474.336,-899.872,-10.64,-0.49,12.67,148.352,523.136,-936.96
142.984,469.944,-899.384,-11.2,-0.77,12.46,171.776,546.56,-921.344
142.496,463.6,-899.872,-11.62,-0.84,12.46,171.776,499.712,-929.152
143.472,455.792,-900.848,-11.83,-0.77,12.46,187.392,523.136,-944.768
142.496,447.008,-896.456,-12.04,-0.98,12.53,171.776,491.904,-929.152
140.544,442.128,-895.968,-11.97,-0.98,12.46,171.776,507.52,-921.344
140.056,437.248,-894.992,-12.04,-1.12,12.46,171.776,476.288,-936.96
138.104,435.296,-895.968,-12.11,-1.19,12.25,163.968,484.096,-929.152
136.64,434.32,-899.384,-12.46,-1.12,12.11,163.968,484.096,-936.96
135.664,436.76,-899.872,-12.6,-1.26,11.69,156.16,468.48,-929.152
131.76,441.152,-900.36,-12.81,-1.4,11.34,171.776,491.904,-936.96
129.808,447.496,-896.944,-12.95,-1.68,11.06,179.584,476.288,-929.152
127.856,452.864,-894.504,-13.09,-1.96,10.92,140.544,499.712,-929.152
128.832,458.232,-890.112,-13.23,-2.24,10.71,140.544,484.096,-936.96
129.808,461.648,-888.16,-13.51,-2.45,10.36,156.16,523.136,-921.344
130.296,464.088,-882.304,-13.79,-2.59,10.22,140.544,491.904,-913.536
133.224,464.088,-876.448,-14.07,-2.66,10.01,171.776,491.904,-913.536
132.248,463.6,-870.592,-14.35,-2.66,9.87,163.968,523.136,-913.536
131.76,460.184,-864.736,-14.56,-2.52,9.87,179.584,523.136,-890.112
130.296,457.256,-860.344,-14.77,-2.38,9.8,148.352,507.52,-897.92
128.344,457.256,-862.296,-14.91,-2.31,9.66,156.16,507.52,-890.112
125.904,456.28,-864.736,-15.33,-1.96,9.52,132.736,507.52,-905.728
122.488,458.232,-868.152,-15.61,-1.75,9.38,156.16,491.904,-905.728
116.632,459.696,-869.128,-16.03,-1.47,9.31,179.584,515.328,-921.344
110.776,462.136,-869.616,-16.1,-1.4,9.1,171.776,499.712,-905.728
105.408,465.552,-871.568,-16.1,-1.47,9.03,132.736,530.944,-890.112
102.968,469.944,-870.104,-15.75,-1.61,9.03,132.736,530.944,-905.728
100.04,474.824,-868.152,-15.47,-1.89,9.03,124.928,523.136,-905.728
98.088,479.704,-869.128,-14.98,-2.1,9.03,132.736,515.328,-921.344
97.6,480.192,-868.64,-14.77,-2.24,9.1,101.504,530.944,-905.728
99.064,481.656,-867.664,-14.56,-2.31,9.17,148.352,523.136,-890.112
98.088,477.752,-868.64,-14.56,-2.38,9.24,101.504,530.944,-913.536
99.552,473.848,-867.176,-14.35,-2.59,9.45,140.544,523.136,-897.92
101.504,467.016,-868.152,-14.28,-2.73,9.52,124.928,530.944,-890.112
101.992,459.696,-864.248,-14.14,-3.01,9.8,124.928,484.096,-897.92
105.408,451.4,-862.784,-14.07,-3.15,9.87,140.544,507.52,-921.344
109.8,443.592,-865.712,-13.79,-3.36,9.87,124.928,515.328,-897.92
112.728,434.32,-864.248,-13.58,-3.36,9.94,124.928,484.096,-905.728
117.608,428.464,-865.712,-13.37,-3.43,9.94,132.736,484.096,-890.112
122.488,420.656,-865.224,-13.09,-3.43,10.22,132.736,468.48,-890.112
125.416,412.848,-864.248,-12.95,-3.36,10.22,132.736,460.672,-890.112
125.904,403.088,-861.32,-12.81,-3.29,10.43,148.352,460.672,-890.112
127.368,394.792,-857.904,-12.6,-3.22,10.36,163.968,437.248,-897.92
129.32,386.984,-856.928,-12.53,-3.15,10.29,132.736,452.864,-890.112
129.32,385.032,-860.344,-12.32,-3.08,9.94,156.16,437.248,-897.92
129.808,381.616,-861.808,-12.25,-2.8,9.59,163.968,437.248,-882.304
126.392,380.152,-863.272,-12.18,-2.73,9.17,148.352,406.016,-905.728
124.928,382.104,-870.104,-12.04,-2.8,8.82,132.736,413.824,-897.92
123.464,385.52,-873.52,-11.97,-2.87,8.47,140.544,460.672,-921.344
123.464,389.912,-878.4,-12.11,-2.87,8.12,163.968,429.44,-913.536
123.464,395.28,-881.816,-12.18,-2.87,7.91,156.16,445.056,-936.96
121.512,401.624,-886.208,-12.39,-3.01,7.56,163.968,460.672,-944.768
124.44,408.944,-891.088,-12.67,-3.08,7.28,156.16,460.672,-905.728
126.88,417.24,-894.016,-13.09,-3.15,7.0,163.968,484.096,-936.96
125.904,424.56,-894.992,-13.58,-3.22,6.79,124.928,468.48,-913.536
128.344,431.392,-893.528,-14.0,-3.29,6.65,156.16,491.904,-929.152
127.856,437.736,-892.552,-14.35,-3.22,6.44,171.776,491.904,-929.152
127.368,442.616,-891.088,-14.77,-3.08,6.37,156.16,491.904,-952.576
128.344,446.032,-893.528,-15.12,-3.36,6.44,148.352,491.904,-921.344
125.904,449.448,-896.944,-15.26,-3.22,6.65,156.16,491.904,-936.96
126.88,454.328,-897.92,-15.33,-3.15,6.65,171.776,499.712,-929.152
125.904,455.792,-898.408,-15.54,-2.94,6.72,140.544,523.136,-944.768
125.416,458.72,-895.968,-15.19,-2.87,6.79,132.736,515.328,-921.344
123.464,458.232,-894.504,-14.77,-2.87,7.07,140.544,499.712,-929.152
124.928,457.256,-894.992,-14.28,-3.01,7.21,140.544,507.52,-921.344
125.416,456.28,-894.016,-13.65,-2.87,7.63,148.352,491.904,-921.344
124.44,457.256,-892.552,-13.02,-2.73,7.91,163.968,491.904,-936.96
122.976,457.256,-891.576,-12.32,-2.38,8.12,132.736,484.096,-921.344
119.56,453.352,-889.624,-11.48,-2.31,8.47,132.736,507.52,-929.152
118.584,454.816,-884.256,-10.64,-2.17,8.68,156.16,499.712,-921.344
115.168,455.304,-886.208,-9.94,-2.1,8.82,156.16,499.712,-897.92
114.192,456.768,-884.256,-9.17,-2.24,9.17,132.736,507.52,-905.728
112.728,455.792,-881.816,-8.26,-2.45,9.52,132.736,491.904,-913.536
112.24,455.304,-880.352,-7.35,-2.59,9.87,156.16,491.904,-905.728
115.656,453.352,-878.4,-6.58,-2.73,10.22,140.544,507.52,-897.92
116.144,453.352,-878.888,-5.74,-2.8,10.5,132.736,491.904,-905.728
116.632,452.376,-875.96,-4.69,-2.94,10.78,148.352,523.136,-929.152
115.168,455.304,-870.104,-3.92,-3.01,11.06,156.16,507.52,-897.92
116.632,455.304,-860.344,-3.08,-3.36,11.2,148.352,499.712,-897.92
115.168,464.088,-853.512,-1.82,-3.36,11.34,156.16,507.52,-882.304
116.632,478.24,-853.512,-1.12,-3.43,11.48,148.352,523.136,-874.496
119.56,492.88,-866.688,-1.47,-3.71,11.48,148.352,538.752,-897.92
123.464,506.056,-879.376,-2.45,-3.99,11.41,156.16,530.944,-897.92
128.344,516.792,-887.184,-3.64,-4.27,11.41,163.968,577.792,-905.728
134.688,528.016,-886.696,-4.27,-4.76,11.69,156.16,546.56,-921.344
136.64,533.384,-877.424,-4.48,-5.11,12.11,156.16,577.792,-913.536
139.568,532.408,-867.176,-4.2,-5.11,12.67,171.776,569.984,-882.304
142.496,530.944,-857.416,-3.78,-5.04,13.44,179.584,585.6,-882.304
145.424,522.648,-850.584,-3.57,-4.76,14.0,179.584,569.984,-913.536
144.448,512.888,-845.704,-3.99,-4.34,14.42,163.968,554.368,-882.304
144.936,499.712,-851.072,-4.9,-3.99,14.49,171.776,554.368,-890.112
143.96,487.512,-855.464,-6.09,-3.78,14.21,163.968,546.56,-866.688
141.032,473.848,-859.368,-7.7,-3.43,13.72,171.776,515.328,-897.92
138.104,463.112,-862.296,-9.17,-3.29,12.95,163.968,515.328,-905.728
136.64,453.352,-862.784,-10.43,-3.29,12.25,148.352,491.904,-882.304
137.616,446.52,-862.784,-11.55,-3.29,11.55,179.584,491.904,-913.536
135.664,440.176,-861.808,-12.6,-3.29,10.92,179.584,484.096,-897.92
136.152,439.688,-863.272,-13.23,-3.43,10.5,171.776,491.904,-905.728
137.128,438.712,-863.76,-13.93,-3.36,10.15,163.968,491.904,-897.92
138.592,434.32,-864.736,-14.7,-3.36,10.08,179.584,491.904,-897.92
140.056,428.952,-867.664,-14.91,-3.29,10.08,179.584,468.48,-897.92
140.544,424.072,-868.64,-15.05,-3.01,10.15,163.968,476.288,-905.728
141.032,419.192,-871.568,-14.91,-2.8,10.22,156.16,468.48,-905.728
139.568,415.288,-871.568,-14.77,-2.45,10.15,163.968,437.248,-929.152
137.616,413.824,-874.008,-14.28,-2.03,10.01,171.776,445.056,-921.344
135.176,415.776,-875.472,-13.93,-1.68,9.8,171.776,468.48,-913.536
132.736,418.704,-877.912,-13.51,-1.61,9.59,156.16,476.288,-913.536
129.32,422.608,-878.888,-13.09,-1.47,9.38,179.584,468.48,-921.344
126.392,429.44,-879.376,-12.74,-1.4,9.17,140.544,476.288,-905.728
125.416,437.736,-879.864,-12.32,-1.33,9.03,156.16,507.52,-890.112
123.464,443.592,-880.84,-11.9,-1.26,8.96,156.16,499.712,-905.728
124.928,449.448,-877.424,-11.55,-1.33,9.03,156.16,484.096,-913.536
125.904,454.328,-874.496,-10.99,-1.4,9.17,148.352,515.328,-913.536
126.392,457.256,-871.568,-10.5,-1.54,9.38,156.16,523.136,-905.728
127.856,458.232,-867.664,-9.94,-1.4,9.66,163.968,515.328,-913.536
128.832,460.184,-867.664,-9.45,-1.4,9.94,148.352,515.328,-897.92
130.296,459.208,-864.248,-9.17,-1.33,10.01,163.968,468.48,-905.728
130.296,459.696,-864.248,-8.82,-1.33,10.08,163.968,499.712,-890.112
131.272,459.696,-868.64,-8.54,-1.26,10.15,156.16,499.712,-882.304
134.688,461.648,-872.056,-8.4,-1.26,10.15,156.16,523.136,-913.536
134.2,462.624,-874.008,-8.26,-1.19,10.01,156.16,491.904,-905.728
134.2,464.576,-878.4,-8.19,-1.26,10.08,171.776,515.328,-897.92
135.664,466.04,-878.888,-8.19,-1.33,10.08,171.776,530.944,-905.728
136.64,466.528,-882.792,-7.84,-1.33,10.08,171.776,515.328,-913.536
141.52,466.04,-884.256,-7.7,-1.4,10.15,163.968,491.904,-913.536
142.496,464.576,-885.72,-7.35,-1.26,10.29,163.968,523.136,-921.344
143.472,463.112,-883.768,-7.07,-1.26,10.5,163.968,491.904,-913.536
144.448,461.648,-880.84,-6.51,-1.26,10.71,156.16,515.328,-913.536
145.424,460.184,-880.352,-5.88,-1.26,10.99,156.16,507.52,-905.728
146.4,455.792,-876.936,-5.25,-1.12,11.2,163.968,499.712,-897.92
144.936,455.304,-872.544,-4.69,-1.12,11.34,163.968,523.136,-921.344
143.472,450.912,-869.128,-4.27,-1.12,11.34,156.16,499.712,-882.304
142.008,450.424,-867.176,-3.71,-1.19,11.34,163.968,499.712,-905.728
140.056,450.424,-863.272,-3.36,-1.47,11.2,171.776,507.52,-897.92
139.08,450.424,-861.32,-3.01,-1.47,10.99,156.16,499.712,-913.536
138.592,452.376,-858.392,-2.8,-1.47,10.71,171.776,507.52,-905.728
136.152,456.768,-855.464,-2.38,-1.54,10.57,156.16,499.712,-897.92
135.664,461.16,-854.0,-2.24,-1.61,10.5,171.776,507.52,-890.112
134.2,463.112,-849.12,-1.82,-1.82,10.64,163.968,507.52,-890.112
133.224,465.552,-846.68,-1.4,-1.96,10.85,171.776,523.136,-866.688
131.272,467.504,-847.168,-0.84,-2.1,10.92,171.776,523.136,-874.496
130.784,466.528,-849.12,-0.56,-2.24,11.06,171.776,530.944,-882.304
129.808,467.992,-852.048,-0.14,-2.38,11.13,140.544,530.944,-874.496
129.32,469.944,-856.928,0.28,-2.52,11.27,148.352,491.904,-866.688
128.344,470.432,-860.832,0.49,-2.66,11.27,156.16,507.52,-890.112
131.272,470.432,-865.224,0.84,-2.73,11.41,163.968,538.752,-897.92
130.296,469.944,-867.664,1.4,-2.8,11.48,140.544,499.712,-897.92
128.832,470.432,-868.64,1.82,-2.87,11.62,156.16,546.56,-913.536
129.32,470.432,-869.128,2.38,-2.94,11.76,163.968,546.56,-913.536
132.248,470.92,-868.64,2.94,-3.15,11.97,148.352,523.136,-882.304
133.224,470.432,-870.104,3.29,-3.29,12.04,163.968,507.52,-921.344
133.712,467.992,-870.104,3.5,-3.36,12.11,163.968,515.328,-882.304
135.176,468.968,-871.568,3.57,-3.43,12.04,179.584,499.712,-905.728
138.104,468.48,-876.936,3.5,-3.5,11.83,148.352,484.096,-913.536
138.592,469.944,-883.28,3.5,-3.43,11.76,163.968,538.752,-905.728
141.032,470.432,-889.624,3.43,-3.43,11.69,179.584,523.136,-921.344
141.52,472.872,-894.992,3.5,-3.5,11.55,179.584,538.752,-921.344
142.008,475.8,-897.92,3.5,-3.43,11.41,171.776,523.136,-936.96
141.52,477.752,-899.872,3.64,-3.36,11.34,148.352,530.944,-936.96
142.984,477.752,-900.36,3.64,-3.29,11.34,179.584,523.136,-936.96
144.448,478.728,-900.36,3.64,-3.15,11.2,187.392,546.56,-929.152
142.984,481.656,-901.336,3.57,-3.15,11.13,187.392,546.56,-913.536
141.52,480.68,-901.824,3.43,-3.01,10.99,148.352,562.176,-944.768
141.52,480.192,-900.36,3.22,-2.87,10.99,179.584,538.752,-936.96
140.544,481.168,-900.36,2.94,-2.73,10.92,171.776,546.56,-936.96
138.592,481.656,-897.92,2.73,-2.87,10.71,171.776,562.176,-913.536
136.152,481.656,-894.504,2.52,-2.8,10.57,163.968,523.136,-929.152
136.152,481.656,-892.552,2.38,-2.87,10.36,163.968,530.944,-921.344
136.64,482.144,-892.064,2.1,-2.87,10.22,156.16,530.944,-921.344
133.712,481.656,-888.648,1.82,-2.87,10.08,163.968,523.136,-905.728
136.152,484.584,-885.232,1.61,-2.94,9.94,171.776,530.944,-921.344
134.2,481.656,-883.768,1.4,-2.87,9.73,187.392,523.136,-921.344
134.688,481.656,-878.4,1.19,-2.94,9.66,187.392,523.136,-897.92
134.688,479.216,-875.96,1.19,-2.94,9.66,148.352,530.944,-897.92
134.2,475.312,-871.568,1.12,-2.94,9.59,171.776,523.136,-897.92
135.176,471.896,-866.688,0.98,-2.87,9.8,179.584,523.136,-929.152
134.2,468.48,-863.76,0.98,-2.87,9.73,171.776,530.944,-897.92
132.736,462.624,-857.904,0.91,-2.8,9.59,187.392,507.52,-890.112
133.224,459.208,-853.024,0.77,-2.8,9.31,163.968,499.712,-866.688
130.296,457.744,-846.68,0.77,-2.8,9.03,156.16,523.136,-866.688
128.832,456.768,-844.728,0.63,-2.94,8.82,148.352,515.328,-874.496
125.904,457.256,-839.36,0.49,-3.08,8.47,163.968,491.904,-874.496
125.904,458.72,-839.848,0.28,-3.15,8.26,140.544,515.328,-874.496
125.904,462.624,-840.336,0.28,-3.22,8.05,148.352,507.52,-858.88
124.44,467.992,-839.848,0.28,-3.36,7.7,140.544,530.944,-882.304
124.928,473.848,-837.896,0.28,-3.57,7.77,124.928,538.752,-851.072
124.44,479.704,-837.408,0.21,-3.57,7.7,156.16,523.136,-882.304
125.904,485.56,-834.968,0.21,-3.78,7.77,148.352,530.944,-874.496
127.856,492.392,-835.944,0.07,-3.85,7.84,156.16,546.56,-843.264
128.344,496.296,-835.944,-0.07,-3.99,7.77,156.16,530.944,-874.496
127.368,499.224,-840.336,-0.42,-3.92,7.98,156.16,530.944,-874.496
126.392,500.2,-841.8,-0.63,-3.99,7.98,171.776,585.6,-882.304
128.344,501.664,-846.192,-0.98,-4.13,8.12,140.544,546.56,-874.496
126.88,500.2,-848.144,-1.26,-4.13,8.19,163.968,569.984,-897.92
127.856,499.712,-854.488,-1.54,-4.27,8.05,156.16,546.56,-890.112
127.856,501.176,-860.344,-1.68,-4.34,8.12,171.776,530.944,-890.112
127.368,499.712,-864.248,-1.82,-4.48,8.05,163.968,523.136,-882.304
127.856,500.2,-870.104,-1.96,-4.55,7.91,148.352,554.368,-897.92
128.344,500.2,-873.52,-2.1,-4.55,7.91,124.928,569.984,-905.728
130.296,499.224,-875.96,-2.31,-4.55,7.98,171.776,546.56,-905.728
132.736,499.712,-880.352,-2.45,-4.69,7.98,156.16,546.56,-905.728
135.176,498.736,-882.792,-2.66,-4.76,7.98,171.776,546.56,-913.536
136.64,497.76,-882.304,-2.8,-4.76,8.05,148.352,554.368,-913.536
136.152,496.296,-883.28,-3.08,-4.76,7.98,163.968,585.6,-936.96
138.592,494.344,-885.232,-3.36,-4.83,7.91,148.352,546.56,-921.344
138.592,493.368,-887.184,-3.71,-4.76,7.84,179.584,546.56,-913.536
138.592,493.368,-887.672,-3.99,-4.76,7.7,163.968,562.176,-913.536
139.568,492.88,-887.184,-4.34,-4.83,7.56,163.968,546.56,-921.344
142.984,492.392,-887.184,-4.69,-4.83,7.49,179.584,562.176,-929.152
144.936,490.44,-887.184,-5.04,-4.76,7.42,163.968,546.56,-905.728
146.4,487.024,-886.208,-5.32,-4.76,7.35,163.968,523.136,-921.344
148.84,485.072,-885.232,-5.53,-4.55,7.35,179.584,538.752,-929.152
147.376,483.608,-885.72,-5.88,-4.41,7.28,187.392,546.56,-897.92
145.912,482.144,-884.744,-6.23,-4.27,7.14,187.392,554.368,-913.536
143.96,479.704,-882.304,-6.65,-4.13,6.93,163.968,523.136,-929.152
144.448,479.704,-880.84,-6.93,-3.99,6.79,163.968,515.328,-921.344
138.104,478.24,-879.376,-7.49,-3.99,6.51,171.776,546.56,-921.344
137.128,478.728,-874.984,-7.7,-3.92,6.23,156.16,530.944,-905.728
133.712,480.192,-873.52,-8.12,-3.99,5.95,179.584,538.752,-897.92
132.736,479.704,-870.592,-8.33,-3.99,5.74,156.16,530.944,-905.728
130.784,481.656,-866.688,-8.54,-3.99,5.53,171.776,538.752,-897.92
130.296,483.12,-865.224,-8.75,-3.99,5.39,171.776,530.944,-921.344
129.808,484.096,-861.808,-8.89,-4.13,5.39,140.544,507.52,-890.112
125.416,486.048,-862.296,-8.89,-4.34,5.25,163.968,515.328,-913.536
126.392,485.072,-859.368,-9.03,-4.34,5.32,124.928,523.136,-882.304
125.416,483.608,-856.928,-8.82,-4.55,5.32,132.736,523.136,-905.728
124.928,479.216,-854.488,-8.4,-4.62,5.39,156.16,523.136,-882.304
124.44,476.288,-851.072,-7.98,-4.69,5.39,156.16,530.944,-882.304
126.392,473.36,-847.656,-7.56,-4.9,5.32,148.352,530.944,-882.304
126.392,468.968,-845.704,-7.14,-5.04,5.39,179.584,530.944,-905.728
127.368,465.064,-842.288,-6.72,-5.18,5.39,148.352,530.944,-890.112
129.32,465.064,-842.288,-6.16,-5.18,5.39,148.352,515.328,-866.688
127.856,462.624,-838.872,-5.74,-5.32,5.25,148.352,507.52,-866.688
127.856,462.624,-835.944,-5.32,-5.39,5.25,156.16,523.136,-874.496
128.344,460.672,-834.48,-4.97,-5.25,5.18,171.776,499.712,-866.688
126.88,463.6,-832.528,-4.48,-5.39,5.18,163.968,499.712,-882.304
126.88,463.112,-833.992,-4.13,-5.46,5.25,163.968,515.328,-882.304
123.952,464.576,-833.504,-3.64,-5.46,5.32,163.968,515.328,-874.496
124.928,467.016,-833.016,-3.22,-5.6,5.53,140.544,538.752,-866.688
123.464,466.528,-835.944,-2.87,-5.74,5.53,148.352,515.328,-858.88
124.44,467.504,-834.968,-2.73,-5.88,5.53,187.392,523.136,-890.112
125.904,467.504,-837.408,-2.66,-6.09,5.46,171.776,530.944,-858.88
126.88,469.456,-835.944,-2.66,-6.09,5.32,156.16,499.712,-874.496
125.416,470.92,-838.872,-2.52,-6.16,5.18,171.776,538.752,-851.072
125.904,473.36,-840.336,-2.59,-6.23,5.04,148.352,530.944,-882.304
123.952,473.848,-842.776,-2.59,-6.3,4.97,171.776,530.944,-897.92
125.904,475.8,-843.752,-2.59,-6.44,4.9,171.776,507.52,-874.496
126.88,478.728,-847.168,-2.52,-6.72,4.9,156.16,523.136,-890.112
128.344,480.192,-853.024,-2.59,-6.72,4.9,163.968,538.752,-905.728
129.808,482.144,-858.88,-2.66,-6.72,5.04,156.16,515.328,-874.496
130.296,481.656,-862.296,-2.87,-6.72,5.04,163.968,515.328,-890.112
133.712,481.656,-866.688,-3.15,-6.79,5.04,163.968,538.752,-897.92
134.688,483.12,-869.616,-3.22,-6.72,5.04,163.968,507.52,-897.92
135.664,481.168,-873.032,-3.5,-6.58,4.97,163.968,523.136,-905.728
135.176,482.632,-874.008,-3.64,-6.51,4.9,156.16,538.752,-905.728
136.152,479.704,-875.96,-3.57,-6.51,4.76,163.968,515.328,-897.92
135.176,480.68,-878.4,-3.71,-6.44,4.83,171.776,538.752,-913.536
137.616,481.656,-880.84,-3.92,-6.51,4.69,148.352,538.752,-913.536
137.616,482.144,-881.816,-4.13,-6.44,4.55,171.776,530.944,-921.344
136.152,481.656,-882.792,-4.41,-6.3,4.41,179.584,546.56,-913.536
136.152,483.608,-878.888,-4.62,-6.37,4.34,163.968,538.752,-913.536
137.616,482.632,-877.424,-4.55,-6.37,4.2,187.392,515.328,-905.728
136.152,485.56,-877.912,-4.55,-6.51,3.99,132.736,530.944,-905.728
137.616,486.536,-874.008,-4.62,-6.51,4.06,140.544,530.944,-905.728
135.664,486.536,-874.984,-4.55,-6.65,3.99,163.968,554.368,-890.112
136.64,487.024,-874.496,-4.62,-6.65,3.99,148.352,546.56,-905.728
136.152,487.512,-872.544,-4.83,-6.65,3.99,156.16,562.176,-897.92
136.64,487.024,-870.104,-4.83,-6.72,4.06,148.352,538.752,-929.152
136.152,484.584,-872.056,-4.83,-6.86,4.06,171.776,546.56,-905.728
135.664,485.56,-871.08,-4.9,-6.86,4.13,163.968,546.56,-921.344
134.2,481.168,-872.056,-4.83,-6.86,4.06,156.16,523.136,-897.92
132.248,483.608,-870.592,-4.69,-6.93,4.06,195.2,538.752,-890.112
129.808,482.144,-867.664,-4.62,-6.93,3.99,156.16,523.136,-905.728
128.832,482.632,-862.784,-4.48,-7.0,4.06,171.776,546.56,-905.728
127.856,482.632,-860.832,-4.34,-7.14,3.99,163.968,546.56,-897.92
127.368,484.096,-856.44,-4.2,-7.21,4.06,148.352,538.752,-897.92
126.88,484.096,-851.072,-4.13,-7.35,4.06,156.16,530.944,-882.304
127.368,483.608,-848.632,-4.2,-7.56,4.06,132.736,554.368,-858.88
125.416,482.632,-849.608,-4.2,-7.63,3.99,148.352,523.136,-882.304
124.44,481.656,-848.144,-4.13,-7.77,4.06,171.776,538.752,-874.496
124.928,479.704,-849.608,-4.2,-7.84,3.92,163.968,523.136,-905.728
123.952,477.752,-849.608,-4.06,-7.98,3.85,132.736,515.328,-890.112
124.44,475.8,-850.584,-4.06,-8.12,3.71,163.968,554.368,-890.112
124.928,474.336,-851.072,-3.99,-8.26,3.71,179.584,523.136,-897.92
124.928,474.824,-850.584,-3.78,-8.33,3.64,156.16,554.368,-866.688
125.416,473.848,-850.096,-3.85,-8.54,3.64,140.544,515.328,-897.92
125.904,470.92,-848.632,-3.85,-8.68,3.64,148.352,515.328,-874.496
127.856,470.432,-846.68,-3.99,-8.61,3.57,163.968,523.136,-882.304
129.32,471.896,-844.728,-4.13,-8.68,3.43,148.352,499.712,-874.496
129.32,470.92,-842.776,-4.27,-8.68,3.22,179.584,515.328,-890.112
128.832,470.92,-843.264,-4.34,-8.75,3.15,171.776,507.52,-890.112
128.344,471.408,-843.264,-4.48,-8.75,2.87,163.968,546.56,-858.88
128.344,473.848,-845.216,-4.41,-8.89,2.66,163.968,523.136,-874.496
127.856,473.36,-846.192,-4.2,-8.96,2.38,156.16,530.944,-882.304
127.856,477.264,-848.144,-3.99,-8.89,2.31,132.736,530.944,-874.496
126.88,478.24,-849.608,-3.78,-8.96,2.31,148.352,523.136,-866.688
125.416,479.216,-848.632,-3.57,-8.82,2.24,171.776,530.944,-890.112
124.44,481.656,-848.632,-3.22,-8.68,2.31,140.544,538.752,-905.728
124.44,482.144,-852.048,-3.01,-8.54,2.45,171.776,530.944,-882.304
121.024,479.704,-858.392,-2.8,-8.4,2.59,148.352,523.136,-890.112
120.048,479.704,-863.272,-2.66,-8.26,2.66,156.16,530.944,-874.496
116.144,478.728,-867.664,-2.45,-8.12,2.8,156.16,523.136,-905.728
113.704,476.288,-869.128,-2.24,-8.19,2.66,156.16,546.56,-905.728
111.264,475.8,-873.52,-2.1,-8.26,2.8,124.928,530.944,-921.344
109.8,475.8,-877.424,-1.82,-8.4,2.66,148.352,523.136,-913.536
110.776,476.288,-879.376,-1.75,-8.61,2.45,132.736,530.944,-905.728
113.216,478.728,-886.208,-1.47,-8.61,2.38,148.352,538.752,-929.152
115.656,482.632,-888.648,-1.26,-8.68,2.24,148.352,554.368,-929.152
115.656,485.56,-893.04,-1.12,-8.82,2.17,140.544,562.176,-936.96
118.584,489.952,-897.92,-1.05,-8.89,2.17,148.352,523.136,-952.576
121.024,496.296,-901.336,-1.05,-8.89,2.1,148.352,538.752,-929.152
123.464,498.248,-904.752,-1.05,-8.75,2.1,156.16,554.368,-921.344
126.392,500.688,-908.168,-1.12,-8.61,2.03,156.16,569.984,-913.536
127.368,504.104,-910.12,-1.12,-8.47,2.1,163.968,546.56,-936.96
127.856,506.544,-910.12,-1.19,-8.33,2.1,171.776,538.752,-921.344
126.88,506.544,-911.096,-1.47,-8.26,2.24,148.352,562.176,-952.576
129.808,509.96,-912.072,-1.75,-8.12,2.31,148.352,554.368,-960.384
127.856,510.936,-909.144,-2.1,-8.12,2.38,179.584,554.368,-936.96
128.832,510.936,-908.656,-2.45,-7.91,2.38,156.16,577.792,-936.96
126.88,515.816,-904.752,-3.01,-7.84,2.38,163.968,554.368,-936.96
125.416,515.328,-898.408,-3.5,-7.77,2.24,156.16,562.176,-960.384
123.464,514.84,-894.992,-4.06,-7.49,2.31,156.16,562.176,-936.96
122.0,516.792,-893.04,-4.48,-7.56,2.24,140.544,577.792,-929.152
119.56,513.376,-890.6,-4.97,-7.7,2.17,148.352,569.984,-936.96
121.024,511.912,-886.208,-5.67,-7.77,2.24,148.352,569.984,-913.536
121.024,505.08,-880.84,-6.51,-7.84,2.03,140.544,569.984,-929.152
121.024,502.152,-872.056,-7.14,-7.77,1.96,163.968,546.56,-913.536
120.048,500.2,-866.2,-7.77,-7.77,1.89,156.16,577.792,-882.304
119.072,500.688,-858.392,-8.05,-7.7,1.75,132.736,538.752,-890.112
115.168,503.128,-854.0,-8.19,-7.7,1.75,140.544,546.56,-905.728
112.24,506.056,-852.536,-8.33,-7.63,1.89,140.544,554.368,-882.304
110.288,512.4,-849.12,-8.54,-7.49,2.03,117.12,562.176,-874.496
109.8,516.792,-850.584,-8.68,-7.63,2.1,109.312,585.6,-890.112
109.312,525.576,-857.904,-9.1,-7.56,2.1,124.928,577.792,-905.728
108.824,530.456,-867.664,-9.45,-7.49,2.24,132.736,585.6,-921.344
109.312,536.312,-877.912,-9.87,-7.63,2.31,148.352,609.024,-913.536
111.264,540.704,-882.304,-10.22,-7.91,2.38,124.928,585.6,-905.728
114.68,542.168,-881.328,-10.71,-8.05,2.38,156.16,585.6,-929.152
116.632,540.216,-875.472,-11.13,-8.26,2.38,148.352,585.6,-921.344
117.12,536.8,-867.176,-11.62,-8.33,2.31,132.736,601.216,-882.304
120.048,531.92,-860.344,-11.97,-8.4,2.45,132.736,585.6,-866.688
120.536,526.552,-855.952,-12.18,-8.4,2.59,140.544,562.176,-882.304
122.0,519.232,-852.048,-12.46,-8.33,2.59,132.736,562.176,-882.304
123.464,510.936,-849.608,-12.39,-8.19,2.73,171.776,562.176,-890.112
122.488,504.592,-849.608,-12.25,-8.12,2.87,148.352,569.984,-890.112
118.584,497.76,-845.704,-11.9,-7.98,3.08,156.16,554.368,-851.072
116.144,488.976,-842.288,-11.55,-7.84,3.22,156.16,554.368,-890.112
114.192,483.12,-841.312,-11.2,-7.77,3.36,148.352,554.368,-882.304
111.264,475.312,-840.336,-10.64,-7.98,3.5,117.12,523.136,-882.304
109.312,468.48,-842.776,-10.01,-8.05,3.64,132.736,491.904,-890.112
107.848,462.624,-839.848,-9.52,-8.12,3.64,124.928,499.712,-890.112
105.408,457.744,-837.408,-8.96,-8.26,3.71,124.928,515.328,-874.496
106.384,456.28,-836.432,-8.54,-8.4,3.71,124.928,499.712,-858.88
108.336,456.768,-833.992,-8.12,-8.54,3.57,140.544,499.712,-858.88
109.8,458.232,-830.088,-7.91,-8.68,3.29,148.352,507.52,-874.496
109.312,461.16,-829.112,-7.42,-8.61,3.22,101.504,507.52,-851.072
110.776,465.552,-828.136,-6.93,-8.82,2.94,140.544,507.52,-851.072
111.264,469.944,-825.208,-6.23,-8.82,2.94,132.736,530.944,-843.264
111.264,473.848,-822.28,-5.46,-8.89,3.08,140.544,538.752,-874.496
111.752,477.264,-825.208,-4.83,-8.89,3.29,156.16,538.752,-858.88
110.288,478.24,-831.064,-4.55,-8.89,3.5,132.736,546.56,-851.072
112.728,476.776,-838.872,-4.41,-8.82,3.57,109.312,515.328,-882.304
111.752,474.824,-848.144,-4.55,-8.82,3.57,156.16,507.52,-905.728
113.704,475.8,-854.976,-4.83,-8.82,3.5,140.544,538.752,-874.496
113.704,475.8,-864.248,-4.9,-8.82,3.36,124.928,523.136,-890.112
113.216,478.728,-866.688,-4.83,-8.82,3.01,109.312,538.752,-882.304
113.216,481.168,-867.176,-4.83,-8.75,2.94,171.776,538.752,-897.92
113.704,482.144,-867.664,-4.41,-8.75,3.01,156.16,546.56,-905.728
113.704,480.68,-863.76,-3.64,-8.82,3.15,148.352,554.368,-890.112
116.144,481.656,-862.784,-3.01,-8.96,3.36,124.928,546.56,-905.728
119.56,479.704,-858.88,-2.38,-8.89,3.64,187.392,554.368,-890.112
118.096,477.264,-857.904,-1.82,-8.75,3.85,140.544,530.944,-897.92
117.608,475.8,-852.536,-0.84,-8.54,3.92,156.16,523.136,-882.304
112.728,475.312,-853.024,0.35,-8.26,3.99,148.352,523.136,-890.112
108.336,474.824,-853.512,1.4,-8.05,4.06,124.928,523.136,-897.92
107.36,477.264,-858.392,2.24,-7.98,4.13,156.16,507.52,-897.92
103.944,479.704,-864.736,2.87,-7.98,4.06,132.736,523.136,-890.112
101.016,483.12,-869.128,3.22,-7.91,3.99,132.736,530.944,-905.728
99.552,488.976,-870.592,3.57,-7.98,3.92,132.736,546.56,-921.344
97.6,496.296,-872.544,3.64,-8.05,3.78,140.544,546.56,-905.728
99.552,503.616,-873.032,3.57,-8.19,3.57,117.12,577.792,-897.92
101.016,511.912,-871.568,3.29,-8.26,3.71,101.504,569.984,-921.344
103.456,518.256,-871.08,3.15,-8.4,3.78,132.736,569.984,-890.112
106.872,521.672,-869.128,2.8,-8.54,3.85,124.928,569.984,-905.728
110.776,523.136,-868.64,2.45,-8.54,4.06,163.968,546.56,-890.112
114.68,522.648,-868.152,2.03,-8.54,4.2,148.352,577.792,-905.728
114.68,519.232,-869.128,1.54,-8.54,4.34,140.544,562.176,-905.728
119.56,514.84,-869.616,0.91,-8.33,4.27,163.968,569.984,-882.304
121.512,509.472,-869.616,0.35,-8.19,4.27,156.16,554.368,-897.92
123.464,504.104,-872.544,-0.14,-8.05,4.27,163.968,546.56,-913.536
122.488,499.224,-871.568,-0.56,-7.84,4.27,179.584,538.752,-913.536
120.536,494.832,-870.592,-0.7,-7.7,4.2,156.16,562.176,-897.92
119.56,488.976,-867.664,-0.91,-7.7,4.27,148.352,562.176,-905.728
117.608,484.584,-864.248,-0.98,-7.56,4.2,163.968,507.52,-913.536
117.12,479.216,-862.784,-0.98,-7.56,4.13,148.352,523.136,-874.496
115.656,475.8,-861.808,-0.91,-7.63,4.13,117.12,523.136,-890.112
115.656,472.872,-862.784,-0.98,-7.56,3.99,148.352,538.752,-890.112
115.168,470.92,-866.2,-0.91,-7.49,3.92,140.544,515.328,-897.92
113.216,469.456,-868.152,-0.56,-7.42,3.92,140.544,515.328,-905.728
112.728,470.92,-871.568,-0.35,-7.42,3.85,117.12,523.136,-897.92
111.752,469.456,-871.568,0.14,-7.56,3.92,156.16,523.136,-905.728
112.728,469.944,-874.008,0.63,-7.56,3.92,132.736,515.328,-913.536
112.24,471.408,-873.52,1.05,-7.63,4.06,124.928,530.944,-890.112
110.776,472.872,-873.52,1.33,-7.49,4.06,140.544,530.944,-905.728
111.752,475.8,-872.544,1.26,-7.42,3.92,140.544,523.136,-913.536
109.312,479.704,-872.544,1.12,-7.42,3.85,132.736,538.752,-913.536
108.824,483.12,-872.056,0.91,-7.42,3.64,148.352,530.944,-905.728
109.312,486.048,-867.176,0.63,-7.49,3.5,132.736,530.944,-897.92
107.848,492.88,-866.2,0.49,-7.42,3.36,171.776,554.368,-905.728
108.336,499.224,-863.76,0.28,-7.28,3.29,148.352,538.752,-897.92
109.312,505.08,-864.248,0.07,-7.35,3.15,132.736,554.368,-913.536
110.776,508.496,-865.224,-0.28,-7.21,3.15,140.544,577.792,-897.92
110.288,513.376,-866.2,-0.63,-7.28,3.15,148.352,562.176,-890.112
110.776,514.84,-867.176,-1.19,-7.21,3.15,132.736,562.176,-905.728
113.704,515.328,-869.128,-1.47,-7.0,3.22,124.928,546.56,-890.112
112.728,509.96,-868.64,-1.68,-6.79,3.36,148.352,569.984,-905.728
113.704,505.08,-869.128,-1.82,-6.58,3.5,148.352,546.56,-882.304
112.24,498.736,-867.176,-1.96,-6.44,3.5,124.928,554.368,-897.92
110.288,490.928,-869.128,-2.1,-6.16,3.57,148.352,569.984,-905.728
109.8,483.12,-869.616,-2.03,-5.95,3.64,140.544,515.328,-905.728
105.896,475.8,-869.616,-2.1,-5.81,3.5,101.504,530.944,-890.112
104.92,468.968,-870.592,-1.89,-5.74,3.5,132.736,523.136,-913.536
104.432,463.6,-871.08,-1.61,-5.74,3.36,171.776,523.136,-913.536
102.968,458.72,-870.104,-1.26,-5.74,3.29,148.352,484.096,-890.112
101.992,454.816,-868.64,-0.7,-5.74,3.15,132.736,499.712,-897.92
102.968,452.864,-866.2,-0.14,-5.88,2.87,140.544,523.136,-897.92
102.48,451.4,-864.248,0.56,-6.09,2.8,140.544,515.328,-905.728
105.896,454.816,-864.736,1.19,-6.3,2.66,140.544,491.904,-897.92
106.872,453.84,-864.736,1.89,-6.3,2.52,132.736,515.328,-882.304
109.8,457.256,-865.712,2.66,-6.23,2.38,148.352,499.712,-882.304
112.728,462.136,-871.568,3.15,-6.09,2.45,132.736,538.752,-897.92
112.24,467.016,-874.984,3.64,-6.02,2.45,148.352,523.136,-905.728
112.24,471.896,-877.912,3.99,-5.88,2.45,148.352,538.752,-897.92
113.704,473.36,-877.424,4.2,-6.02,2.52,179.584,515.328,-897.92
112.728,474.824,-880.352,4.41,-5.88,2.38,148.352,523.136,-905.728
108.336,479.216,-878.4,4.55,-5.88,2.1,124.928,546.56,-921.344
105.896,484.584,-874.496,4.62,-5.95,1.89,148.352,538.752,-897.92
107.848,485.56,-876.448,4.62,-6.16,1.96,140.544,562.176,-921.344
110.288,487.024,-872.544,4.69,-6.51,2.03,124.928,530.944,-913.536
111.264,487.024,-871.08,4.83,-6.65,2.31,132.736,546.56,-882.304
115.168,484.584,-874.008,4.97,-6.79,2.45,132.736,546.56,-921.344
117.12,482.632,-873.032,5.04,-6.79,2.52,124.928,546.56,-905.728
121.024,479.216,-868.152,5.11,-6.65,2.52,156.16,523.136,-921.344
119.072,476.288,-865.224,4.97,-6.58,2.45,156.16,530.944,-913.536
120.048,475.312,-864.248,4.76,-6.58,2.24,163.968,546.56,-890.112
121.024,474.336,-864.248,4.69,-6.51,2.1,132.736,530.944,-921.344
121.024,473.848,-862.296,4.69,-6.3,1.96,148.352,515.328,-890.112
121.512,473.36,-860.344,4.76,-6.3,1.75,163.968,515.328,-897.92
119.56,473.36,-860.832,4.76,-6.09,1.47,140.544,554.368,-874.496
117.12,473.36,-860.344,4.9,-6.09,1.33,148.352,499.712,-913.536
114.68,472.384,-860.344,5.04,-5.88,1.26,163.968,530.944,-890.112
113.216,470.92,-859.856,5.18,-5.88,1.26,140.544,523.136,-890.112
111.752,467.992,-859.856,5.46,-5.74,1.33,140.544,538.752,-905.728
110.776,466.528,-858.392,5.74,-5.81,1.33,124.928,530.944,-882.304
108.824,462.624,-859.368,6.02,-5.67,1.47,148.352,523.136,-890.112
106.384,460.672,-860.832,6.23,-5.74,1.4,124.928,499.712,-897.92
104.432,459.696,-859.856,6.3,-5.53,1.4,140.544,499.712,-897.92
100.528,460.672,-857.416,6.44,-5.53,1.19,140.544,507.52,-890.112
100.04,461.16,-859.856,6.51,-5.46,1.05,117.12,499.712,-905.728
98.088,463.112,-858.88,6.44,-5.53,0.98,132.736,523.136,-921.344
98.088,464.088,-861.808,6.51,-5.6,0.77,109.312,499.712,-890.112
98.576,467.992,-863.272,6.58,-5.53,0.77,124.928,523.136,-921.344
101.016,469.944,-865.712,6.65,-5.6,0.84,148.352,523.136,-921.344
100.04,470.432,-865.712,6.72,-5.6,0.98,132.736,523.136,-890.112
101.016,469.456,-863.272,6.86,-5.67,1.19,132.736,507.52,-890.112
100.04,467.504,-860.344,6.93,-5.6,1.19,117.12,515.328,-897.92
99.064,466.528,-859.368,7.0,-5.74,1.26,117.12,499.712,-890.112
101.016,464.576,-859.368,7.0,-5.88,1.19,148.352,499.712,-866.688
102.48,464.088,-859.368,7.14,-5.88,1.12,132.736,530.944,-882.304
102.968,462.624,-862.296,7.21,-5.81,0.91,148.352,523.136,-890.112
101.992,464.088,-864.248,7.42,-5.81,0.77,101.504,523.136,-890.112
101.504,468.968,-867.176,7.63,-5.74,0.63,132.736,530.944,-897.92
100.528,471.896,-873.52,7.7,-5.88,0.49,124.928,530.944,-874.496
101.992,476.776,-875.472,7.98,-5.88,0.49,156.16,538.752,-905.728
100.528,483.608,-877.424,8.12,-5.88,0.49,140.544,523.136,-913.536
99.552,488.976,-877.424,8.19,-5.81,0.49,124.928,530.944,-905.728
98.576,496.784,-877.424,8.19,-6.02,0.56,124.928,538.752,-897.92
98.576,501.664,-879.376,8.19,-6.09,0.56,124.928,569.984,-913.536
99.552,506.056,-881.816,8.05,-6.09,0.77,132.736,562.176,-913.536
100.528,510.936,-883.28,7.84,-6.16,0.91,117.12,554.368,-929.152
100.04,514.84,-888.16,7.63,-5.95,1.19,109.312,562.176,-913.536
99.552,518.256,-892.064,7.35,-5.81,1.4,132.736,562.176,-929.152
97.6,520.696,-893.04,7.0,-5.88,1.54,93.696,562.176,-913.536
98.576,521.184,-894.992,6.51,-6.02,1.89,140.544,554.368,-929.152
97.6,520.208,-895.48,5.88,-6.09,2.38,140.544,577.792,-929.152
95.648,521.184,-895.48,5.39,-6.23,2.24,132.736,569.984,-929.152
97.112,520.208,-894.992,4.83,-6.16,2.17,132.736,585.6,-921.344
98.576,520.208,-894.504,4.34,-6.37,2.1,101.504,562.176,-913.536
99.064,521.184,-892.552,3.78,-6.44,2.03,140.544,554.368,-921.344
99.552,522.648,-890.112,3.15,-6.44,2.1,140.544,562.176,-936.96
100.528,522.648,-885.72,2.45,-6.37,2.1,132.736,554.368,-929.152
100.528,521.184,-880.84,1.75,-6.44,2.31,148.352,562.176,-921.344
102.968,519.232,-879.376,1.19,-6.44,2.45,148.352,554.368,-913.536
104.92,517.28,-875.472,0.56,-6.37,2.66,140.544,562.176,-897.92
103.944,512.888,-869.616,-0.21,-6.44,2.8,124.928,562.176,-905.728
103.944,508.496,-863.272,-0.91,-6.37,2.8,140.544,577.792,-897.92
102.48,505.568,-854.0,-1.54,-6.3,2.66,109.312,569.984,-890.112
102.968,501.664,-847.656,-2.31,-6.23,2.52,109.312,538.752,-882.304
101.504,500.688,-846.192,-2.94,-6.09,2.31,124.928,554.368,-866.688
98.576,500.2,-845.216,-3.43,-6.02,2.17,156.16,577.792,-897.92
96.136,498.248,-845.704,-3.85,-5.88,2.17,109.312,530.944,-874.496
93.696,497.272,-843.752,-4.2,-5.81,2.17,148.352,538.752,-897.92
92.232,494.344,-848.144,-4.41,-5.81,2.24,124.928,577.792,-866.688
91.744,488.488,-851.072,-4.55,-5.74,2.38,124.928,523.136,-890.112
93.696,480.68,-853.024,-4.41,-5.6,2.59,124.928,546.56,-897.92
90.768,473.36,-853.024,-4.41,-5.6,2.59,140.544,507.52,-905.728
90.768,462.136,-853.512,-4.2,-5.46,2.73,109.312,523.136,-866.688
89.304,453.352,-853.024,-3.92,-5.39,2.8,124.928,468.48,-874.496
86.376,442.128,-849.608,-3.5,-5.25,2.73,101.504,507.52,-874.496
86.376,434.808,-846.192,-3.08,-5.25,2.66,132.736,468.48,-858.88
84.912,427.976,-847.656,-2.52,-5.11,2.45,109.312,515.328,-874.496
84.424,422.608,-854.0,-1.82,-5.04,2.24,109.312,491.904,-890.112
83.936,419.192,-858.88,-1.12,-4.9,2.1,124.928,468.48,-905.728
83.936,419.68,-864.736,-0.14,-4.76,2.1,101.504,484.096,-882.304
85.4,419.192,-872.056,0.98,-4.62,2.03,124.928,468.48,-921.344
86.376,417.728,-876.936,1.89,-4.55,2.1,117.12,468.48,-905.728
88.816,417.728,-879.864,2.94,-4.55,1.96,124.928,452.864,-913.536
89.304,422.608,-886.696,3.92,-4.34,1.89,124.928,491.904,-921.344
91.256,427.0,-894.992,4.76,-4.13,1.82,124.928,460.672,-936.96
92.72,436.272,-907.68,5.46,-3.71,1.96,132.736,491.904,-913.536
92.72,444.568,-918.416,6.16,-3.5,1.96,117.12,491.904,-952.576
92.72,455.304,-928.664,6.79,-3.22,2.24,132.736,523.136,-960.384
93.696,468.48,-937.448,7.21,-3.08,2.59,124.928,530.944,-960.384
96.624,480.192,-943.304,7.63,-2.8,2.8,93.696,538.752,-991.616
97.112,490.44,-949.16,7.42,-2.59,2.94,132.736,554.368,-1007.232
95.16,499.224,-949.16,7.28,-2.38,2.94,140.544,562.176,-991.616
94.184,513.376,-949.648,6.86,-2.45,2.8,101.504,569.984,-983.808
98.576,520.208,-947.208,6.37,-2.87,2.8,140.544,585.6,-976.0
106.872,524.112,-940.864,5.81,-2.87,3.36,132.736,554.368,-983.808
106.384,529.48,-931.592,5.25,-2.38,3.99,140.544,569.984,-952.576
101.016,533.384,-921.344,4.62,-2.1,4.34,124.928,593.408,-960.384
101.504,535.824,-915.976,3.78,-2.45,4.27,132.736,593.408,-944.768
102.968,538.264,-911.096,2.87,-2.45,3.99,109.312,577.792,-968.192
102.48,539.728,-911.096,1.75,-2.31,3.78,109.312,593.408,-913.536
101.992,540.216,-904.752,0.7,-2.24,3.5,140.544,601.216,-929.152
101.992,539.24,-899.384,-0.35,-2.24,3.43,140.544,585.6,-936.96
102.968,539.728,-890.112,-1.26,-2.17,3.43,148.352,616.832,-913.536
104.432,535.824,-881.816,-1.96,-2.1,3.57,140.544,601.216,-921.344
102.968,531.432,-874.496,-2.45,-2.1,3.71,117.12,585.6,-905.728
102.48,526.064,-867.664,-2.87,-1.96,4.13,124.928,577.792,-890.112
101.016,518.744,-863.272,-3.22,-1.89,4.34,93.696,562.176,-882.304
101.016,508.984,-859.368,-3.5,-1.61,4.55,109.312,569.984,-905.728
99.064,497.272,-862.296,-3.78,-1.47,4.69,132.736,538.752,-897.92
97.6,485.072,-863.272,-4.13,-1.4,4.69,124.928,538.752,-882.304
95.16,475.312,-861.808,-4.2,-1.19,4.76,124.928,530.944,-890.112
92.232,466.528,-862.784,-4.27,-1.05,4.83,117.12,523.136,-890.112
90.28,460.672,-862.296,-4.48,-1.05,4.69,109.312,515.328,-905.728
88.328,459.208,-860.344,-4.41,-1.12,4.55,117.12,515.328,-913.536
86.376,457.256,-862.784,-4.2,-1.05,4.48,140.544,499.712,-897.92
86.376,456.28,-868.152,-3.99,-1.12,4.27,132.736,507.52,-897.92
87.84,455.792,-870.104,-3.57,-1.05,4.27,124.928,515.328,-905.728
89.792,452.864,-874.008,-2.87,-1.12,4.2,93.696,523.136,-905.728
91.256,451.4,-877.424,-2.24,-1.12,4.27,132.736,538.752,-905.728
95.16,448.472,-882.304,-1.47,-1.19,4.34,132.736,491.904,-944.768
99.552,443.592,-886.208,-0.77,-1.19,4.41,132.736,468.48,-921.344
101.504,440.176,-894.016,-0.21,-0.98,4.41,140.544,484.096,-929.152
102.968,435.784,-901.824,0.21,-0.77,4.34,124.928,499.712,-936.96
105.408,435.784,-909.144,0.42,-0.63,4.13,117.12,476.288,-952.576
103.944,434.32,-915.488,0.7,-0.49,3.99,140.544,484.096,-952.576
106.384,433.832,-918.416,0.91,-0.35,3.85,148.352,491.904,-952.576
106.872,434.808,-918.416,1.4,-0.28,3.57,124.928,491.904,-944.768
107.848,436.272,-919.88,1.82,-0.28,3.36,132.736,460.672,-936.96
110.776,442.616,-921.344,2.38,-0.28,3.15,132.736,491.904,-944.768
112.24,449.448,-922.808,2.87,-0.07,3.22,148.352,499.712,-944.768
114.192,455.304,-926.712,3.15,0.07,3.22,140.544,507.52,-960.384
115.656,460.672,-931.104,3.36,0.14,3.43,132.736,538.752,-983.808
118.096,465.552,-940.376,3.64,0.21,3.64,148.352,530.944,-976.0
120.536,465.064,-942.328,3.78,0.35,3.71,163.968,507.52,-983.808
121.512,463.6,-940.864,4.13,0.56,3.85,148.352,507.52,-960.384
125.904,462.624,-936.472,4.34,0.63,3.92,140.544,491.904,-952.576
125.904,459.696,-928.176,4.2,0.91,3.92,163.968,523.136,-968.192
124.928,457.744,-924.76,4.13,1.26,3.85,163.968,523.136,-944.768
122.0,456.28,-915.0,3.85,1.4,3.71,171.776,499.712,-929.152
117.608,457.256,-907.68,3.78,1.68,3.71,156.16,523.136,-944.768
113.704,460.672,-901.824,3.78,1.61,3.64,132.736,507.52,-936.96
109.312,463.6,-893.04,4.13,1.54,3.64,124.928,507.52,-929.152
105.896,469.456,-883.768,4.34,1.4,3.64,140.544,523.136,-913.536
102.968,473.36,-874.496,4.62,1.26,3.71,140.544,499.712,-897.92
102.968,477.752,-867.176,5.04,1.12,3.78,124.928,530.944,-905.728
101.504,480.192,-858.392,5.32,0.91,3.92,124.928,523.136,-874.496
100.04,478.728,-851.072,5.81,0.84,4.06,109.312,515.328,-866.688
98.088,476.776,-843.752,6.23,0.63,4.2,156.16,523.136,-897.92
97.6,475.8,-831.552,6.72,0.35,4.2,140.544,523.136,-858.88
95.648,475.312,-817.888,7.0,0.21,4.34,124.928,523.136,-866.688
94.672,476.288,-804.224,7.21,0.21,4.41,101.504,507.52,-835.456
91.256,478.24,-793.0,7.42,0.07,4.34,101.504,538.752,-804.224
90.768,481.656,-787.632,7.63,-0.07,4.27,124.928,515.328,-804.224
89.792,485.56,-785.192,7.91,-0.28,4.2,101.504,515.328,-796.416
87.352,483.608,-783.728,8.19,-0.35,3.92,132.736,538.752,-812.032
78.568,494.344,-781.288,8.54,-0.42,3.43,85.888,546.56,-796.416
74.664,510.936,-775.92,8.47,-0.98,3.15,93.696,562.176,-796.416
80.52,515.816,-779.824,8.12,-1.68,3.43,101.504,577.792,-835.456
84.912,517.768,-783.728,7.77,-1.82,3.92,140.544,569.984,-819.84
89.304,521.184,-786.656,7.56,-1.61,4.62,101.504,562.176,-812.032
87.84,519.72,-783.728,7.21,-1.33,5.11,132.736,562.176,-843.264
85.4,517.768,-782.752,6.58,-1.26,6.02,109.312,554.368,-819.84
85.888,514.84,-786.168,5.88,-1.47,6.37,85.888,585.6,-827.648
83.448,513.376,-791.048,5.18,-1.4,6.23,109.312,562.176,-835.456
79.544,510.448,-796.416,4.34,-1.33,5.88,101.504,546.56,-835.456
78.568,505.08,-804.224,3.36,-1.47,5.6,101.504,538.752,-835.456
76.128,503.128,-810.08,2.45,-1.61,5.39,70.272,569.984,-827.648
79.056,503.128,-816.424,1.47,-1.82,5.18,117.12,546.56,-835.456
82.96,502.152,-827.648,0.49,-2.03,4.97,101.504,546.56,-858.88
84.424,501.664,-836.432,-0.49,-2.03,4.76,109.312,562.176,-874.496
88.328,502.152,-850.096,-1.4,-2.1,4.55,124.928,569.984,-890.112
88.328,502.64,-860.344,-1.96,-2.1,4.55,93.696,569.984,-913.536
89.792,502.64,-871.08,-2.45,-2.17,4.48,124.928,569.984,-897.92
91.256,499.224,-878.4,-2.73,-2.31,4.55,109.312,546.56,-921.344
90.28,496.296,-883.768,-3.01,-2.45,4.55,117.12,538.752,-897.92
92.72,493.368,-890.112,-3.15,-2.59,4.55,101.504,546.56,-913.536
92.72,486.536,-893.04,-3.43,-2.73,4.62,117.12,530.944,-921.344
94.184,479.216,-894.504,-3.78,-2.66,4.62,132.736,538.752,-929.152
94.184,473.36,-894.992,-4.13,-2.73,4.48,124.928,499.712,-944.768
94.672,465.552,-894.992,-4.62,-2.8,4.13,124.928,530.944,-929.152
94.672,462.136,-892.064,-4.97,-2.73,3.92,117.12,523.136,-936.96
92.232,457.744,-882.792,-5.18,-2.73,3.5,93.696,507.52,-913.536
91.256,456.768,-874.008,-5.53,-2.8,3.22,109.312,499.712,-921.344
89.304,456.768,-867.664,-5.74,-3.01,3.01,117.12,507.52,-882.304
87.352,460.184,-859.368,-5.81,-3.01,2.73,117.12,515.328,-890.112
84.424,461.16,-854.0,-6.02,-3.22,2.45,85.888,515.328,-897.92
84.912,462.136,-851.072,-6.09,-3.36,2.24,109.312,515.328,-866.688
84.912,462.624,-849.12,-6.16,-3.43,2.17,109.312,515.328,-866.688
84.424,462.136,-848.632,-6.02,-3.5,2.1,109.312,530.944,-874.496
82.472,464.576,-847.168,-5.67,-3.64,2.03,109.312,507.52,-913.536
82.96,463.112,-848.144,-5.39,-3.57,1.89,109.312,530.944,-897.92
81.008,462.624,-846.192,-4.9,-3.64,1.96,85.888,515.328,-874.496
78.08,462.136,-849.12,-4.27,-3.85,2.1,101.504,507.52,-905.728
77.592,460.672,-849.12,-3.64,-3.85,2.24,109.312,499.712,-866.688
76.128,460.672,-849.12,-2.87,-4.13,2.31,93.696,499.712,-882.304
75.64,459.696,-847.168,-2.17,-4.27,2.38,101.504,491.904,-890.112
75.64,458.232,-847.656,-1.26,-4.48,2.45,101.504,499.712,-882.304
76.616,456.768,-846.192,-0.56,-4.55,2.38,117.12,491.904,-905.728
77.592,455.792,-848.144,0.07,-4.76,2.38,93.696,523.136,-866.688
76.616,453.84,-847.168,0.7,-4.76,2.31,101.504,484.096,-866.688
78.568,452.376,-849.12,1.4,-4.76,2.31,93.696,491.904,-874.496
80.52,451.4,-850.584,2.03,-4.76,2.38,101.504,499.712,-905.728
81.008,450.424,-852.536,2.66,-4.9,2.59,109.312,499.712,-905.728
80.032,447.008,-854.488,3.43,-4.97,2.73,124.928,499.712,-882.304
82.472,445.544,-860.344,4.13,-5.04,2.87,85.888,484.096,-905.728
82.472,441.152,-864.736,4.83,-5.18,2.94,117.12,499.712,-890.112
82.96,439.688,-872.544,5.53,-5.32,3.01,109.312,484.096,-882.304
85.4,436.76,-876.936,6.09,-5.46,3.08,109.312,491.904,-913.536
85.888,431.392,-881.816,6.51,-5.6,2.94,132.736,460.672,-921.344
89.792,426.512,-888.648,7.07,-5.6,2.87,85.888,484.096,-913.536
88.816,420.656,-887.184,7.63,-5.6,2.66,109.312,460.672,-913.536
89.304,420.656,-886.208,8.54,-5.81,2.59,132.736,484.096,-913.536
91.744,418.704,-885.72,9.24,-5.95,2.52,140.544,468.48,-921.344
91.256,419.192,-886.208,9.94,-5.88,2.59,109.312,476.288,-921.344
88.816,420.168,-884.744,10.99,-5.81,2.8,140.544,445.056,-921.344
88.328,423.584,-888.648,12.04,-5.95,3.08,109.312,499.712,-921.344
89.304,427.0,-889.136,12.88,-6.37,3.29,124.928,476.288,-921.344
90.768,431.88,-886.696,13.79,-6.58,3.5,101.504,460.672,-921.344
90.768,435.784,-882.792,14.63,-6.65,3.71,117.12,491.904,-905.728
91.744,440.664,-879.864,15.19,-6.72,3.99,140.544,507.52,-897.92
91.256,447.496,-878.4,15.61,-6.86,3.92,132.736,515.328,-913.536
89.304,456.28,-877.912,15.82,-6.93,3.99,124.928,523.136,-929.152
87.84,466.528,-875.472,15.89,-6.93,3.71,109.312,530.944,-929.152
86.376,478.24,-872.544,15.89,-7.07,3.64,117.12,523.136,-905.728
84.912,490.928,-865.712,15.68,-7.21,3.43,109.312,554.368,-890.112
81.496,506.544,-858.392,15.47,-7.35,3.36,101.504,554.368,-890.112
79.544,520.696,-853.024,15.05,-7.56,3.36,101.504,585.6,-882.304
78.568,532.896,-843.264,14.49,-7.77,3.5,101.504,569.984,-890.112
77.592,543.144,-833.504,14.14,-8.19,3.71,101.504,616.832,-874.496
78.568,549.976,-827.648,13.72,-8.54,4.27,101.504,601.216,-874.496
78.568,553.392,-821.304,13.16,-8.75,4.69,85.888,601.216,-858.88
77.592,551.44,-814.472,12.6,-8.89,5.25,132.736,601.216,-843.264
78.08,549.488,-813.984,11.69,-8.96,5.6,117.12,616.832,-851.072
76.616,544.608,-813.984,10.57,-8.96,5.88,101.504,601.216,-866.688
73.688,537.776,-815.448,9.52,-9.03,5.88,109.312,585.6,-858.88
71.248,530.456,-817.888,8.4,-9.03,5.95,85.888,601.216,-874.496
66.856,522.648,-823.744,7.21,-9.1,5.81,85.888,562.176,-866.688
65.88,516.792,-830.088,5.95,-9.17,5.81,93.696,569.984,-866.688
62.952,511.912,-838.872,4.9,-9.38,5.74,85.888,569.984,-866.688
62.952,508.008,-844.24,3.85,-9.52,5.74,70.272,562.176,-874.496
61.488,505.568,-856.928,2.66,-9.52,5.74,78.08,562.176,-890.112
61.488,505.08,-868.152,1.75,-9.73,5.67,78.08,577.792,-913.536
62.464,504.104,-875.96,0.7,-9.87,5.67,78.08,554.368,-921.344
62.952,502.152,-883.28,-0.07,-10.01,5.67,93.696,585.6,-936.96
65.392,502.152,-887.672,-0.84,-10.15,5.53,85.888,530.944,-921.344
65.88,503.616,-893.04,-1.54,-10.29,5.46,85.888,546.56,-929.152
68.808,504.104,-898.896,-2.24,-10.36,5.32,93.696,554.368,-929.152
70.76,504.592,-904.752,-2.8,-10.22,5.18,109.312,546.56,-929.152
72.712,502.152,-906.704,-3.29,-10.29,5.25,101.504,562.176,-936.96
75.152,499.224,-908.168,-3.57,-10.36,5.39,124.928,530.944,-952.576
76.128,495.808,-907.68,-3.78,-10.43,5.6,109.312,546.56,-944.768
78.08,490.44,-905.728,-3.85,-10.43,5.74,101.504,546.56,-929.152
80.52,484.584,-906.704,-3.78,-10.22,5.95,101.504,546.56,-944.768
82.472,476.288,-909.144,-3.5,-10.43,6.09,101.504,538.752,-921.344
82.472,469.944,-907.68,-3.22,-10.43,6.09,78.08,499.712,-936.96
83.936,463.112,-908.656,-3.01,-10.5,6.02,109.312,499.712,-929.152
83.936,458.232,-909.632,-2.87,-10.29,6.02,117.12,499.712,-921.344
84.424,453.352,-909.144,-2.59,-10.22,5.95,140.544,491.904,-921.344
82.472,448.96,-904.752,-2.31,-10.15,5.88,140.544,484.096,-929.152
81.984,444.08,-904.264,-1.89,-10.01,5.81,124.928,476.288,-944.768
81.984,440.176,-897.432,-1.54,-10.08,5.95,109.312,491.904,-944.768
80.52,435.784,-892.552,-1.05,-10.08,5.81,109.312,476.288,-936.96
80.032,429.928,-887.672,-0.77,-10.15,5.88,93.696,468.48,-913.536
80.52,425.048,-885.232,-0.35,-10.15,5.88,132.736,476.288,-921.344
79.056,423.096,-881.816,0.14,-10.15,5.74,117.12,476.288,-913.536
77.592,419.68,-881.816,0.49,-10.08,5.53,93.696,460.672,-890.112
77.592,416.264,-878.888,0.84,-10.08,5.46,117.12,452.864,-913.536
78.08,414.8,-874.496,1.19,-10.15,5.25,78.08,460.672,-905.728
78.08,411.872,-872.544,1.54,-10.22,5.11,117.12,460.672,-890.112
77.104,412.848,-867.664,2.17,-10.22,4.97,93.696,484.096,-897.92
78.08,411.872,-862.296,2.66,-10.22,4.83,85.888,452.864,-921.344
77.592,412.848,-859.856,3.15,-10.22,4.69,109.312,437.248,-897.92
76.616,415.776,-857.904,3.57,-10.29,4.55,101.504,499.712,-890.112
76.128,418.704,-854.976,3.99,-10.15,4.48,93.696,468.48,-874.496
74.176,421.632,-851.072,4.41,-10.15,4.41,78.08,484.096,-890.112
72.224,426.512,-848.632,4.9,-10.15,4.34,101.504,468.48,-890.112
69.784,433.832,-845.216,5.39,-10.15,4.2,93.696,491.904,-866.688
69.784,437.736,-842.776,5.88,-10.29,4.13,101.504,484.096,-882.304
68.808,444.08,-841.8,6.3,-10.29,3.99,101.504,484.096,-851.072
66.856,448.96,-843.264,6.51,-10.5,3.92,101.504,499.712,-882.304
66.368,453.352,-843.264,6.79,-10.57,3.99,85.888,499.712,-874.496
66.368,457.744,-843.264,6.93,-10.64,3.99,78.08,546.56,-890.112
63.44,464.576,-846.68,7.14,-10.71,3.85,93.696,515.328,-866.688
64.904,468.968,-849.12,7.14,-10.85,3.92,124.928,523.136,-874.496
63.44,473.36,-853.512,7.21,-10.92,3.99,101.504,515.328,-890.112
61.0,475.8,-854.488,7.21,-10.92,4.06,85.888,523.136,-890.112
59.536,480.68,-856.44,7.14,-10.99,4.06,78.08,523.136,-882.304
57.584,484.584,-859.856,7.07,-11.13,4.13,101.504,530.944,-905.728
58.56,487.024,-863.76,6.72,-11.13,4.2,85.888,554.368,-882.304
56.608,489.464,-866.688,6.3,-11.06,4.2,78.08,546.56,-905.728
56.12,491.904,-871.568,6.02,-11.06,4.2,85.888,530.944,-913.536
55.632,494.832,-879.376,5.53,-11.06,4.2,78.08,546.56,-913.536
53.68,497.76,-889.624,5.18,-11.06,4.27,70.272,546.56,-913.536
53.192,498.736,-894.992,4.97,-11.27,4.34,62.464,538.752,-960.384
54.656,498.248,-898.896,4.76,-11.34,4.41,78.08,554.368,-921.344
55.144,500.2,-900.36,4.48,-11.55,4.34,78.08,546.56,-929.152
56.12,499.712,-901.336,4.06,-11.62,4.27,46.848,562.176,-921.344
57.096,498.736,-901.336,3.64,-11.69,4.13,93.696,554.368,-921.344
58.072,495.32,-901.336,3.01,-11.9,3.92,93.696,538.752,-929.152
61.488,494.832,-897.92,2.52,-11.83,3.78,101.504,523.136,-944.768
61.976,495.32,-897.432,1.96,-11.83,3.64,109.312,538.752,-929.152
61.488,495.32,-894.504,1.33,-11.9,3.43,78.08,546.56,-921.344
62.464,496.784,-891.576,0.84,-12.04,3.29,78.08,538.752,-929.152
61.0,498.736,-888.648,0.49,-12.04,3.15,70.272,546.56,-929.152
61.976,499.224,-886.696,0.0,-12.11,2.94,85.888,546.56,-905.728
59.536,499.224,-883.28,-0.28,-12.11,2.94,70.272,546.56,-936.96
59.048,498.736,-880.84,-0.7,-12.11,2.87,93.696,530.944,-921.344
55.632,496.296,-874.984,-0.91,-12.18,3.01,85.888,546.56,-921.344
52.216,491.416,-871.08,-1.26,-12.25,2.94,93.696,546.56,-905.728
49.776,487.024,-868.152,-1.61,-12.39,2.94,78.08,530.944,-890.112
48.8,481.168,-865.224,-1.89,-12.6,2.87,62.464,538.752,-874.496
46.36,474.336,-864.248,-2.17,-12.6,2.66,85.888,523.136,-913.536
43.92,468.48,-860.344,-2.45,-12.81,2.45,70.272,546.56,-890.112
40.016,465.552,-857.904,-2.52,-13.02,2.24,70.272,530.944,-890.112
38.064,465.064,-855.464,-2.66,-13.23,1.89,39.04,523.136,-897.92
35.136,463.6,-849.608,-2.87,-13.51,1.61,54.656,538.752,-874.496
34.16,465.552,-845.704,-2.94,-13.79,1.33,54.656,499.712,-905.728
30.256,466.528,-842.288,-3.08,-14.07,1.19,62.464,484.096,-890.112
26.84,470.432,-838.384,-3.22,-14.21,0.84,46.848,538.752,-866.688
24.888,472.872,-832.04,-3.36,-14.49,0.63,39.04,523.136,-835.456
20.984,477.264,-827.648,-3.64,-14.7,0.42,46.848,523.136,-858.88
16.104,480.192,-824.232,-3.85,-14.84,0.21,31.232,538.752,-866.688
9.76,483.608,-820.816,-4.06,-15.26,-0.14,46.848,530.944,-843.264
2.44,485.072,-816.424,-4.2,-15.61,-0.21,39.04,530.944,-851.072
-5.368,486.048,-809.592,-4.55,-15.96,-0.49,31.232,530.944,-819.84
-10.248,488.0,-800.32,-4.97,-16.24,-0.7,23.424,499.712,-827.648
-15.616,487.512,-795.928,-5.25,-16.8,-0.98,23.424,530.944,-827.648
-22.936,486.048,-788.12,-5.6,-17.43,-1.33,15.616,523.136,-819.84
-27.816,485.56,-783.728,-6.23,-18.06,-1.68,7.808,538.752,-835.456
-33.672,488.0,-775.92,-6.72,-18.69,-2.03,7.808,523.136,-812.032
-37.576,489.952,-768.6,-7.28,-19.46,-2.52,-7.808,562.176,-812.032
-40.504,491.416,-761.28,-7.98,-20.16,-2.94,15.616,515.328,-788.608
-42.944,495.32,-750.056,-8.75,-21.0,-3.36,-31.232,530.944,-757.376
-45.384,500.2,-741.76,-9.59,-21.77,-3.78,-39.04,515.328,-765.184
-49.288,506.544,-730.536,-10.43,-22.54,-4.27,-15.616,569.984,-757.376
-53.68,511.912,-719.8,-11.34,-23.52,-4.69,-23.424,554.368,-726.144
-59.048,520.208,-709.552,-12.67,-24.29,-5.25,-23.424,577.792,-741.76
-62.952,528.504,-699.304,-14.0,-25.2,-5.67,-46.848,585.6,-733.952
-68.808,534.848,-685.64,-15.47,-26.18,-6.02,-23.424,601.216,-702.72
-74.664,545.584,-675.88,-17.29,-27.09,-6.44,-46.848,601.216,-718.336
-80.52,555.832,-663.192,-19.25,-28.14,-7.0,-78.08,616.832,-687.104
-86.864,564.616,-651.968,-21.35,-29.26,-7.42,-62.464,616.832,-702.72
-95.16,575.84,-636.84,-23.87,-30.45,-7.98,-54.656,624.64,-655.872
-102.968,586.088,-624.152,-26.46,-31.71,-8.47,-85.888,640.256,-648.064
-110.776,595.848,-611.464,-29.26,-32.9,-9.1,-85.888,655.872,-632.448
-118.096,605.608,-600.24,-32.55,-34.23,-9.73,-70.272,640.256,-632.448
-126.88,615.368,-587.552,-35.77,-35.7,-10.36,-117.12,671.488,-616.832
-134.688,624.152,-578.768,-39.34,-37.17,-10.99,-109.312,694.912,-601.216
-143.96,632.448,-566.08,-42.84,-38.71,-11.62,-124.928,694.912,-601.216
-152.256,639.28,-557.296,-46.76,-40.32,-12.18,-132.736,687.104,-593.408
-159.576,647.088,-546.072,-50.61,-42.07,-12.81,-117.12,710.528,-554.368
-166.896,651.968,-534.36,-54.81,-43.82,-13.3,-124.928,710.528,-554.368
-174.216,655.384,-523.136,-59.22,-45.64,-14.07,-156.16,702.72,-538.752
-180.072,657.336,-515.816,-63.77,-47.6,-14.84,-148.352,710.528,-554.368
-186.416,658.8,-512.888,-68.25,-49.49,-15.68,-171.776,694.912,-538.752
-191.296,659.288,-514.84,-72.73,-51.31,-16.52,-179.584,710.528,-546.56
-194.224,658.312,-516.304,-77.0,-53.06,-17.36,-171.776,702.72,-538.752
-198.616,657.336,-519.72,-81.27,-54.95,-18.2,-163.968,694.912,-546.56
-203.496,656.848,-523.136,-85.61,-56.84,-19.11,-179.584,710.528,-554.368
-209.352,654.408,-522.16,-89.81,-58.8,-19.88,-195.2,702.72,-538.752
-212.28,650.016,-521.184,-94.01,-60.76,-20.79,-179.584,710.528,-546.56
-215.696,644.648,-520.696,-98.49,-62.72,-21.77,-171.776,694.912,-554.368
-218.624,637.328,-518.256,-102.76,-64.54,-22.89,-195.2,710.528,-530.944
-220.576,627.568,-522.16,-106.89,-66.29,-24.08,-195.2,687.104,-562.176
-224.48,612.928,-536.8,-110.25,-67.9,-25.27,-203.008,671.488,-569.984
-224.48,597.8,-557.296,-112.91,-69.44,-26.53,-179.584,648.064,-593.408
-224.968,579.256,-584.624,-114.31,-70.7,-27.51,-187.392,609.024,-601.216
-229.36,557.784,-615.856,-115.01,-72.24,-28.0,-203.008,601.216,-648.064
-232.288,530.944,-643.184,-115.01,-73.71,-28.49,-195.2,585.6,-663.68
-233.752,499.712,-663.68,-114.8,-75.53,-28.84,-179.584,546.56,-694.912
-234.24,462.136,-675.392,-114.1,-77.14,-29.19,-226.432,499.712,-710.528
-235.704,421.632,-681.248,-113.19,-78.68,-29.82,-210.816,484.096,-694.912
-236.192,381.128,-681.736,-111.65,-80.08,-30.59,-195.2,406.016,-726.144
-240.096,342.088,-681.736,-109.41,-81.06,-31.78,-203.008,382.592,-702.72
-244.0,305.0,-681.736,-106.82,-81.76,-33.11,-210.816,343.552,-726.144
-251.32,274.744,-678.808,-103.46,-82.39,-34.51,-234.24,327.936,-718.336
-261.08,247.416,-673.44,-99.89,-83.02,-36.05,-203.008,296.704,-694.912
-270.352,227.408,-667.096,-95.9,-83.79,-37.59,-273.28,265.472,-671.488
-281.576,212.28,-659.776,-91.56,-84.56,-39.13,-242.048,265.472,-687.104
-293.776,201.544,-655.872,-87.01,-85.54,-40.53,-281.088,265.472,-687.104
-301.096,195.2,-647.576,-82.32,-86.59,-41.86,-281.088,265.472,-687.104
-310.368,192.76,-646.112,-77.63,-87.78,-42.98,-265.472,226.432,-671.488
-318.176,196.176,-642.208,-72.87,-89.04,-44.17,-335.744,257.664,-694.912
-326.472,201.056,-636.84,-68.18,-90.3,-45.01,-273.28,226.432,-663.68
-329.888,209.352,-631.472,-63.42,-91.63,-45.92,-296.704,265.472,-671.488
-336.232,221.064,-625.128,-58.73,-92.89,-46.69,-296.704,273.28,-655.872
-343.064,235.704,-616.344,-54.32,-94.08,-47.46,-359.168,288.896,-624.64
-346.48,253.272,-609.512,-50.33,-95.41,-48.16,-327.936,288.896,-632.448
-351.848,269.864,-598.776,-46.62,-96.67,-48.79,-312.32,327.936,-624.64
-354.776,289.384,-590.48,-43.47,-97.93,-49.49,-312.32,351.36,-624.64
-360.144,310.856,-582.184,-40.74,-99.19,-50.33,-327.936,390.4,-609.024
-363.56,331.84,-571.936,-38.57,-100.45,-51.1,-343.552,390.4,-601.216
-366.488,353.8,-563.64,-36.75,-101.78,-51.94,-343.552,398.208,-577.792
-368.44,375.272,-556.32,-35.7,-102.9,-52.92,-327.936,445.056,-585.6
-372.344,397.232,-549.976,-35.14,-104.02,-53.9,-366.976,452.864,-569.984
-377.712,420.168,-542.168,-35.21,-105.14,-54.81,-343.552,468.48,-569.984
-381.128,442.616,-535.824,-35.77,-106.26,-55.86,-343.552,507.52,-554.368
-386.984,463.6,-529.968,-37.1,-107.52,-56.98,-366.976,507.52,-554.368
-390.4,486.536,-526.064,-38.85,-108.5,-58.24,-366.976,546.56,-546.56
-395.28,508.496,-527.04,-41.23,-109.62,-59.29,-382.592,569.984,-554.368
-399.184,531.432,-528.504,-44.17,-110.67,-60.69,-359.168,585.6,-577.792
-403.576,551.928,-532.408,-47.6,-111.79,-61.95,-366.976,609.024,-546.56
-407.968,572.424,-544.608,-51.66,-112.84,-63.14,-398.208,640.256,-562.176
-410.896,590.968,-552.904,-56.21,-113.82,-64.61,-382.592,663.68,-585.6
-414.8,613.416,-559.248,-60.97,-115.01,-66.22,-366.976,687.104,-601.216
-421.144,635.376,-564.616,-66.57,-116.27,-67.83,-374.784,702.72,-593.408
-427.488,658.312,-568.52,-72.52,-117.53,-69.37,-398.208,733.952,-593.408
-431.88,679.296,-577.792,-79.03,-119.07,-71.26,-421.632,726.144,-593.408
-435.296,700.768,-585.6,-85.89,-120.4,-73.15,-413.824,741.76,-609.024
-439.688,721.752,-599.752,-93.03,-121.59,-75.11,-421.632,796.416,-624.64
-445.056,744.2,-610.976,-100.38,-122.92,-77.07,-421.632,796.416,-648.064
-450.424,765.184,-623.664,-108.15,-124.25,-79.03,-429.44,812.032,-648.064
-455.304,786.168,-632.936,-116.27,-125.79,-80.92,-413.824,843.264,-663.68
-461.648,803.736,-648.552,-124.6,-127.19,-82.74,-437.248,843.264,-679.296
-467.504,819.84,-658.312,-132.79,-128.73,-84.63,-437.248,858.88,-710.528
-473.36,835.944,-667.096,-141.12,-130.2,-86.24,-445.056,874.496,-710.528
-477.752,848.632,-673.44,-149.66,-132.02,-88.06,-437.248,882.304,-710.528
-480.68,858.392,-681.736,-158.27,-133.7,-89.74,-445.056,905.728,-702.72
-484.584,865.224,-682.712,-167.09,-135.38,-91.7,-460.672,921.344,-710.528
-488.976,871.568,-686.128,-175.77,-137.2,-93.73,-460.672,929.152,-702.72
-491.904,873.52,-690.52,-184.59,-138.74,-95.62,-476.288,921.344,-710.528
-493.368,873.52,-693.448,-193.13,-140.21,-97.79,-499.712,929.152,-718.336
-496.296,872.056,-695.888,-201.46,-141.61,-100.03,-460.672,913.536,-733.952
-496.784,864.736,-703.208,-209.37,-142.73,-102.06,-484.096,913.536,-710.528
-498.248,851.56,-710.04,-216.72,-143.71,-104.16,-476.288,890.112,-733.952
-500.688,834.968,-716.872,-223.23,-144.62,-106.19,-476.288,882.304,-726.144
-495.32,818.864,-726.144,-229.25,-145.95,-108.36,-476.288,858.88,-733.952
-490.44,800.32,-734.928,-234.57,-146.79,-110.32,-484.096,835.456,-772.992
-481.656,780.312,-742.248,-239.19,-147.14,-112.07,-452.864,819.84,-765.184
-472.872,752.496,-751.52,-243.46,-147.21,-113.82,-452.864,796.416,-780.8
-467.504,723.704,-756.888,-247.24,-146.72,-115.85,-468.48,765.184,-765.184
-463.6,692.96,-755.912,-250.39,-146.02,-118.09,-413.824,726.144,-804.224
-463.112,663.68,-754.936,-252.98,-145.11,-120.54,-437.248,726.144,-780.8
-460.184,634.4,-746.64,-255.22,-144.48,-122.71,-468.48,663.68,-780.8
-458.72,606.096,-732.488,-256.76,-143.64,-124.81,-421.632,640.256,-772.992
-456.768,574.864,-718.336,-257.74,-142.73,-126.84,-437.248,616.832,-726.144
-457.744,545.584,-701.256,-258.3,-141.4,-129.01,-452.864,562.176,-710.528
-458.72,518.256,-682.224,-258.58,-140.07,-131.39,-429.44,569.984,-702.72
-462.624,494.832,-665.632,-258.44,-138.6,-134.05,-437.248,554.368,-679.296
-467.016,476.288,-646.6,-258.09,-136.99,-136.78,-437.248,515.328,-687.104
-471.896,468.48,-639.28,-257.32,-135.66,-139.72,-429.44,523.136,-663.68
-475.8,461.648,-627.08,-256.34,-134.26,-142.45,-452.864,491.904,-655.872
-478.728,461.16,-618.784,-255.29,-132.79,-144.83,-460.672,515.328,-616.832
-485.56,455.792,-603.656,-253.96,-131.32,-146.93,-437.248,515.328,-632.448
-491.904,452.864,-594.872,-252.14,-129.99,-149.03,-484.096,515.328,-609.024
-497.76,444.08,-581.696,-249.69,-128.45,-151.2,-476.288,491.904,-601.216
-506.056,456.768,-575.84,-247.03,-126.98,-153.51,-499.712,499.712,-609.024
-509.472,468.48,-571.448,-245.28,-125.79,-155.96,-468.48,499.712,-593.408
-510.448,478.728,-571.936,-243.88,-124.32,-158.27,-515.328,530.944,-585.6
-515.328,499.224,-573.888,-243.04,-122.5,-160.16,-499.712,569.984,-601.216
-520.208,513.376,-581.208,-242.55,-120.47,-161.84,-484.096,554.368,-601.216
-527.04,528.504,-596.336,-242.2,-118.44,-163.45,-499.712,569.984,-616.832
-536.312,543.632,-609.024,-241.57,-116.83,-165.06,-538.752,601.216,-632.448
-543.144,560.224,-625.616,-240.52,-115.64,-166.74,-515.328,609.024,-663.68
-548.024,580.232,-636.84,-238.98,-114.73,-168.21,-523.136,648.064,-679.296
-550.952,601.704,-639.28,-237.37,-114.03,-169.47,-499.712,655.872,-655.872
-551.928,621.712,-638.792,-236.04,-113.33,-170.31,-538.752,679.296,-663.68
-556.32,636.352,-633.424,-235.06,-112.21,-171.08,-523.136,687.104,-648.064
-560.224,647.576,-626.592,-234.57,-111.3,-171.92,-499.712,687.104,-671.488
-566.08,657.824,-622.2,-234.78,-110.46,-173.11,-546.56,718.336,-663.68
-571.448,668.072,-615.856,-234.85,-109.9,-174.65,-554.368,718.336,-648.064
-573.4,684.176,-605.12,-234.78,-109.27,-176.47,-569.984,757.376,-624.64
-572.912,704.672,-601.216,-235.34,-108.57,-178.29,-554.368,749.568,-632.448
-571.448,721.264,-587.552,-236.67,-107.73,-179.69,-569.984,796.416,-609.024
-569.496,740.296,-578.768,-238.7,-106.26,-181.02,-538.752,780.8,-585.6
-576.816,762.256,-569.496,-241.08,-104.37,-182.14,-562.176,804.224,-569.984
-582.672,771.04,-556.808,-243.95,-102.83,-183.12,-562.176,812.032,-577.792
-580.232,776.408,-549.488,-246.96,-101.29,-184.1,-569.984,796.416,-577.792
-582.184,784.704,-555.832,-249.83,-99.33,-185.43,-569.984,858.88,-585.6
-583.648,797.88,-566.568,-252.49,-97.37,-186.76,-554.368,843.264,-624.64
-586.576,814.472,-574.864,-255.08,-95.41,-188.23,-546.56,882.304,-616.832
-587.552,833.992,-583.16,-257.6,-93.59,-189.56,-569.984,866.688,-601.216
-590.48,849.12,-589.992,-259.91,-91.49,-190.47,-569.984,905.728,-632.448
-594.384,867.664,-588.528,-261.87,-89.32,-190.96,-554.368,929.152,-616.832
-601.216,888.16,-579.256,-263.83,-87.22,-191.24,-577.792,936.96,-609.024
-605.608,896.456,-567.056,-265.93,-85.19,-191.17,-585.6,944.768,-593.408
-610.488,896.456,-553.88,-267.82,-82.88,-191.1,-585.6,944.768,-562.176
-608.536,890.112,-532.896,-269.29,-80.64,-191.24,-593.408,936.96,-562.176
-605.608,878.4,-518.744,-270.34,-78.33,-191.59,-562.176,929.152,-523.136
-604.632,857.416,-504.104,-271.04,-75.46,-192.08,-562.176,913.536,-515.328
-607.56,842.288,-486.536,-271.32,-72.17,-192.71,-593.408,897.92,-515.328
-613.904,827.648,-466.04,-271.6,-68.81,-193.34,-601.216,851.072,-499.712
-619.76,811.056,-452.864,-271.81,-65.73,-194.11,-585.6,874.496,-468.48
-625.128,796.904,-434.808,-271.95,-62.79,-194.88,-585.6,866.688,-460.672
-634.4,782.264,-416.264,-271.95,-59.43,-195.93,-601.216,827.648,-413.824
-643.184,765.672,-397.72,-271.6,-56.35,-196.35,-632.448,804.224,-413.824
-651.968,751.032,-384.056,-270.97,-53.76,-196.77,-609.024,796.416,-390.4
-658.8,735.416,-365.024,-270.2,-51.24,-197.05,-624.64,772.992,-366.976
-662.216,719.8,-352.824,-268.94,-48.51,-197.33,-632.448,757.376,-366.976
-668.072,710.04,-338.672,-267.4,-45.64,-197.4,-632.448,765.184,-366.976
-676.856,702.232,-325.984,-265.51,-43.05,-197.61,-632.448,757.376,-351.36
-681.248,692.96,-317.688,-263.62,-40.67,-197.82,-648.064,765.184,-335.744
-682.712,685.64,-317.2,-261.59,-38.64,-197.75,-648.064,741.76,-366.976
-683.2,678.32,-319.152,-259.28,-36.26,-197.75,-640.256,718.336,-335.744
-683.2,671.488,-320.616,-256.69,-33.67,-197.75,-663.68,726.144,-359.168
-682.712,663.192,-320.616,-253.4,-30.87,-197.68,-671.488,687.104,-359.168
-682.224,650.504,-321.592,-249.76,-28.0,-197.19,-663.68,687.104,-351.36
-680.76,639.768,-322.568,-245.77,-25.2,-196.49,-655.872,687.104,-343.552
-681.248,632.936,-323.544,-241.64,-22.19,-195.79,-671.488,655.872,-351.36
-683.2,625.128,-324.52,-237.3,-18.9,-195.16,-640.256,648.064,-351.36
-691.496,619.76,-320.128,-232.96,-15.61,-194.32,-655.872,671.488,-327.936
-695.888,617.32,-316.224,-228.34,-12.67,-193.06,-679.296,694.912,-327.936
-708.088,622.2,-307.44,-224.0,-9.94,-191.8,-694.912,694.912,-335.744
-714.432,630.008,-301.096,-220.08,-7.63,-190.75,-687.104,687.104,-320.128
-721.264,634.4,-299.144,-216.72,-5.39,-189.77,-710.528,671.488,-320.128
-728.584,646.112,-290.36,-213.64,-3.22,-189.07,-694.912,694.912,-296.704
-740.784,662.704,-283.04,-210.91,-1.12,-188.37,-694.912,702.72,-327.936
-751.032,671.976,-281.088,-208.67,0.56,-187.53,-733.952,741.76,-304.512
-752.984,679.784,-276.696,-206.29,2.1,-186.55,-726.144,726.144,-312.32
-758.352,687.592,-268.888,-203.77,3.78,-185.15,-733.952,741.76,-296.704
-763.232,692.472,-261.08,-201.04,5.46,-183.47,-733.952,733.952,-273.28
-770.064,698.328,-247.904,-198.38,6.86,-182.0,-749.568,780.8,-281.088
-774.456,699.792,-237.168,-195.86,8.33,-180.32,-718.336,749.568,-265.472
-777.872,705.16,-232.776,-193.41,9.94,-178.71,-765.184,757.376,-257.664
-781.776,703.696,-228.384,-191.03,11.62,-177.24,-765.184,765.184,-234.24
-792.024,707.112,-217.16,-188.3,13.65,-175.84,-772.992,749.568,-242.048
-801.784,704.184,-204.472,-185.64,15.54,-174.58,-772.992,765.184,-218.624
-811.056,708.576,-195.688,-182.91,17.15,-173.32,-804.224,765.184,-234.24
-815.936,705.16,-187.88,-180.25,18.41,-172.13,-796.416,765.184,-210.816
-818.376,709.064,-179.584,-177.38,19.88,-170.8,-812.032,757.376,-203.008
-825.696,714.92,-166.896,-174.65,21.63,-169.19,-780.8,765.184,-187.392
-835.944,723.704,-150.304,-171.99,23.31,-167.51,-819.84,765.184,-179.584
-841.312,730.536,-124.928,-169.54,24.64,-166.11,-835.456,765.184,-140.544
-846.192,741.76,-107.36,-166.81,26.46,-164.29,-804.224,772.992,-117.12
-854.488,750.056,-101.992,-164.01,28.63,-162.61,-827.648,812.032,-132.736
-864.736,759.328,-99.552,-160.86,30.52,-161.07,-835.456,796.416,-109.312
-877.424,769.576,-103.456,-157.71,32.27,-159.88,-858.88,812.032,-132.736
-892.064,773.48,-108.824,-154.49,33.81,-158.69,-851.072,812.032,-117.12
-909.144,782.752,-109.312,-150.99,34.93,-157.36,-897.92,835.456,-132.736
-918.416,789.096,-106.872,-147.7,35.49,-155.89,-882.304,835.456,-101.504
-923.296,796.904,-103.456,-144.48,36.19,-154.7,-890.112,858.88,-117.12
-926.224,796.904,-98.576,-141.68,36.89,-153.58,-929.152,851.072,-109.312
-928.664,796.904,-104.432,-138.81,37.94,-152.74,-944.768,827.648,-132.736
-931.104,797.88,-104.432,-136.29,38.99,-151.69,-905.728,851.072,-124.928
-933.056,793.0,-105.408,-134.05,39.76,-150.22,-905.728,835.456,-117.12
-934.032,785.68,-103.456,-131.6,40.39,-148.54,-913.536,819.84,-124.928
-933.544,775.92,-98.088,-129.29,40.81,-146.16,-921.344,835.456,-109.312
-934.032,763.232,-90.768,-126.49,41.37,-143.71,-929.152,812.032,-109.312
-934.52,758.352,-80.52,-123.48,42.07,-141.12,-890.112,812.032,-101.504
-934.52,748.592,-76.616,-120.47,42.7,-138.32,-890.112,819.84,-109.312
-937.448,743.224,-77.104,-117.32,43.26,-135.52,-929.152,788.608,-78.08
-937.936,735.416,-81.008,-114.1,43.96,-132.79,-929.152,772.992,-93.696
-946.232,731.024,-80.032,-110.6,44.94,-129.85,-929.152,788.608,-93.696
-955.504,726.632,-76.128,-107.03,45.71,-126.98,-921.344,772.992,-101.504
-967.216,728.584,-66.856,-103.32,46.06,-124.25,-944.768,796.416,-78.08
-977.464,726.632,-63.928,-99.75,46.2,-121.66,-968.192,772.992,-78.08
-984.296,730.048,-59.048,-96.25,46.27,-119.14,-952.576,796.416,-85.888
-989.176,731.024,-56.12,-92.89,46.27,-116.76,-968.192,765.184,-70.272
-992.104,731.512,-54.656,-89.39,46.13,-114.52,-991.616,780.8,-70.272
-990.152,732.488,-49.288,-86.17,46.06,-112.49,-960.384,804.224,-62.464
-990.64,728.584,-44.408,-82.88,46.41,-110.25,-944.768,765.184,-62.464
-991.128,725.168,-39.528,-79.8,46.2,-107.66,-960.384,765.184,-62.464
-987.712,719.312,-37.576,-76.65,45.92,-104.93,-976.0,765.184,-54.656
-980.88,719.312,-32.208,-73.43,45.85,-102.13,-952.576,772.992,-62.464
-978.928,717.848,-26.84,-70.49,45.78,-99.12,-960.384,772.992,-39.04
-969.656,716.384,-15.128,-67.69,45.85,-95.9,-929.152,757.376,-31.232
-961.36,717.36,-9.272,-65.1,46.41,-92.89,-952.576,796.416,-39.04
-958.432,724.68,-1.464,-62.79,47.39,-89.88,-913.536,788.608,-15.616
-959.896,732.976,2.928,-60.62,48.09,-86.8,-921.344,757.376,0.0
-957.944,744.2,1.952,-58.8,48.72,-83.86,-936.96,796.416,-31.232
-958.432,759.816,11.224,-57.19,49.21,-80.99,-905.728,819.84,-7.808
-959.896,776.896,19.032,-55.93,49.63,-78.19,-929.152,827.648,-7.808
-962.336,794.952,20.984,-54.88,49.84,-75.53,-952.576,851.072,0.0
-965.264,811.544,15.128,-54.04,49.98,-72.8,-944.768,866.688,0.0
-966.728,827.16,21.472,-53.13,49.98,-69.79,-944.768,882.304,7.808
-969.656,838.872,23.424,-52.36,49.77,-66.78,-936.96,897.92,31.232
-969.656,850.096,28.304,-51.52,49.21,-63.98,-952.576,897.92,23.424
-970.144,859.368,31.72,-50.75,48.72,-61.32,-921.344,921.344,31.232
-972.096,868.152,38.552,-50.12,48.16,-58.8,-936.96,921.344,31.232
-974.048,871.568,47.824,-49.56,47.53,-56.28,-960.384,921.344,23.424
-976.488,872.056,56.12,-48.86,46.55,-53.83,-952.576,913.536,54.656
-973.072,869.128,62.464,-47.81,45.71,-51.03,-929.152,936.96,31.232
-974.048,861.32,69.784,-46.55,44.94,-48.3,-944.768,929.152,62.464
-972.096,852.536,78.08,-44.8,44.1,-45.36,-952.576,874.496,62.464
-971.12,839.36,84.424,-42.91,43.4,-42.14,-968.192,874.496,62.464
-971.608,825.208,89.792,-41.02,42.56,-38.85,-936.96,858.88,78.08
-971.608,811.056,94.184,-38.64,41.72,-35.42,-929.152,858.88,70.272
-968.192,794.952,101.016,-36.19,40.95,-32.06,-968.192,843.264,54.656
-965.264,777.872,107.36,-33.32,40.04,-28.63,-936.96,804.224,78.08
-962.336,760.304,114.68,-30.31,39.48,-25.27,-952.576,788.608,93.696
-955.992,744.688,123.952,-27.02,38.85,-22.12,-929.152,796.416,124.928
-947.208,734.928,136.64,-23.45,38.22,-19.04,-929.152,780.8,132.736
-936.96,725.656,146.888,-19.95,37.94,-16.38,-913.536,765.184,124.928
-928.664,718.824,161.528,-16.52,37.66,-13.79,-905.728,757.376,132.736
-919.88,714.92,168.36,-13.16,37.31,-11.41,-890.112,788.608,163.968
-915.488,713.456,179.584,-9.8,37.03,-9.24,-905.728,772.992,163.968
-910.12,711.016,186.416,-6.44,36.82,-6.86,-866.688,780.8,163.968
-904.752,711.992,191.296,-3.01,36.54,-4.27,-890.112,772.992,179.584
-899.384,717.848,198.128,0.14,36.26,-1.75,-890.112,733.952,179.584
-896.456,719.8,200.568,3.22,35.91,0.7,-858.88,772.992,163.968
-894.504,724.192,202.52,6.02,35.56,3.01,-858.88,788.608,179.584
-890.112,732.0,206.424,8.68,35.28,5.18,-851.072,780.8,195.2
-882.304,738.832,208.864,10.85,34.93,7.35,-851.072,788.608,179.584
-879.864,747.128,207.4,12.53,34.58,9.45,-866.688,788.608,187.392
-873.52,755.424,203.984,14.14,34.09,11.69,-858.88,819.84,163.968
-869.128,764.208,208.376,15.26,33.32,13.65,-835.456,851.072,210.816
-864.736,773.968,209.84,16.24,32.48,15.61,-819.84,827.648,187.392
-858.88,782.264,214.232,16.87,31.64,17.71,-851.072,812.032,195.2
-851.072,791.048,213.256,17.22,30.73,19.81,-827.648,858.88,179.584
-841.312,801.296,214.232,17.5,30.1,21.91,-827.648,851.072,171.776
-834.48,810.568,212.28,17.57,29.4,24.01,-819.84,843.264,195.2
-828.136,820.328,212.28,17.15,28.84,25.83,-804.224,905.728,203.008
-824.72,829.6,217.16,16.45,28.28,27.44,-796.416,882.304,195.2
-819.84,836.92,216.672,15.54,27.86,29.05,-804.224,890.112,210.816
-818.376,848.144,212.28,14.28,27.37,30.45,-804.224,897.92,187.392
-816.912,854.0,204.472,12.46,26.81,31.71,-780.8,897.92,187.392
-816.912,860.832,199.104,10.36,26.04,33.11,-804.224,905.728,187.392
-815.936,870.592,193.248,7.91,25.34,34.51,-804.224,921.344,148.352
-813.984,877.424,190.32,5.32,24.57,35.63,-796.416,897.92,163.968
-816.912,885.232,191.296,2.38,23.8,36.61,-757.376,944.768,179.584
-812.032,891.088,187.88,-0.77,22.96,37.73,-780.8,952.576,163.968
-810.08,896.944,182.512,-4.2,22.05,38.92,-788.608,936.96,179.584
-803.248,898.896,179.584,-7.7,21.07,39.97,-765.184,936.96,163.968
-796.416,900.36,177.632,-11.48,20.3,41.16,-765.184,952.576,156.16
-790.56,895.48,174.704,-15.54,19.6,42.14,-749.568,952.576,148.352
-786.656,886.696,178.608,-19.32,18.76,43.26,-757.376,936.96,148.352
-782.752,871.08,183.0,-23.03,18.06,44.52,-765.184,929.152,163.968
-783.24,851.56,188.368,-26.46,17.22,45.64,-749.568,897.92,187.392
-781.288,832.04,197.152,-29.4,16.03,46.9,-765.184,866.688,179.584
-780.8,808.616,202.52,-32.2,14.7,48.02,-757.376,882.304,171.776
-777.872,783.24,206.912,-34.51,13.44,49.0,-772.992,812.032,171.776
-775.432,762.256,208.864,-36.26,12.46,49.98,-757.376,819.84,210.816
-777.384,740.296,208.864,-37.59,11.48,50.96,-733.952,780.8,171.776
-777.872,718.824,211.792,-38.5,10.5,52.01,-757.376,757.376,187.392
-775.92,700.28,215.696,-38.99,9.59,53.06,-733.952,733.952,203.008
-775.92,684.664,219.6,-38.99,8.68,54.32,-780.8,733.952,226.432
-777.384,671.0,227.408,-38.71,7.84,55.58,-733.952,718.336,195.2
-774.944,659.288,233.264,-38.15,7.07,56.77,-741.76,687.104,210.816
-772.016,646.112,240.096,-37.38,6.3,58.17,-741.76,679.296,226.432
-772.992,634.4,247.416,-36.19,5.88,59.5,-749.568,663.68,249.856
-773.968,622.2,252.296,-34.65,5.25,60.97,-749.568,655.872,257.664
-773.968,609.024,257.664,-32.76,4.55,62.65,-741.76,648.064,234.24
-775.432,599.752,262.544,-30.45,3.85,64.4,-757.376,663.68,234.24
-779.336,591.456,263.52,-28.07,3.15,66.15,-749.568,648.064,242.048
-785.192,588.04,264.008,-25.27,2.52,68.04,-749.568,648.064,249.856
-786.168,583.648,258.64,-22.4,1.82,69.79,-749.568,632.448,226.432
-790.56,581.696,250.344,-19.18,1.33,71.61,-765.184,640.256,234.24
-800.808,575.84,241.072,-15.82,0.77,73.15,-765.184,648.064,203.008
-813.008,565.592,223.504,-12.39,0.21,74.34,-804.224,624.64,195.2
-834.48,548.024,206.424,-8.68,-0.63,75.04,-812.032,593.408,195.2
-862.296,526.064,215.208,-4.76,-2.31,75.74,-835.456,585.6,203.008
-889.136,497.76,251.808,-0.77,-4.69,76.72,-866.688,538.752,242.048
-911.584,470.432,281.088,3.22,-7.42,77.98,-890.112,523.136,288.896
-922.808,439.2,288.896,7.56,-10.22,79.31,-890.112,460.672,265.472
-920.856,412.848,274.256,12.46,-13.02,80.71,-897.92,452.864,242.048
-912.072,388.448,256.2,17.57,-15.33,82.11,-882.304,460.672,257.664
-903.288,369.904,246.928,23.24,-16.94,83.44,-866.688,437.248,257.664
-903.288,359.168,243.512,29.05,-18.55,84.7,-874.496,398.208,226.432
-900.36,347.456,231.8,34.86,-20.23,85.89,-866.688,398.208,218.624
-895.968,338.184,218.136,40.67,-21.77,86.94,-866.688,382.592,195.2
-889.624,334.768,206.424,46.2,-23.1,87.92,-874.496,382.592,171.776
-880.84,334.28,199.104,51.1,-24.5,88.83,-858.88,398.208,187.392
-874.008,339.16,194.712,55.3,-25.76,89.46,-843.264,366.976,171.776
-863.76,351.848,193.736,58.59,-27.09,89.95,-866.688,390.4,179.584
-847.168,370.392,189.832,60.97,-28.42,90.23,-827.648,437.248,187.392
-831.064,395.28,188.368,62.86,-29.26,90.72,-804.224,429.44,163.968
-816.424,425.536,188.856,64.05,-30.03,91.21,-780.8,484.096,187.392
-800.808,460.184,194.712,64.75,-30.59,91.7,-765.184,499.712,179.584
-788.608,496.784,201.544,64.89,-30.94,92.26,-741.76,530.944,203.008
-773.48,534.36,211.304,64.26,-30.94,92.75,-741.76,593.408,195.2
-763.72,569.008,209.352,62.65,-30.8,92.96,-741.76,616.832,195.2
-758.84,598.776,210.816,60.13,-30.59,92.96,-733.952,632.448,210.816
-757.864,626.592,212.768,57.12,-30.52,92.82,-757.376,655.872,179.584
-760.304,648.552,218.136,53.48,-30.8,92.54,-733.952,718.336,210.816
-765.672,668.56,223.992,49.56,-31.57,92.05,-733.952,710.528,234.24
-767.136,683.688,228.872,45.22,-32.13,91.49,-749.568,765.184,218.624
-763.232,694.912,229.36,40.46,-32.97,90.86,-741.76,757.376,218.624
-756.888,703.696,217.648,35.63,-33.74,90.02,-718.336,749.568,187.392
-750.544,706.624,200.568,30.66,-34.3,88.97,-710.528,741.76,171.776
-740.296,709.552,184.464,25.62,-34.72,87.85,-733.952,765.184,156.16
-732.488,708.576,167.384,20.44,-35.0,86.59,-702.72,772.992,156.16
-724.68,706.136,148.84,15.12,-35.0,85.26,-710.528,741.76,109.312
-723.704,700.768,134.2,9.87,-35.14,83.72,-702.72,749.568,109.312
-719.8,688.568,123.952,4.76,-35.21,81.97,-710.528,749.568,109.312
-718.824,673.44,127.368,0.0,-35.14,80.22,-671.488,733.952,109.312
-718.336,653.432,124.44,-4.41,-34.93,78.19,-663.68,710.528,117.12
-718.824,628.544,110.776,-8.75,-34.44,76.16,-671.488,671.488,70.272
-717.848,601.704,94.672,-13.02,-33.81,73.85,-687.104,648.064,70.272
-720.288,567.056,80.032,-17.15,-32.97,71.33,-671.488,593.408,62.464
-727.12,530.456,75.64,-20.65,-31.92,68.88,-702.72,585.6,46.848
-738.344,492.88,72.224,-23.52,-30.94,66.36,-718.336,515.328,54.656
-749.08,452.376,63.928,-25.83,-30.17,63.98,-718.336,499.712,31.232
-760.304,410.896,61.0,-27.58,-29.33,61.53,-726.144,445.056,54.656
-770.064,366.976,63.44,-28.84,-28.84,59.08,-757.376,421.632,54.656
-780.312,324.032,65.392,-29.68,-28.28,56.63,-749.568,382.592,54.656
-789.096,276.696,69.784,-29.89,-28.0,54.25,-772.992,304.512,39.04
-793.976,235.704,62.464,-29.4,-27.86,51.8,-749.568,281.088,31.232
-794.464,190.808,60.024,-28.35,-27.86,49.42,-765.184,249.856,39.04
-790.072,151.28,53.192,-26.6,-27.44,46.9,-780.8,195.2,46.848
-788.608,113.216,50.264,-24.22,-27.02,44.45,-757.376,156.16,39.04
-788.12,73.688,46.848,-21.42,-26.6,41.93,-772.992,117.12,23.424
-787.144,37.088,44.408,-17.99,-26.25,39.34,-765.184,78.08,7.808
-783.728,4.392,40.016,-14.21,-25.83,36.89,-772.992,78.08,7.808
-784.704,-22.448,32.208,-10.15,-25.62,34.3,-749.568,7.808,7.808
-782.264,-51.728,24.888,-6.02,-25.41,31.78,-757.376,-15.616,-7.808
-780.8,-79.056,16.104,-1.82,-25.27,29.82,-765.184,-23.424,-15.616
-778.36,-105.408,8.784,2.38,-25.13,28.0,-749.568,-46.848,-31.232
-775.92,-131.272,5.368,6.79,-25.2,26.39,-741.76,-85.888,-15.616
-772.504,-153.232,0.976,11.2,-25.34,24.99,-741.76,-101.504,-39.04
-769.576,-171.288,-5.368,15.89,-25.41,23.52,-765.184,-117.12,-23.424
-766.16,-182.512,-8.296,20.72,-25.2,21.98,-749.568,-140.544,-23.424
-764.208,-191.296,-14.152,25.76,-24.99,20.51,-733.952,-156.16,-46.848
-763.72,-192.76,-17.08,31.01,-24.71,19.25,-718.336,-132.736,-39.04
-766.16,-188.856,-17.08,36.33,-24.43,17.99,-741.76,-124.928,-39.04
-765.672,-177.144,-17.568,42.0,-24.15,16.73,-741.76,-148.352,-31.232
-767.624,-162.016,-17.08,47.81,-23.8,15.54,-726.144,-117.12,-31.232
-769.088,-140.056,-17.08,53.62,-23.24,14.35,-733.952,-78.08,-54.656
-769.576,-114.192,-15.616,59.57,-22.75,13.23,-741.76,-62.464,-31.232
-769.576,-81.496,-23.424,65.45,-22.33,11.97,-741.76,-23.424,-54.656
-770.552,-45.384,-26.352,71.12,-21.7,10.78,-726.144,0.0,-7.808
-776.408,-9.272,-29.768,76.58,-20.93,9.73,-749.568,39.04,-62.464
-777.384,31.72,-32.208,81.9,-20.23,8.61,-749.568,78.08,-62.464
-779.336,72.712,-35.624,87.08,-19.6,7.49,-749.568,117.12,-39.04
-784.216,116.144,-43.92,91.91,-19.04,6.37,-757.376,179.584,-70.272
-790.56,157.624,-51.24,96.46,-18.55,5.32,-780.8,203.008,-62.464
-796.416,197.152,-57.096,100.8,-18.48,4.2,-765.184,242.048,-85.888
-801.784,240.584,-63.928,104.93,-18.62,3.15,-796.416,288.896,-93.696
-803.248,279.624,-74.176,109.06,-18.62,2.03,-757.376,343.552,-85.888
-803.248,320.128,-86.376,113.05,-18.76,1.12,-780.8,366.976,-101.504
-803.248,359.168,-83.936,116.9,-19.04,0.07,-796.416,421.632,-101.504
-800.32,396.256,-77.104,120.61,-19.46,-0.84,-780.8,437.248,-101.504
-790.072,430.904,-72.712,124.04,-19.81,-1.68,-780.8,476.288,-85.888
-776.896,461.648,-78.568,127.33,-19.81,-2.52,-733.952,515.328,-93.696
-764.696,490.928,-84.424,130.06,-19.6,-3.5,-765.184,530.944,-109.312
-753.96,515.328,-87.352,132.58,-19.39,-4.41,-726.144,569.984,-85.888
-740.784,536.8,-86.864,134.82,-19.04,-5.46,-710.528,577.792,-109.312
-730.536,550.464,-86.376,136.64,-18.76,-6.37,-694.912,609.024,-109.312
-723.704,558.76,-88.816,138.39,-18.2,-7.42,-702.72,616.832,-117.12
-721.752,564.616,-88.328,140.07,-17.78,-8.68,-702.72,616.832,-93.696
-714.92,566.568,-95.648,141.54,-17.36,-10.01,-710.528,601.216,-124.928
-711.016,567.544,-103.456,142.38,-16.8,-11.48,-694.912,624.64,-117.12
-708.088,565.592,-104.92,142.66,-15.82,-13.09,-710.528,609.024,-117.12
-711.016,560.712,-99.064,142.17,-14.84,-14.56,-671.488,609.024,-117.12
-709.552,557.784,-92.72,140.91,-13.86,-15.89,-679.296,609.024,-117.12
-710.528,556.808,-103.456,138.88,-12.46,-16.73,-687.104,585.6,-124.928
-712.968,555.344,-111.264,135.94,-10.99,-17.36,-687.104,609.024,-117.12
-723.216,554.856,-108.824,132.79,-9.38,-17.64,-702.72,593.408,-140.544
-732.976,553.392,-114.192,129.64,-7.91,-17.5,-718.336,585.6,-140.544
-747.128,550.952,-115.656,126.56,-6.51,-16.94,-710.528,577.792,-124.928
-764.696,542.168,-102.968,124.11,-5.39,-15.82,-733.952,585.6,-124.928
-784.704,538.264,-98.576,122.92,-4.55,-14.56,-765.184,577.792,-124.928
-798.856,529.968,-101.504,122.43,-3.85,-13.37,-765.184,569.984,-109.312
-811.544,523.624,-104.432,122.64,-3.78,-12.39,-788.608,562.176,-140.544
-827.648,514.352,-101.504,123.27,-3.43,-11.62,-772.992,562.176,-140.544
-840.336,511.424,-97.6,124.39,-3.57,-10.99,-827.648,538.752,-117.12
-846.192,508.496,-102.968,125.93,-3.92,-10.71,-835.456,546.56,-148.352
-848.632,509.472,-118.096,127.61,-4.34,-10.43,-843.264,562.176,-132.736
-853.512,510.936,-129.808,129.71,-4.69,-10.15,-796.416,562.176,-140.544
-867.176,506.056,-108.824,132.51,-5.53,-9.52,-835.456,554.368,-124.928
-878.888,484.096,-61.976,136.64,-7.42,-8.75,-843.264,530.944,-101.504
-876.448,450.912,-47.824,142.38,-9.59,-7.98,-858.88,484.096,-70.272
-863.76,422.608,-55.144,148.82,-11.48,-7.21,-827.648,476.288,-78.08
-850.096,396.256,-63.44,155.26,-12.81,-6.51,-835.456,421.632,-78.08
-838.872,380.64,-66.368,161.35,-12.88,-5.81,-788.608,429.44,-93.696
-824.232,374.296,-88.328,166.25,-12.18,-5.11,-796.416,421.632,-101.504
-812.52,366.976,-102.968,170.52,-10.22,-4.41,-765.184,413.824,-132.736
-814.96,358.192,-105.896,175.14,-7.14,-3.29,-796.416,406.016,-140.544
-831.064,357.704,-106.872,180.95,-3.71,-1.61,-812.032,406.016,-109.312
-854.488,364.048,-112.728,188.02,0.28,0.49,-827.648,421.632,-140.544
-891.576,374.784,-113.216,196.21,4.13,3.08,-858.88,421.632,-140.544
-937.448,392.84,-110.288,204.89,7.14,6.16,-929.152,476.288,-148.352
-986.248,410.408,-108.336,213.01,9.52,9.31,-983.808,468.48,-132.736
-1031.632,429.928,-110.776,220.29,10.43,12.32,-1007.232,491.904,-140.544
-1074.088,451.888,-118.096,225.89,10.5,15.26,-1061.888,491.904,-132.736
-1104.832,472.384,-127.856,229.88,9.59,17.64,-1069.696,530.944,-140.544
-1130.696,490.928,-141.032,232.68,8.05,19.67,-1108.736,538.752,-171.776
-1151.68,516.304,-153.232,234.57,5.88,21.77,-1132.16,569.984,-179.584
-1160.952,543.144,-163.968,235.48,3.43,23.94,-1139.968,609.024,-195.2
-1158.024,571.936,-178.12,236.04,1.12,26.25,-1116.544,624.64,-210.816
-1150.704,598.288,-200.08,236.81,-0.49,28.63,-1124.352,632.448,-218.624
-1142.408,624.152,-230.824,238.07,-1.4,31.08,-1116.544,663.68,-242.048
-1138.016,647.576,-252.784,239.89,-1.75,33.53,-1116.544,710.528,-281.088
-1132.648,670.024,-274.256,241.71,-2.38,35.98,-1100.928,733.952,-312.32
-1130.696,687.592,-284.504,243.25,-3.01,38.71,-1093.12,726.144,-312.32
-1127.28,700.28,-291.336,244.3,-4.06,41.65,-1093.12,757.376,-320.128
-1121.424,710.528,-293.776,244.79,-5.39,44.66,-1069.696,780.8,-320.128
-1111.176,715.896,-294.752,244.44,-6.79,47.67,-1100.928,772.992,-312.32
-1098.488,717.36,-296.216,243.6,-8.05,50.54,-1069.696,733.952,-312.32
-1086.776,715.408,-293.776,242.62,-9.03,52.99,-1038.464,772.992,-312.32
-1076.04,711.504,-291.824,241.01,-9.73,55.16,-1030.656,749.568,-327.936
-1065.304,711.504,-290.36,238.98,-10.22,56.84,-1030.656,765.184,-304.512
-1053.104,714.432,-291.824,236.67,-10.64,58.1,-1054.08,780.8,-320.128
-1040.904,718.824,-300.608,234.01,-10.71,58.94,-1015.04,765.184,-320.128
-1030.656,724.68,-305.488,231.07,-10.71,59.57,-991.616,772.992,-327.936
-1023.824,733.464,-305.488,227.64,-10.57,60.27,-983.808,765.184,-335.744
-1019.432,740.784,-309.88,223.79,-10.78,60.83,-999.424,796.416,-335.744
-1013.088,749.08,-310.368,219.87,-11.2,61.25,-983.808,796.416,-312.32
-1006.744,759.328,-313.784,215.53,-11.41,61.67,-976.0,835.456,-343.552
-1006.256,770.552,-308.904,210.91,-11.76,61.88,-976.0,827.648,-312.32
-1002.352,779.824,-304.024,205.87,-12.39,61.95,-968.192,812.032,-327.936
-1003.328,787.632,-289.872,200.76,-13.23,62.09,-968.192,827.648,-296.704
-1001.864,795.928,-271.816,195.37,-14.07,62.16,-983.808,835.456,-296.704
-1002.84,801.296,-251.808,189.49,-15.05,62.02,-983.808,835.456,-265.472
-1003.816,804.224,-226.92,183.33,-16.03,61.67,-976.0,858.88,-257.664
-1001.864,797.392,-203.008,177.03,-17.01,61.04,-968.192,843.264,-210.816
-995.52,791.048,-179.096,170.73,-17.85,60.34,-976.0,835.456,-187.392
-990.64,780.312,-161.04,164.43,-18.55,59.57,-960.384,812.032,-179.584
-986.736,766.16,-134.2,158.2,-18.9,58.8,-952.576,835.456,-124.928
-984.784,753.472,-106.384,152.25,-19.53,57.96,-968.192,788.608,-132.736
-976.976,740.784,-84.424,146.51,-20.23,57.33,-960.384,788.608,-109.312
-957.456,723.704,-79.544,141.33,-20.51,56.77,-944.768,772.992,-117.12
-936.472,701.256,-87.352,136.99,-19.46,55.93,-905.728,749.568,-109.312
-925.736,674.904,-92.232,133.28,-17.71,54.88,-890.112,726.144,-109.312
-926.224,648.552,-85.888,130.62,-16.24,53.55,-905.728,702.72,-93.696
-928.664,625.616,-75.64,128.59,-15.68,52.5,-882.304,655.872,-109.312
-921.832,609.024,-76.128,126.63,-15.89,51.94,-890.112,663.68,-70.272
-908.168,591.456,-82.472,124.74,-16.1,51.94,-874.496,640.256,-101.504
-899.384,573.4,-89.792,122.99,-15.89,52.15,-874.496,616.832,-109.312
-892.064,557.296,-97.6,121.66,-15.47,52.36,-851.072,609.024,-109.312
-887.672,541.192,-99.552,121.03,-15.19,52.57,-866.688,585.6,-148.352
-878.4,532.896,-108.824,120.54,-15.19,52.57,-835.456,577.792,-124.928
-863.272,531.92,-132.248,119.63,-14.98,52.43,-835.456,593.408,-179.584
-858.392,523.136,-135.176,118.37,-14.56,52.22,-851.072,569.984,-156.16
-858.88,513.864,-132.736,117.18,-14.42,52.08,-827.648,546.56,-148.352
-855.952,503.128,-130.296,115.85,-14.63,51.59,-812.032,546.56,-148.352
-847.656,492.88,-139.08,114.03,-14.84,50.61,-835.456,538.752,-140.544
-831.064,480.68,-154.696,112.42,-14.63,49.42,-796.416,530.944,-203.008
-820.328,473.848,-167.872,110.88,-13.79,48.09,-812.032,523.136,-210.816
-810.08,466.528,-181.536,109.9,-13.23,46.76,-780.8,515.328,-218.624
-795.928,458.72,-196.664,109.13,-12.95,45.99,-772.992,476.288,-210.816
-783.728,449.936,-214.72,109.06,-12.67,45.57,-757.376,507.52,-226.432
-772.992,442.128,-229.36,109.55,-12.39,45.43,-749.568,484.096,-273.28
-762.744,432.368,-238.144,110.67,-12.25,45.43,-726.144,491.904,-273.28
-754.936,425.048,-241.56,112.28,-12.11,45.5,-726.144,460.672,-273.28
-752.496,418.704,-246.44,114.1,-12.18,45.5,-726.144,452.864,-265.472
-748.592,413.824,-248.88,116.06,-12.39,45.5,-726.144,452.864,-281.088
-743.224,407.968,-249.368,118.09,-12.53,45.36,-741.76,445.056,-257.664
-740.784,402.6,-249.856,120.26,-12.53,44.87,-694.912,445.056,-281.088
-738.344,402.6,-245.464,122.29,-12.39,44.24,-718.336,437.248,-257.664
-735.904,401.136,-243.024,124.46,-12.46,43.26,-694.912,437.248,-265.472
-729.072,411.384,-247.904,126.77,-12.39,42.14,-702.72,452.864,-281.088
-719.8,424.072,-254.248,128.59,-12.18,41.16,-671.488,460.672,-273.28
-708.088,436.76,-256.688,130.06,-11.48,40.46,-663.68,491.904,-273.28
-703.696,449.448,-257.176,131.53,-10.36,40.39,-694.912,491.904,-288.896
-696.376,462.624,-266.936,133.0,-9.03,40.53,-671.488,523.136,-288.896
-688.08,472.872,-281.576,134.82,-7.7,40.67,-632.448,507.52,-304.512
-683.2,480.192,-296.216,136.99,-6.37,40.81,-648.064,530.944,-304.512
-684.664,487.024,-298.168,139.65,-5.04,41.23,-663.68,554.368,-327.936
-685.64,488.0,-297.192,143.15,-4.27,41.65,-687.104,530.944,-327.936
-689.056,495.32,-291.824,147.21,-3.43,42.35,-663.68,554.368,-320.128
-687.592,496.296,-291.824,151.41,-2.52,42.77,-663.68,538.752,-320.128
-686.128,498.736,-300.608,155.05,-1.33,42.91,-655.872,523.136,-312.32
-690.52,497.272,-312.808,158.27,0.07,42.77,-655.872,546.56,-335.744
-698.816,493.856,-317.2,160.86,0.91,42.42,-671.488,554.368,-343.552
-709.552,491.416,-319.64,162.75,1.61,41.44,-671.488,515.328,-335.744
-724.192,499.712,-317.2,163.59,1.96,39.76,-694.912,538.752,-351.36
-733.464,507.032,-314.272,163.24,1.89,37.38,-726.144,546.56,-343.552
-737.368,518.744,-319.152,161.63,1.75,34.51,-694.912,562.176,-335.744
-735.904,531.432,-327.448,158.27,1.89,31.22,-718.336,593.408,-335.744
-740.296,548.512,-337.696,153.93,1.61,27.58,-710.528,562.176,-374.784
-734.44,569.008,-347.456,148.47,0.98,24.15,-702.72,609.024,-374.784
-728.584,592.432,-357.216,142.31,0.7,20.86,-694.912,632.448,-374.784
-727.12,615.856,-358.192,136.01,0.35,18.06,-687.104,671.488,-398.208
-725.656,636.352,-357.216,129.85,-0.49,15.68,-702.72,694.912,-390.4
-721.752,652.456,-353.312,123.62,-1.26,14.07,-694.912,694.912,-398.208
-717.36,667.096,-349.408,117.67,-1.96,12.67,-710.528,718.336,-382.592
-714.432,675.88,-348.432,111.65,-2.45,11.62,-671.488,733.952,-382.592
-709.064,679.296,-344.528,105.98,-2.87,10.57,-702.72,726.144,-366.976
-706.624,677.344,-347.456,100.45,-3.36,9.52,-679.296,733.952,-366.976
-705.648,674.416,-344.528,95.13,-3.78,8.05,-702.72,726.144,-374.784
-708.576,669.536,-336.72,89.88,-4.06,6.79,-687.104,702.72,-374.784
-712.48,659.776,-323.544,84.98,-4.69,5.39,-679.296,694.912,-335.744
-716.872,655.872,-312.32,80.29,-5.39,3.92,-679.296,710.528,-343.552
-717.36,655.872,-306.464,76.09,-5.95,2.59,-694.912,702.72,-320.128
-721.264,656.848,-302.072,72.24,-6.23,1.26,-687.104,702.72,-327.936
-724.68,664.656,-303.048,68.6,-6.72,0.28,-710.528,733.952,-312.32
-724.68,676.368,-308.416,65.1,-7.28,-0.49,-726.144,733.952,-312.32
-721.264,689.544,-321.592,61.46,-7.77,-1.12,-702.72,757.376,-343.552
-715.408,709.064,-345.504,57.68,-7.91,-1.54,-687.104,749.568,-374.784
-711.504,722.24,-359.656,53.41,-8.05,-2.1,-679.296,804.224,-398.208
-703.696,740.784,-381.616,48.93,-7.91,-2.73,-671.488,788.608,-406.016
-691.496,759.328,-404.552,43.89,-7.42,-3.78,-671.488,804.224,-437.248
-680.76,779.336,-431.88,38.43,-6.23,-5.18,-640.256,812.032,-452.864
-668.56,799.344,-457.256,32.55,-4.62,-7.0,-640.256,858.88,-484.096
-656.848,821.304,-488.0,26.04,-2.59,-8.82,-632.448,874.496,-515.328
-651.968,835.456,-509.96,18.76,-0.21,-10.5,-624.64,890.112,-538.752
-651.968,843.752,-527.04,11.48,1.89,-11.76,-624.64,913.536,-562.176
-651.48,847.168,-539.728,4.48,3.43,-12.46,-609.024,866.688,-546.56
-653.92,844.24,-549.488,-1.68,4.69,-12.67,-616.832,913.536,-593.408
-659.288,842.288,-550.464,-7.07,5.18,-12.67,-624.64,890.112,-546.56
-666.608,836.92,-547.536,-11.9,5.32,-12.74,-640.256,890.112,-577.792
-672.952,828.624,-542.656,-16.17,4.97,-12.74,-624.64,882.304,-554.368
-678.808,819.84,-528.992,-20.51,4.34,-12.88,-624.64,866.688,-530.944
-687.104,811.544,-516.304,-24.78,3.36,-13.44,-640.256,866.688,-554.368
-690.52,802.76,-499.224,-29.12,2.66,-14.42,-679.296,882.304,-515.328
-694.424,793.0,-481.656,-33.11,2.17,-15.68,-694.912,835.456,-491.904
-697.352,782.264,-466.04,-36.12,1.96,-17.36,-671.488,858.88,-515.328
-699.792,773.968,-448.472,-38.15,2.31,-19.18,-671.488,796.416,-484.096
-702.232,762.744,-436.76,-39.55,3.01,-21.0,-679.296,812.032,-452.864
-706.624,752.984,-430.904,-40.6,3.78,-22.19,-648.064,804.224,-445.056
-711.504,737.856,-426.512,-41.58,4.48,-22.68,-671.488,757.376,-499.712
-717.36,719.312,-420.168,-42.28,4.9,-22.54,-710.528,772.992,-437.248
-721.752,697.84,-412.848,-43.05,5.25,-22.26,-710.528,733.952,-437.248
-725.656,671.0,-406.016,-43.47,5.67,-21.84,-702.72,718.336,-437.248
-729.072,644.16,-397.232,-43.54,6.16,-21.49,-694.912,694.912,-429.44
-730.048,616.832,-389.912,-42.98,6.65,-21.07,-702.72,687.104,-406.016
-731.024,595.36,-381.128,-42.21,7.07,-20.79,-694.912,648.064,-390.4
-729.56,574.864,-374.296,-41.16,7.35,-20.3,-718.336,616.832,-413.824
-724.192,556.808,-364.536,-39.83,7.63,-19.74,-679.296,601.216,-390.4
-720.776,538.264,-357.216,-38.22,7.91,-18.97,-671.488,585.6,-390.4
-713.944,523.136,-344.528,-35.84,8.05,-18.27,-671.488,562.176,-374.784
-704.672,508.008,-340.624,-32.83,8.26,-17.64,-702.72,577.792,-382.592
-692.96,499.224,-338.184,-29.75,8.89,-16.73,-648.064,577.792,-359.168
-682.224,489.952,-339.16,-26.67,9.66,-16.1,-640.256,523.136,-343.552
-673.928,486.536,-345.992,-23.73,10.57,-15.4,-648.064,554.368,-366.976
-665.632,488.0,-353.8,-21.14,11.55,-14.91,-648.064,538.752,-390.4
-659.776,490.928,-359.168,-18.62,12.6,-14.49,-624.64,546.56,-382.592
-655.384,497.272,-365.024,-16.24,13.58,-14.21,-624.64,546.56,-406.016
-650.992,507.032,-373.32,-13.86,14.63,-13.86,-640.256,554.368,-382.592
-646.6,519.72,-384.056,-11.55,15.75,-13.37,-616.832,577.792,-437.248
-646.112,533.872,-390.888,-9.31,16.87,-12.74,-624.64,577.792,-406.016
-644.648,553.88,-399.184,-7.28,17.78,-12.11,-624.64,609.024,-445.056
-646.6,574.864,-407.48,-5.6,18.69,-11.34,-616.832,648.064,-429.44
-648.064,597.312,-417.728,-4.13,19.67,-10.57,-601.216,640.256,-429.44
-652.944,623.176,-424.56,-2.87,20.51,-9.87,-624.64,710.528,-460.672
-657.336,651.48,-430.904,-1.75,21.0,-9.31,-632.448,726.144,-429.44
-664.656,681.736,-435.296,-0.98,21.35,-8.82,-632.448,757.376,-445.056
-672.952,712.48,-433.832,-0.56,21.35,-8.33,-694.912,765.184,-460.672
-679.784,747.616,-437.736,-0.49,21.14,-8.05,-640.256,796.416,-445.056
-687.104,779.824,-442.128,-0.84,20.79,-7.77,-663.68,827.648,-476.288
-694.424,807.64,-446.52,-1.68,20.3,-7.84,-655.872,858.88,-476.288
-705.16,839.36,-451.888,-2.94,19.6,-8.12,-671.488,890.112,-476.288
-713.944,873.032,-455.792,-4.55,18.83,-8.47,-702.72,952.576,-468.48
-722.24,909.632,-456.768,-6.02,17.64,-9.1,-671.488,983.808,-484.096
-729.072,947.208,-459.208,-7.56,16.17,-9.87,-702.72,976.0,-468.48
-735.416,991.128,-462.136,-9.45,14.63,-10.85,-718.336,1038.464,-484.096
-741.76,1039.928,-465.552,-12.39,13.09,-12.04,-726.144,1085.312,-507.52
-745.664,1091.168,-476.288,-16.38,11.55,-13.3,-741.76,1147.776,-507.52
-753.472,1148.264,-485.56,-21.84,9.8,-14.91,-733.952,1202.432,-499.712
-761.768,1206.824,-486.536,-28.77,7.91,-16.66,-710.528,1257.088,-523.136
-769.576,1268.8,-486.048,-37.31,5.53,-18.69,-733.952,1311.744,-523.136
-775.432,1335.168,-488.0,-47.67,3.15,-20.86,-749.568,1413.248,-523.136
-774.944,1403.488,-498.736,-59.57,0.77,-22.75,-733.952,1467.904,-538.752
-777.384,1465.464,-511.912,-72.8,-1.4,-24.78,-749.568,1506.944,-546.56
-783.24,1524.024,-517.768,-86.87,-3.29,-26.39,-726.144,1585.024,-538.752
-792.024,1577.704,-516.792,-101.43,-5.53,-28.21,-749.568,1639.68,-546.56
-803.248,1627.968,-510.448,-116.62,-7.98,-30.1,-765.184,1663.104,-523.136
-813.008,1672.376,-498.248,-132.51,-10.43,-31.57,-749.568,1725.568,-523.136
-823.256,1718.736,-490.928,-149.38,-12.81,-32.62,-804.224,1748.992,-515.328
-831.064,1756.8,-488.976,-167.23,-15.47,-33.39,-804.224,1803.648,-507.52
-844.24,1796.816,-490.44,-186.27,-18.13,-34.23,-804.224,1850.496,-530.944
-850.096,1836.832,-506.544,-206.64,-21.21,-35.21,-827.648,1889.536,-546.56
-856.928,1873.432,-525.088,-227.92,-24.01,-36.4,-827.648,1897.344,-546.56
-863.76,1908.568,-545.584,-249.9,-26.88,-38.36,-858.88,1952.0,-569.984
-865.712,1941.752,-570.96,-272.16,-29.19,-40.6,-843.264,1998.848,-593.408
-872.056,1967.128,-584.624,-293.93,-31.01,-42.84,-866.688,2022.272,-601.216
-880.352,1983.232,-594.872,-315.14,-32.62,-44.94,-858.88,2030.08,-601.216
-892.064,1992.992,-601.216,-335.51,-34.44,-46.41,-843.264,2037.888,-609.024
-900.36,1984.696,-606.096,-354.69,-36.75,-46.97,-882.304,2030.08,-632.448
-901.336,1966.152,-610.976,-373.1,-39.27,-46.48,-858.88,1991.04,-609.024
-897.92,1932.968,-617.32,-390.6,-41.79,-45.29,-905.728,1967.616,-632.448
-885.232,1893.928,-629.52,-407.05,-44.31,-43.33,-858.88,1959.808,-655.872
-871.568,1835.856,-630.496,-423.08,-46.48,-41.02,-835.456,1881.728,-663.68
-844.728,1759.728,-646.112,-438.69,-48.51,-39.41,-812.032,1795.84,-687.104
-818.864,1687.016,-656.36,-453.11,-49.14,-38.43,-796.416,1702.144,-679.296
-795.928,1605.032,-662.704,-466.27,-49.77,-37.8,-765.184,1631.872,-687.104
-765.184,1522.56,-674.904,-478.1,-50.19,-37.31,-749.568,1553.792,-702.72
-735.416,1427.4,-685.152,-488.32,-50.05,-36.4,-718.336,1483.52,-702.72
-705.648,1324.432,-696.864,-497.0,-49.35,-34.44,-671.488,1374.208,-733.952
-682.712,1212.192,-702.72,-503.79,-48.44,-31.5,-671.488,1241.472,-733.952
-649.528,1107.76,-708.576,-508.34,-47.67,-28.14,-640.256,1132.16,-741.76
-627.08,1009.672,-714.432,-511.0,-45.92,-24.99,-616.832,1038.464,-749.568
-610.976,921.832,-713.944,-511.77,-43.75,-22.33,-577.792,960.384,-733.952
-597.8,838.384,-708.576,-511.42,-41.37,-20.23,-577.792,866.688,-765.184
-593.896,764.208,-702.72,-509.25,-38.5,-17.99,-577.792,788.608,-749.568
-599.264,689.544,-685.64,-505.68,-35.84,-15.4,-585.6,741.76,-718.336
-610.488,625.128,-667.096,-500.36,-33.67,-12.6,-585.6,687.104,-694.912
-620.248,567.544,-642.696,-493.57,-32.13,-9.73,-593.408,601.216,-655.872
-638.304,515.328,-609.512,-485.31,-30.66,-6.65,-609.024,585.6,-624.64
-659.776,463.6,-569.008,-475.58,-29.75,-3.5,-640.256,484.096,-593.408
-679.296,410.896,-533.384,-464.66,-29.54,0.56,-663.68,445.056,-569.984
-694.424,372.344,-509.96,-452.76,-29.54,5.39,-648.064,406.016,-538.752
-700.28,339.648,-490.44,-439.88,-29.75,10.57,-679.296,390.4,-523.136
-707.6,309.88,-467.504,-426.02,-29.68,15.96,-694.912,343.552,-491.904
-713.944,290.36,-443.592,-410.97,-29.61,21.63,-694.912,343.552,-445.056
-717.848,272.792,-412.848,-395.22,-29.68,27.44,-687.104,327.936,-421.632
-717.36,263.032,-380.64,-378.77,-29.75,33.46,-687.104,312.32,-390.4
-713.944,261.568,-350.872,-361.55,-29.75,39.48,-687.104,312.32,-382.592
-706.624,270.352,-320.128,-344.26,-29.47,45.71,-694.912,335.744,-359.168
-697.352,283.528,-294.752,-326.97,-29.4,52.01,-679.296,320.128,-296.704
-682.712,294.264,-269.376,-309.54,-29.26,58.59,-655.872,335.744,-288.896
-666.608,310.368,-237.656,-292.04,-28.91,65.52,-640.256,366.976,-265.472
-648.552,327.936,-214.72,-274.47,-28.49,72.66,-616.832,374.784,-218.624
-628.544,350.384,-192.76,-256.97,-27.86,79.73,-616.832,421.632,-203.008
-609.512,375.272,-175.192,-239.96,-27.09,86.8,-593.408,445.056,-203.008
-591.944,402.112,-157.624,-223.09,-26.18,93.59,-562.176,445.056,-203.008
-573.888,425.048,-142.008,-206.22,-24.99,100.17,-538.752,476.288,-156.16
-555.344,452.864,-126.88,-189.63,-23.8,106.68,-491.904,538.752,-148.352
-542.168,482.144,-111.264,-173.6,-22.47,112.7,-499.712,523.136,-132.736
-529.48,511.424,-100.528,-158.06,-21.21,118.23,-507.52,569.984,-132.736
-514.352,544.12,-94.184,-143.15,-19.88,123.27,-460.672,616.832,-101.504
-494.832,578.28,-91.256,-129.15,-18.48,127.96,-476.288,640.256,-109.312
-472.384,613.904,-89.792,-115.99,-17.01,132.16,-452.864,648.064,-117.12
-452.864,649.528,-94.184,-103.53,-14.98,135.94,-429.44,718.336,-132.736
-431.88,684.176,-98.088,-92.12,-12.95,139.23,-406.016,757.376,-124.928
-411.384,732.0,-101.504,-81.34,-10.71,142.1,-359.168,788.608,-124.928
-391.864,784.704,-105.896,-72.03,-8.33,144.41,-374.784,858.88,-117.12
-371.368,829.6,-115.168,-63.98,-5.67,146.65,-327.936,890.112,-140.544
-352.336,884.744,-128.832,-56.98,-2.8,148.68,-320.128,921.344,-156.16
-334.768,929.64,-139.08,-51.03,0.28,150.43,-335.744,968.192,-179.584
-319.64,973.56,-148.84,-45.71,3.5,152.04,-288.896,1030.656,-187.392
-306.464,1017.968,-159.576,-41.09,6.58,153.37,-281.088,1069.696,-195.2
-295.24,1064.328,-166.408,-37.66,9.87,154.49,-304.512,1132.16,-203.008
-287.92,1110.688,-176.168,-35.42,13.16,155.54,-242.048,1155.584,-179.584
-280.112,1148.752,-182.024,-34.23,16.66,156.59,-242.048,1210.24,-187.392
-278.16,1181.448,-183.488,-33.95,20.02,157.71,-242.048,1249.28,-210.816
-273.768,1205.36,-182.512,-34.44,23.24,159.04,-265.472,1257.088,-195.2
-271.328,1217.072,-183.0,-35.21,26.39,160.44,-242.048,1272.704,-226.432
-267.424,1230.248,-186.416,-36.19,29.4,161.91,-257.664,1288.32,-218.624
-264.008,1231.712,-185.928,-37.8,32.48,163.31,-242.048,1264.896,-187.392
-261.08,1231.712,-187.392,-39.83,35.49,164.43,-234.24,1280.512,-218.624
-258.64,1231.224,-186.416,-42.14,38.57,165.27,-242.048,1257.088,-203.008
-252.784,1227.32,-186.416,-44.66,41.23,166.04,-226.432,1280.512,-226.432
-246.44,1220.976,-191.296,-47.39,44.24,166.81,-234.24,1264.896,-218.624
-240.584,1211.216,-190.808,-49.77,47.25,167.51,-203.008,1272.704,-226.432
-234.24,1202.92,-190.808,-51.73,50.54,168.14,-203.008,1249.28,-234.24
-229.848,1193.16,-192.76,-53.55,54.11,168.7,-195.2,1233.664,-226.432
-226.92,1179.008,-194.712,-55.02,57.89,169.33,-195.2,1218.048,-218.624
-224.968,1164.368,-195.688,-55.86,61.46,169.82,-187.392,1210.24,-218.624
-225.944,1148.264,-199.104,-56.21,65.1,170.38,-187.392,1194.624,-234.24
-230.336,1135.088,-201.544,-56.14,68.81,170.73,-195.2,1186.816,-226.432
-236.68,1119.472,-204.472,-55.58,72.52,171.29,-242.048,1186.816,-249.856
-244.976,1103.856,-205.448,-54.67,76.16,171.64,-203.008,1171.2,-234.24
-252.296,1091.168,-210.816,-53.48,79.52,171.92,-226.432,1139.968,-234.24
-260.104,1077.992,-215.208,-52.08,82.88,172.27,-257.664,1124.352,-242.048
-268.4,1061.4,-219.6,-50.47,86.45,172.55,-242.048,1100.928,-210.816
-275.232,1047.248,-223.016,-48.51,89.46,172.83,-281.088,1108.736,-257.664
-280.112,1032.12,-227.408,-46.34,92.4,172.9,-265.472,1069.696,-257.664
-286.456,1015.04,-233.264,-43.68,95.62,173.11,-249.856,1046.272,-249.856
-288.408,996.008,-242.048,-40.74,98.63,173.18,-257.664,1038.464,-281.088
-293.776,978.44,-248.88,-37.45,101.57,173.18,-242.048,1007.232,-257.664
-297.68,961.848,-256.2,-33.81,104.51,173.04,-257.664,1015.04,-273.28
-299.632,941.352,-266.936,-29.96,107.31,172.83,-281.088,983.808,-288.896
-303.536,922.32,-277.184,-25.76,110.32,172.83,-288.896,968.192,-288.896
-306.952,900.848,-286.456,-21.42,113.12,172.62,-273.28,952.576,-312.32
-307.44,879.376,-298.168,-16.66,115.85,172.55,-281.088,944.768,-343.552
-310.368,859.368,-306.952,-11.97,118.65,172.2,-304.512,913.536,-312.32
-309.392,837.896,-318.176,-7.07,121.24,171.85,-265.472,905.728,-343.552
-308.904,816.424,-328.424,-2.03,123.97,171.36,-273.28,866.688,-351.36
-307.928,795.928,-339.16,3.36,126.84,170.87,-265.472,827.648,-343.552
-309.88,774.944,-347.456,9.1,129.57,170.31,-296.704,827.648,-382.592
-314.272,759.328,-355.752,15.19,132.3,169.75,-281.088,812.032,-406.016
-316.712,743.224,-361.608,21.49,134.96,169.19,-312.32,780.8,-398.208
-324.52,727.608,-364.536,28.07,137.41,168.56,-312.32,780.8,-398.208
-330.376,715.408,-366.488,34.79,139.72,168.0,-327.936,749.568,-390.4
-336.232,703.696,-366.976,41.44,141.89,167.44,-304.512,733.952,-398.208
-342.088,690.52,-369.904,48.37,143.99,166.53,-320.128,741.76,-406.016
-351.36,675.88,-368.928,55.3,146.09,165.48,-327.936,702.72,-390.4
-359.168,660.264,-367.464,62.3,148.12,164.01,-327.936,726.144,-374.784
-367.952,645.136,-372.344,69.3,150.36,162.19,-343.552,687.104,-390.4
-377.224,634.4,-378.688,76.23,152.32,160.09,-359.168,663.68,-406.016
-382.592,623.176,-391.376,82.74,154.07,157.64,-366.976,655.872,-413.824
-391.376,615.856,-403.088,89.04,155.89,155.05,-382.592,655.872,-445.056
-399.672,609.512,-409.432,95.06,157.36,152.32,-374.784,640.256,-429.44
-408.944,611.464,-410.896,100.94,158.76,149.59,-374.784,648.064,-429.44
-415.288,613.904,-410.896,105.91,159.88,146.65,-413.824,671.488,-429.44
-422.12,616.344,-410.408,110.74,161.14,143.99,-390.4,663.68,-468.48
-428.952,621.224,-407.48,115.36,162.19,141.54,-398.208,671.488,-413.824
-432.856,624.64,-413.336,119.77,163.31,138.95,-406.016,687.104,-445.056
-435.784,634.4,-428.464,123.76,164.43,136.43,-406.016,663.68,-460.672
-434.32,643.184,-440.176,127.19,165.55,133.91,-413.824,694.912,-460.672
-434.32,650.504,-451.888,129.85,166.88,131.46,-406.016,694.912,-484.096
-431.392,659.288,-461.648,131.88,168.35,129.01,-413.824,726.144,-468.48
-431.88,665.144,-467.992,133.56,169.47,126.77,-406.016,718.336,-491.904
-431.88,672.464,-467.992,134.82,170.59,124.67,-421.632,726.144,-476.288
-432.368,676.856,-469.456,135.87,171.57,122.78,-421.632,733.952,-484.096
-436.272,685.152,-463.112,136.71,172.41,120.82,-413.824,702.72,-491.904
-440.176,690.032,-461.648,136.99,172.9,118.79,-445.056,733.952,-484.096
-439.688,695.888,-464.576,137.13,173.25,116.9,-413.824,757.376,-491.904
-441.152,705.16,-472.872,136.78,173.74,114.73,-429.44,733.952,-484.096
-447.008,708.576,-482.632,135.8,174.44,112.21,-421.632,726.144,-515.328
-455.792,715.896,-481.656,134.82,174.86,109.41,-429.44,765.184,-523.136
