acc_x[mg],acc_y[mg],acc_z[mg],gyro_x[dps],gyro_y[dps],gyro_z[dps]
357,-8,944,-3.01,0.49,-0.84
361,-5,941,-3.15,0.42,-0.77
363,-4,939,-3.15,0.35,-0.49
361,-9,941,-3.08,0.42,-0.35
358,-9,942,-2.66,0.49,-0.56
359,-4,948,-1.75,0.63,-0.84
361,5,950,-0.91,0.7,-0.91
360,10,950,-0.49,0.56,-0.63
358,7,945,-0.56,0.35,-0.35
355,0,940,-0.77,0.14,-0.35
353,-4,940,-0.84,0.07,-0.49
356,-9,942,-0.91,0.21,-0.63
354,-11,948,-0.77,0.49,-0.63
355,-8,950,-0.07,0.56,-0.7
356,-7,949,0.7,0.42,-0.7
356,-6,947,1.75,0.28,-0.7
355,-3,947,2.52,0.14,-0.91
354,-1,948,2.87,0.07,-0.98
356,1,945,2.73,0.07,-1.05
361,2,941,2.31,0.21,-0.91
361,3,939,1.82,0.35,-0.63
362,-3,939,1.33,0.77,-0.49
362,1,941,1.19,1.19,-0.56
360,3,938,0.84,1.61,-0.14
354,3,942,0.42,2.1,0.14
351,1,948,0.07,2.73,0.21
355,0,959,-0.07,3.43,0.35
362,5,967,-0.21,3.99,0.42
363,8,977,-0.63,4.2,0.63
356,4,978,-0.7,3.64,0.63
344,7,978,-0.14,2.59,0.28
339,9,978,0.49,1.33,-0.21
337,15,974,0.84,-0.21,-0.77
337,26,966,0.98,-1.82,-1.26
337,23,953,0.56,-3.5,-1.33
341,18,938,-0.21,-4.62,-1.47
345,20,919,-0.35,-5.53,-1.89
350,13,913,-0.63,-5.88,-1.68
351,13,907,-0.84,-5.6,-1.54
355,24,899,-0.42,-5.18,-1.33
361,32,893,0.56,-4.48,-0.98
360,30,891,1.33,-3.85,-0.35
360,32,886,2.03,-3.22,0.0
361,38,887,2.73,-2.38,0.14
363,44,885,2.8,-1.47,0.49
364,41,885,2.03,-0.49,1.19
366,32,885,0.91,0.42,1.61
363,24,885,0.07,1.19,1.82
358,18,884,-0.21,1.61,1.96
352,10,888,-0.21,1.82,2.03
345,0,895,-0.14,1.96,2.17
346,-10,903,0.07,2.17,2.17
352,-11,909,0.35,2.52,1.96
357,-6,919,0.42,2.87,1.82
358,-3,927,0.42,2.8,1.75
358,-9,941,0.35,2.59,1.68
355,-14,948,0.35,2.24,1.19
357,-4,945,0.7,1.89,0.56
358,0,944,0.63,1.54,0.28
356,-2,936,-0.49,1.33,0.35
356,1,934,-1.75,1.33,0.14
354,7,941,-3.08,1.33,-0.07
351,8,942,-4.41,1.19,0.0
351,6,940,-5.39,1.12,-0.07
354,8,937,-5.53,1.26,-0.21
353,2,943,-5.46,1.4,0.0
350,-6,946,-5.32,1.89,0.21
349,-2,950,-4.9,2.24,0.28
349,-2,953,-4.55,2.31,0.49
349,-4,954,-3.92,2.03,0.42
346,-4,955,-3.01,1.75,0.14
344,0,958,-1.96,1.33,-0.21
343,2,960,-1.12,0.77,-0.42
343,2,959,-0.63,0.07,-0.42
341,0,958,-0.56,-0.56,-0.28
339,4,959,-0.42,-0.77,-0.42
342,14,958,-0.35,-0.91,-0.42
346,21,954,-0.56,-1.19,-0.14
346,13,952,-1.05,-1.33,0.28
340,0,954,-1.26,-1.4,0.35
342,0,954,-0.91,-1.19,0.28
348,9,953,-0.49,-0.84,0.35
350,11,952,-0.63,-0.56,0.77
351,5,950,-0.91,-0.35,1.12
351,0,943,-0.7,-0.42,1.12
348,-10,940,-0.35,-0.49,1.19
343,-9,938,0.07,-0.42,0.91
343,4,936,0.63,-0.49,0.7
344,3,935,0.42,-0.91,0.91
341,0,927,-0.21,-1.19,0.91
343,-2,922,-0.42,-1.54,0.7
348,-1,920,-0.28,-1.61,0.42
350,2,915,-0.21,-1.61,0.21
353,0,913,-0.42,-1.54,0.49
355,-6,908,-0.7,-1.26,0.77
358,-8,906,-0.63,-0.7,0.84
357,-10,910,-0.28,-0.07,0.91
354,-7,909,0.07,0.42,1.05
352,-3,906,0.49,0.84,1.05
352,-3,905,0.42,1.19,1.12
349,-6,904,0.07,1.54,1.12
347,-12,908,-0.42,1.96,0.98
345,-18,914,-0.91,2.31,0.98
343,-22,914,-1.26,2.38,0.91
343,-28,916,-1.26,2.52,0.84
345,-30,919,-0.84,2.8,0.42
345,-31,928,-0.28,3.01,0.07
347,-27,939,0.35,3.01,-0.21
348,-25,944,0.84,2.8,-0.56
348,-28,943,1.05,2.66,-0.84
348,-25,945,1.12,2.66,-1.05
347,-19,947,0.98,2.66,-1.33
343,-12,953,0.63,2.59,-1.4
338,-8,960,-0.07,2.45,-1.47
335,-6,965,-0.98,2.03,-1.54
331,-4,963,-1.54,1.61,-1.82
329,-2,965,-1.96,1.4,-2.03
330,0,967,-2.66,1.12,-2.03
334,-1,971,-3.43,0.91,-1.96
337,1,971,-4.06,1.05,-2.1
337,2,975,-4.34,1.12,-1.89
335,0,979,-4.83,1.19,-1.61
335,3,986,-4.9,1.26,-1.61
336,2,989,-4.69,1.19,-1.4
336,5,987,-4.27,0.98,-1.26
335,7,986,-3.5,0.63,-1.19
337,9,987,-2.73,0.14,-1.05
337,12,981,-2.03,-0.56,-0.98
338,11,975,-1.61,-1.26,-0.77
336,10,964,-1.19,-1.82,-0.63
335,6,956,-0.84,-2.31,-0.49
336,1,952,-0.49,-2.59,-0.35
335,0,944,-0.14,-2.59,-0.14
333,8,940,0.63,-2.52,0.07
336,10,933,1.26,-2.59,0.35
336,4,925,1.75,-2.59,0.63
335,-2,922,2.38,-2.38,0.77
339,-3,920,3.22,-2.17,0.7
343,-4,913,3.92,-2.1,0.7
343,-4,907,4.41,-1.89,0.77
342,-6,904,4.83,-1.68,0.77
339,-10,907,4.76,-1.47,0.98
339,-13,909,4.41,-1.12,0.84
341,-8,908,4.06,-0.91,0.56
339,-8,906,3.64,-0.77,0.49
336,-17,908,3.22,-0.63,0.42
333,-18,913,2.87,-0.42,0.14
335,-5,915,2.52,-0.14,-0.35
337,-3,920,1.82,-0.14,-0.35
338,-11,925,0.56,0.07,-0.35
339,-6,925,-0.42,0.28,-0.77
343,-3,927,-1.05,0.49,-1.05
342,-7,936,-1.89,0.91,-0.98
340,-10,943,-2.38,1.19,-1.05
338,-17,948,-2.59,1.19,-0.98
338,-16,949,-2.1,1.19,-1.26
341,-9,950,-1.26,0.91,-1.47
342,-12,955,-1.05,0.56,-1.47
339,-13,959,-1.12,0.21,-1.61
339,-6,959,-1.05,-0.07,-2.03
340,0,959,-0.84,-0.49,-2.24
342,6,955,-0.77,-1.05,-2.31
341,14,949,-0.7,-1.4,-2.45
340,17,946,-0.7,-1.75,-2.17
341,14,940,-0.91,-1.89,-1.96
340,21,933,-0.91,-1.89,-1.96
339,27,925,-1.19,-1.68,-1.61
341,26,919,-1.47,-1.33,-1.12
341,26,911,-1.61,-0.98,-0.7
341,25,906,-1.61,-0.49,-0.35
340,24,906,-1.68,0.14,0.07
341,19,905,-1.96,0.56,0.49
338,14,901,-2.31,0.98,0.84
335,10,900,-2.38,1.54,1.05
332,2,902,-2.52,1.96,1.33
330,-6,908,-2.45,2.45,1.47
330,-10,917,-2.03,3.01,1.47
336,-8,924,-1.12,3.5,1.33
340,-6,928,0.0,3.64,1.47
339,-6,934,0.77,3.85,1.54
334,-7,940,1.26,3.92,1.47
330,-9,945,1.4,3.92,1.54
326,-15,950,1.05,3.92,1.61
323,-18,958,0.77,3.92,1.4
320,-15,967,0.56,3.64,1.19
320,-13,970,0.28,3.01,0.91
323,-15,978,-0.14,2.31,0.56
332,-19,975,-0.63,1.75,0.07
335,-17,976,-1.12,1.47,-0.42
333,-15,976,-1.61,1.19,-0.49
329,-10,975,-2.03,0.91,-0.56
328,-9,975,-2.52,0.63,-0.56
328,-1,971,-2.8,0.35,-0.77
329,3,971,-3.01,0.21,-0.7
325,2,968,-3.36,-0.14,-0.63
322,2,960,-3.78,-0.49,-0.63
323,1,960,-3.99,-0.63,-0.63
325,1,959,-4.34,-0.84,-0.63
327,5,953,-4.41,-1.05,-0.42
328,5,951,-4.55,-1.05,-0.14
328,3,951,-4.34,-1.12,-0.07
324,0,953,-3.99,-1.26,0.28
322,-7,954,-3.22,-1.4,0.35
323,-9,952,-2.17,-1.4,0.42
326,-8,951,-0.98,-1.47,0.49
328,-9,950,-0.07,-1.61,0.7
332,-12,947,0.42,-1.61,0.84
331,-14,951,0.7,-1.61,0.84
328,-18,953,0.77,-1.61,0.91
328,-16,958,0.84,-1.68,0.84
327,-15,958,0.63,-1.89,0.7
325,-14,960,0.07,-2.17,0.63
323,-20,960,-0.63,-2.52,0.49
320,-32,961,-1.47,-2.94,0.42
320,-42,959,-1.96,-3.15,0.07
324,-37,961,-1.89,-3.43,-0.56
330,-37,964,-2.03,-3.85,-0.77
337,-44,961,-2.31,-4.27,-0.98
339,-59,959,-2.59,-4.55,-1.33
337,-71,960,-2.38,-4.34,-1.82
333,-76,961,-1.54,-4.13,-2.45
332,-74,957,-0.35,-4.06,-2.8
336,-65,955,0.84,-3.85,-3.22
342,-56,958,1.47,-3.92,-3.71
345,-45,958,1.82,-4.13,-4.27
348,-31,955,1.96,-4.48,-4.9
345,-20,948,1.54,-5.04,-5.32
340,-16,937,0.77,-5.67,-5.53
337,-14,930,0.21,-6.02,-5.74
338,-6,926,-0.42,-6.02,-5.74
338,-5,930,-1.47,-5.74,-5.11
341,-7,929,-2.38,-5.32,-4.62
343,-5,923,-2.45,-4.83,-4.41
347,-4,922,-1.68,-4.27,-4.27
353,1,926,-0.21,-3.71,-4.27
355,11,928,0.84,-3.29,-3.99
355,15,924,1.26,-3.01,-3.5
352,15,915,1.19,-2.73,-3.08
347,9,907,1.33,-2.52,-2.87
343,0,907,1.4,-2.17,-2.52
338,-13,913,1.19,-1.61,-2.1
335,-24,922,0.91,-0.98,-1.75
336,-21,930,1.12,-0.49,-1.68
338,-23,934,1.75,-0.21,-1.75
340,-28,934,2.66,-0.28,-2.03
342,-36,937,3.64,-0.42,-2.52
342,-28,935,4.69,-0.35,-3.43
348,-15,937,5.32,-0.56,-3.85
347,-13,942,4.34,-0.63,-3.78
346,-8,943,2.87,-0.56,-3.85
345,-5,937,1.68,-0.56,-3.99
344,0,933,1.26,-0.7,-4.2
344,4,930,1.33,-0.91,-4.34
345,10,929,1.47,-1.19,-4.41
342,14,929,1.26,-1.54,-4.34
339,15,927,0.91,-1.68,-4.2
339,18,923,0.63,-1.54,-4.06
343,25,921,0.42,-1.33,-3.92
346,31,922,0.35,-0.91,-3.64
350,32,919,0.49,-0.49,-3.29
353,35,921,0.77,-0.14,-2.94
352,37,919,1.12,0.28,-2.52
349,42,918,1.54,0.63,-2.1
345,44,923,1.68,0.91,-1.61
337,43,929,1.33,0.98,-1.05
332,41,927,1.05,0.91,-0.7
336,38,926,0.91,0.77,-0.49
339,30,927,0.21,0.63,-0.21
339,27,927,-0.35,0.7,-0.21
342,29,929,-0.56,0.84,-0.14
347,27,933,-0.77,0.84,0.14
344,18,940,-1.12,0.91,0.63
342,16,941,-0.84,1.05,0.63
339,11,939,-0.14,1.05,0.77
337,-2,943,0.28,1.26,1.12
336,-2,946,0.77,1.54,0.84
335,5,953,1.33,1.47,0.77
335,3,957,1.33,1.05,0.91
332,-5,956,1.05,0.63,0.77
332,-11,955,1.12,0.28,0.35
335,-1,956,1.54,0.0,-0.21
338,15,959,1.54,-0.42,-0.35
338,20,959,0.14,-0.84,-0.14
336,15,960,-1.89,-1.33,-0.07
333,12,959,-3.43,-1.75,-0.42
333,16,954,-4.41,-2.31,-0.7
335,15,953,-5.81,-2.73,-0.77
340,18,947,-7.07,-3.01,-0.77
342,18,943,-8.26,-3.22,-0.7
342,11,940,-9.03,-3.36,-0.49
338,1,939,-9.38,-3.5,-0.35
339,-6,937,-9.03,-3.22,-0.49
345,-3,939,-7.7,-2.87,-0.49
346,-2,943,-6.3,-2.45,-0.14
345,-3,943,-4.97,-2.17,0.28
345,-4,939,-3.64,-2.03,0.49
348,-2,934,-2.1,-1.82,0.49
347,-3,928,-0.77,-1.68,0.63
346,-10,932,-0.14,-1.47,0.91
346,-6,935,0.28,-0.98,1.05
347,-2,947,0.35,-0.84,1.4
344,-2,950,0.35,-0.77,1.54
344,1,946,0.91,-0.98,1.61
345,-2,942,1.4,-1.33,1.54
344,-11,942,1.47,-1.54,1.4
342,-16,949,0.77,-1.61,1.26
346,-12,947,0.07,-1.54,1.19
349,-9,947,-0.7,-1.61,1.4
353,-8,935,-1.54,-1.61,1.4
352,-11,931,-2.31,-1.54,1.4
347,-16,928,-2.73,-1.54,1.05
346,-19,930,-2.94,-1.54,0.91
340,-21,926,-3.01,-1.54,0.77
338,-28,927,-2.87,-1.33,0.77
337,-27,926,-2.73,-1.05,0.7
338,-30,923,-2.38,-0.98,0.7
342,-36,919,-2.1,-0.7,0.56
346,-34,918,-1.68,-0.35,0.14
349,-31,919,-1.12,-0.14,-0.14
350,-27,926,-0.77,0.07,-0.28
349,-25,930,-0.77,0.21,-0.35
348,-18,928,-0.63,0.35,-0.56
349,-12,926,-0.42,0.35,-0.7
346,-13,927,-0.7,0.42,-0.56
340,-15,928,-0.98,0.35,-0.63
340,-15,931,-1.19,0.35,-0.7
340,-7,929,-1.33,0.21,-0.84
350,-9,928,-1.54,0.35,-0.7
354,-13,934,-1.96,0.63,-0.49
355,-14,939,-1.96,0.84,-0.56
356,-15,945,-1.33,0.98,-0.49
351,-17,945,-0.98,0.98,-0.28
345,-20,948,-0.63,0.98,-0.14
343,-16,952,-0.28,1.05,-0.35
343,-10,956,-0.07,0.84,-0.42
345,-17,964,-0.56,0.77,-0.21
346,-18,964,-0.84,0.56,-0.49
346,-14,963,-0.56,0.14,-0.63
343,-13,962,-0.21,-0.28,-0.63
341,-14,966,-0.21,-0.7,-0.56
340,-9,969,-0.63,-1.05,-0.63
343,-3,967,-1.19,-1.33,-0.56
342,-4,966,-2.38,-1.75,-0.21
339,-6,960,-3.64,-2.1,-0.28
337,-13,956,-4.27,-2.45,-0.42
337,-19,952,-4.62,-2.45,-0.49
337,-18,953,-4.62,-2.45,-0.49
336,-16,953,-4.41,-2.45,-0.28
337,-17,953,-4.27,-2.52,-0.14
340,-20,945,-4.2,-2.59,-0.21
343,-21,940,-3.5,-2.38,-0.49
346,-24,939,-2.38,-2.24,-0.7
348,-26,940,-1.33,-2.17,-0.77
347,-22,937,-0.56,-2.1,-0.7
346,-13,929,-0.07,-2.1,-0.63
345,-9,921,0.35,-2.1,-0.49
347,-3,917,0.63,-2.1,-0.42
344,-3,921,0.49,-2.1,-0.35
343,-2,920,0.14,-2.17,-0.28
344,-1,915,-0.14,-2.1,-0.14
349,-3,909,-0.28,-1.89,0.0
349,-12,908,-0.28,-1.54,0.28
348,-20,909,0.14,-1.12,0.35
349,-16,910,0.91,-0.7,0.49
356,-15,910,1.12,-0.28,0.77
359,-14,910,0.91,0.21,0.84
359,-13,910,0.77,0.7,0.77
356,-14,914,0.77,0.91,0.84
351,-18,912,0.35,0.98,1.05
347,-24,912,0.07,1.12,0.91
344,-27,915,-0.14,1.33,0.91
340,-27,921,-0.35,1.61,0.98
342,-18,924,-0.49,1.75,0.84
345,-19,926,-0.91,1.54,0.84
342,-27,929,-1.47,1.54,0.7
344,-30,931,-1.75,1.54,0.28
345,-29,937,-2.1,1.68,0.07
343,-34,941,-2.8,1.82,0.21
342,-36,942,-3.36,1.96,0.21
339,-35,946,-3.57,2.03,0.21
339,-34,948,-3.5,1.89,-0.07
338,-29,948,-3.29,1.54,-0.42
337,-25,950,-3.15,1.05,-0.7
335,-16,949,-3.64,0.56,-0.91
336,-7,953,-4.9,0.14,-0.84
337,-8,960,-7.07,-0.07,-0.49
339,-7,965,-9.59,0.0,-0.21
340,-6,971,-11.48,0.14,-0.07
344,-19,968,-11.97,-0.14,0.07
344,-35,970,-10.99,-0.21,-0.07
340,-43,970,-8.75,-0.56,-0.28
343,-32,968,-6.23,-0.91,-0.35
346,-22,967,-4.76,-1.33,-0.07
343,-21,971,-4.76,-1.47,0.56
341,-20,971,-5.11,-1.54,0.7
341,-24,966,-4.69,-1.82,0.63
340,-34,965,-3.64,-1.96,0.7
338,-36,961,-2.17,-2.03,0.63
341,-27,958,-0.7,-2.24,0.56
343,-19,953,0.07,-2.38,0.91
341,-18,950,0.21,-2.59,1.26
339,-20,946,-0.07,-2.73,1.61
336,-24,943,-0.56,-2.87,1.75
337,-18,935,-1.26,-2.94,1.68
339,-22,930,-2.17,-2.8,1.75
341,-36,930,-2.73,-2.66,1.82
344,-40,927,-2.52,-2.31,1.96
348,-45,928,-2.31,-1.96,2.17
345,-47,926,-2.24,-1.68,2.31
345,-55,923,-1.96,-1.47,2.45
345,-63,923,-1.4,-1.12,2.31
345,-64,927,-1.05,-0.98,2.03
346,-66,929,-0.35,-0.98,1.75
345,-66,924,0.07,-1.05,1.4
343,-72,923,0.7,-1.12,0.91
343,-69,926,1.61,-1.05,0.49
341,-62,930,2.17,-1.12,0.28
341,-50,927,2.1,-1.26,0.07
344,-43,922,1.54,-1.12,0.0
346,-34,919,0.63,-0.91,-0.28
348,-19,914,-0.42,-0.7,-0.49
348,-9,912,-1.68,-0.42,-0.28
347,-8,911,-3.71,-0.14,0.14
347,-7,909,-5.81,0.49,0.63
348,-8,914,-7.77,1.12,1.33
345,-25,921,-9.52,1.89,2.1
342,-37,921,-9.66,2.17,2.31
341,-55,928,-8.89,2.52,2.52
339,-67,936,-7.0,2.66,2.24
342,-68,940,-4.48,2.24,1.89
345,-67,937,-2.31,1.68,1.68
344,-72,933,-1.26,1.05,1.54
342,-79,935,-0.77,0.91,1.26
344,-71,940,0.0,0.84,0.84
344,-65,947,0.42,0.77,0.84
343,-63,950,0.56,0.7,0.98
341,-63,952,0.49,0.56,1.05
343,-70,950,0.56,0.49,0.84
344,-72,947,0.91,0.63,0.35
342,-68,945,1.19,0.7,0.14
340,-74,947,1.19,0.49,0.0
340,-70,949,1.05,0.42,-0.42
340,-61,951,0.56,0.21,-0.56
341,-59,948,-0.56,-0.07,-0.56
343,-62,947,-1.82,-0.14,-0.7
341,-62,949,-2.94,-0.14,-1.05
339,-63,948,-3.15,-0.28,-1.4
336,-69,952,-2.87,-0.35,-1.47
331,-74,951,-2.17,-0.42,-1.68
332,-71,948,-0.91,-0.49,-1.82
332,-66,949,0.07,-0.56,-1.89
334,-59,946,0.63,-0.56,-1.89
336,-50,945,0.91,-0.77,-2.03
341,-44,943,0.7,-0.91,-2.03
344,-46,946,-0.07,-1.05,-1.96
343,-49,949,-1.26,-0.98,-1.89
343,-46,947,-2.1,-0.77,-1.96
343,-54,949,-2.66,-0.63,-1.61
342,-52,949,-2.52,-0.42,-1.75
343,-38,948,-1.33,-0.56,-1.96
344,-38,950,-0.49,-0.98,-1.82
340,-44,941,-0.28,-1.47,-1.61
335,-45,938,-0.35,-1.54,-1.75
335,-28,935,-0.21,-1.54,-1.82
336,-23,936,-0.7,-1.61,-1.19
335,-34,934,-1.61,-1.61,-0.63
337,-46,928,-1.75,-1.33,-0.35
339,-45,923,-0.63,-0.91,-0.56
342,-37,926,1.05,-0.49,-0.49
342,-36,932,2.17,-0.35,0.0
342,-38,928,2.45,-0.28,0.42
342,-45,925,2.38,-0.07,0.7
338,-46,918,2.24,0.35,0.63
337,-36,915,2.52,0.49,0.42
335,-37,918,2.31,0.42,0.63
330,-43,923,1.54,0.21,0.84
331,-51,929,0.77,0.28,0.7
338,-42,923,0.77,0.28,0.42
348,-33,913,0.7,0.49,0.56
348,-33,910,-0.21,0.7,0.91
340,-42,911,-1.89,0.77,1.19
333,-50,912,-3.36,1.12,1.12
328,-49,913,-4.41,1.61,1.05
331,-49,918,-5.18,1.96,1.19
332,-57,927,-6.02,2.24,1.4
337,-64,933,-6.02,2.52,0.91
340,-70,938,-4.69,2.52,0.49
339,-72,942,-2.94,2.52,0.35
336,-67,945,-1.54,2.24,0.21
335,-63,950,-1.33,2.03,0.28
334,-55,952,-1.75,1.96,0.14
332,-59,953,-2.59,1.82,0.28
327,-69,962,-3.22,1.82,0.21
326,-66,970,-2.66,1.54,-0.28
333,-57,977,-1.61,1.19,-0.63
337,-43,974,-0.91,0.84,-0.7
334,-45,974,-0.77,0.35,-0.42
331,-54,974,-1.12,0.14,-0.35
331,-45,965,-0.98,-0.07,-0.63
332,-43,968,-1.26,-0.28,-0.28
329,-51,975,-2.24,-0.35,0.28
324,-46,971,-2.66,-0.7,0.21
324,-47,968,-2.8,-0.98,0.28
326,-47,964,-2.66,-1.19,0.21
331,-48,964,-2.52,-1.61,0.35
332,-47,956,-2.45,-2.03,0.35
330,-49,953,-2.8,-2.24,0.63
327,-48,950,-3.29,-2.31,0.7
328,-48,946,-3.15,-2.38,0.77
330,-59,947,-3.08,-2.38,1.12
330,-64,947,-3.22,-2.17,1.4
335,-56,943,-3.15,-1.96,1.33
340,-55,940,-3.29,-2.03,1.4
342,-55,936,-3.43,-2.1,1.4
342,-61,936,-3.57,-2.17,1.54
339,-75,936,-3.78,-2.1,1.61
337,-90,940,-3.64,-1.68,1.61
331,-97,947,-2.59,-1.26,1.4
328,-92,945,-0.63,-1.12,1.33
329,-87,941,1.47,-1.05,1.33
331,-82,941,2.87,-1.19,1.12
334,-80,944,3.08,-1.33,0.91
336,-80,943,2.73,-1.4,0.56
337,-71,941,2.1,-1.54,0.14
334,-69,941,1.26,-1.61,0.07
334,-67,938,0.77,-1.82,0.0
333,-65,930,0.56,-1.96,0.0
334,-67,927,0.49,-1.89,-0.07
335,-68,925,0.63,-1.75,-0.14
338,-64,919,1.05,-1.4,-0.21
343,-62,917,1.61,-1.12,-0.21
343,-69,917,1.68,-0.77,0.0
338,-68,916,1.89,-0.49,-0.21
336,-70,913,2.1,-0.28,-0.21
335,-77,911,2.1,0.14,-0.21
331,-82,916,2.17,0.49,-0.28
329,-82,923,2.59,0.77,-0.42
334,-77,926,3.5,0.91,-0.56
340,-73,925,4.34,0.84,-0.63
339,-69,925,5.25,0.98,-0.77
335,-62,926,5.95,1.12,-0.98
336,-54,931,6.02,1.19,-1.05
334,-43,937,5.04,1.26,-0.91
331,-35,941,3.08,1.19,-0.63
333,-39,947,0.28,1.19,-0.14
336,-44,948,-2.17,1.05,-0.21
336,-51,953,-3.92,0.98,-0.35
335,-61,960,-4.76,0.91,-0.42
335,-64,967,-4.62,0.7,-0.56
341,-72,973,-4.13,0.42,-0.42
344,-75,973,-3.64,0.21,-0.28
339,-76,975,-2.87,-0.07,-0.35
327,-68,977,-1.89,-0.56,-0.7
320,-60,974,-1.12,-1.47,-0.91
321,-59,970,-1.26,-2.24,-1.05
323,-59,972,-2.17,-2.45,-1.26
325,-49,968,-2.8,-2.73,-1.68
328,-45,962,-3.01,-3.15,-1.54
333,-51,954,-2.8,-3.29,-1.33
339,-44,944,-1.96,-3.22,-1.4
342,-41,939,-0.91,-3.08,-1.12
342,-41,931,-0.35,-2.73,-0.56
339,-43,925,-0.07,-2.17,0.07
336,-49,923,0.07,-1.4,0.7
333,-59,932,-0.07,-0.56,1.33
330,-57,931,0.21,0.14,1.33
329,-52,929,1.05,0.21,1.47
330,-55,922,1.75,-0.14,1.47
327,-60,915,2.52,-0.63,1.12
331,-64,912,3.15,-0.84,0.63
336,-64,913,3.36,-0.91,0.49
340,-59,916,3.15,-0.56,0.7
342,-56,919,2.8,-0.14,1.26
342,-57,924,2.17,0.42,1.75
339,-64,927,1.82,1.19,2.03
336,-62,928,2.17,1.75,1.89
336,-62,931,2.45,2.03,1.82
335,-68,932,2.03,1.96,1.68
333,-71,930,1.4,1.82,1.4
331,-76,933,0.42,1.82,1.12
328,-76,931,-0.35,1.75,0.77
329,-75,929,-1.05,1.68,0.63
329,-73,930,-1.54,1.75,0.42
331,-71,934,-2.03,1.82,0.28
328,-66,943,-2.38,2.1,0.07
322,-70,958,-2.87,2.17,0.14
317,-79,965,-3.01,2.38,0.0
318,-73,961,-1.89,2.31,-0.63
322,-77,964,-0.91,2.24,-0.63
321,-82,969,-0.42,2.17,-0.77
321,-73,979,-0.35,1.68,-0.91
325,-62,983,-0.56,0.98,-1.19
331,-52,983,-0.91,0.07,-1.33
334,-57,985,-1.54,-0.84,-1.33
329,-67,988,-1.96,-1.33,-1.33
323,-69,990,-1.96,-1.61,-1.47
320,-64,991,-1.68,-1.61,-1.26
321,-55,992,-1.26,-1.75,-1.05
323,-47,990,-0.91,-2.17,-0.98
325,-43,984,-0.56,-2.59,-1.05
327,-40,976,-0.63,-3.15,-1.33
332,-32,964,-0.84,-3.78,-1.61
335,-26,954,-1.47,-4.27,-1.47
333,-21,950,-2.66,-4.55,-1.19
330,-19,939,-3.5,-4.83,-0.84
332,-16,927,-3.43,-5.04,-0.28
338,-23,919,-3.29,-5.11,0.35
344,-32,907,-2.94,-4.76,0.98
347,-33,902,-2.24,-4.06,1.47
345,-36,903,-1.82,-3.22,2.31
340,-44,900,-1.19,-2.38,3.01
336,-54,896,-0.28,-1.75,3.57
332,-60,892,0.91,-1.12,3.64
330,-64,886,2.52,-0.7,3.43
329,-72,885,3.92,-0.28,3.29
329,-74,886,4.76,0.14,3.15
333,-77,888,5.11,0.56,3.22
335,-81,889,4.97,1.12,3.15
338,-79,894,5.04,1.75,2.94
337,-73,897,4.97,2.24,2.94
335,-71,901,4.48,2.66,2.87
335,-69,903,3.5,3.08,2.73
335,-72,905,2.03,3.29,2.52
333,-78,910,0.56,3.5,2.31
325,-88,917,-0.7,3.71,2.1
320,-90,923,-1.61,3.78,1.75
321,-89,926,-2.17,3.78,1.4
325,-85,929,-2.45,3.71,0.84
325,-86,937,-2.73,3.57,0.63
330,-88,948,-3.15,3.5,0.28
335,-78,953,-3.29,3.43,-0.42
338,-75,953,-3.29,3.15,-0.63
334,-86,955,-3.5,3.15,-0.56
324,-83,959,-3.36,3.29,-0.77
315,-76,966,-3.08,3.22,-0.63
311,-66,971,-3.08,3.01,-0.63
310,-57,970,-3.15,2.52,-0.63
314,-57,970,-3.36,1.89,-0.7
318,-56,966,-3.71,1.26,-0.91
319,-51,967,-4.27,0.84,-1.05
319,-49,968,-5.46,0.56,-0.84
319,-49,963,-7.0,0.28,-0.49
320,-57,962,-8.33,0.14,-0.07
321,-62,963,-8.75,0.28,0.0
324,-65,971,-8.19,0.49,0.14
330,-78,981,-7.14,0.7,0.35
327,-89,984,-5.53,0.7,0.56
321,-90,983,-3.5,0.63,0.63
317,-83,980,-1.4,0.35,0.56
315,-85,978,-0.21,0.07,0.77
312,-89,979,0.42,-0.21,0.7
312,-82,980,1.05,-0.56,0.42
313,-75,985,1.4,-1.19,0.35
316,-69,979,1.47,-1.75,0.21
315,-65,973,1.54,-2.31,0.21
317,-62,968,1.61,-2.59,0.07
320,-57,966,1.54,-2.73,0.07
320,-55,963,0.98,-2.8,0.35
320,-55,959,0.07,-2.8,0.77
319,-56,954,-0.84,-2.8,0.98
320,-55,947,-1.47,-2.73,1.12
323,-59,944,-2.31,-2.66,1.33
322,-71,943,-3.08,-2.59,1.54
319,-84,943,-3.36,-2.59,1.61
319,-91,942,-2.73,-2.52,1.47
320,-90,943,-1.61,-2.45,1.4
321,-90,942,-0.7,-2.38,1.61
323,-86,939,0.07,-2.45,1.47
323,-88,939,0.56,-2.45,1.33
322,-90,936,0.84,-2.52,1.19
324,-103,935,0.91,-2.45,1.19
325,-103,938,0.77,-2.24,0.98
324,-95,938,0.56,-2.03,0.77
323,-99,937,0.14,-2.17,0.77
325,-101,939,-0.14,-2.17,0.35
327,-96,933,0.21,-2.59,-0.28
333,-98,931,0.0,-2.59,-0.7
329,-94,934,-0.77,-2.45,-1.05
325,-96,935,-1.96,-2.45,-1.05
325,-91,929,-3.22,-2.38,-1.19
324,-86,922,-4.13,-2.24,-1.47
327,-88,923,-5.04,-1.96,-1.54
329,-87,925,-5.46,-1.54,-1.96
330,-79,926,-5.46,-1.47,-2.1
329,-77,926,-5.6,-1.4,-1.89
330,-80,924,-5.95,-1.19,-1.82
329,-83,928,-5.95,-0.77,-1.68
327,-87,931,-5.46,-0.21,-1.4
326,-84,934,-4.34,0.14,-1.26
328,-82,933,-2.8,0.35,-1.05
326,-83,935,-1.12,0.28,-0.84
325,-81,938,0.28,0.28,-0.84
325,-75,943,0.98,0.07,-0.7
325,-73,945,0.91,-0.14,-0.49
326,-73,949,0.21,-0.21,-0.35
325,-69,950,-0.56,-0.28,-0.49
327,-58,949,-0.63,-0.56,-0.7
333,-56,948,-0.49,-0.98,-0.63
338,-62,945,-0.56,-1.33,-0.49
337,-64,942,-0.49,-1.47,-0.42
335,-65,935,-0.49,-1.47,0.0
331,-63,934,-0.84,-1.12,0.49
324,-66,935,-1.96,-0.63,1.33
320,-77,940,-2.87,-0.14,1.68
321,-89,942,-3.15,0.28,1.82
323,-97,942,-2.52,0.77,1.68
326,-92,938,-0.98,0.77,1.12
326,-97,938,0.49,0.49,0.98
324,-108,940,1.61,0.42,0.91
326,-105,938,2.38,0.35,0.77
327,-98,941,2.66,0.42,0.84
326,-89,948,2.03,0.35,1.12
324,-78,949,0.56,0.21,1.33
326,-72,953,-1.12,-0.14,1.26
325,-72,955,-2.73,-0.35,1.12
323,-78,952,-3.99,-0.63,0.98
322,-89,950,-4.69,-0.98,0.7
325,-89,949,-4.76,-0.91,0.49
326,-80,949,-4.83,-0.91,0.77
325,-83,946,-5.25,-0.91,1.12
324,-92,948,-5.39,-1.05,1.12
323,-101,948,-4.76,-1.19,0.77
323,-104,948,-3.5,-1.4,0.49
326,-95,947,-2.17,-1.4,0.28
326,-86,942,-1.26,-1.68,0.49
328,-91,942,-1.26,-1.82,0.84
327,-91,946,-1.4,-1.61,0.7
328,-82,944,-1.26,-1.61,0.7
326,-81,937,-1.26,-1.47,0.84
322,-80,930,-1.61,-1.4,0.98
320,-77,930,-1.82,-1.33,1.12
322,-78,932,-2.73,-1.19,1.33
322,-81,932,-3.99,-0.77,1.54
324,-86,930,-5.32,-0.63,1.68
325,-94,926,-6.37,-0.49,1.61
328,-101,925,-6.93,-0.42,1.61
327,-109,925,-7.56,-0.28,1.68
324,-123,924,-8.05,0.07,1.82
324,-133,921,-7.91,0.49,1.82
323,-141,922,-7.14,1.05,1.68
319,-141,936,-6.16,1.47,1.47
318,-138,936,-4.69,1.61,0.91
320,-139,937,-2.8,1.75,0.42
321,-134,950,-0.98,1.82,-0.07
324,-123,956,0.7,1.68,-0.56
328,-112,959,1.26,1.12,-0.77
329,-113,958,0.63,0.49,-0.7
326,-122,956,-0.35,0.0,-0.7
323,-125,955,-0.63,-0.07,-1.12
321,-122,963,-0.28,-0.28,-1.4
321,-121,970,0.0,-0.42,-1.19
322,-112,970,0.7,-0.63,-1.19
326,-102,968,1.4,-0.98,-1.26
331,-97,963,1.75,-1.33,-1.4
331,-95,962,1.33,-1.47,-1.47
326,-92,954,0.28,-1.61,-1.47
323,-91,945,-0.91,-1.82,-1.4
321,-95,940,-2.24,-1.82,-1.19
325,-97,936,-2.87,-1.75,-1.19
328,-95,935,-2.73,-1.75,-1.19
329,-97,934,-2.03,-1.68,-0.98
331,-102,934,-1.12,-1.68,-0.7
329,-100,924,0.0,-1.54,-0.63
325,-90,917,1.05,-1.33,-0.35
323,-93,915,1.12,-0.98,0.07
322,-96,912,0.77,-0.63,0.28
325,-94,908,0.84,-0.14,0.28
327,-92,910,0.77,0.28,0.49
324,-93,909,0.84,0.56,0.63
325,-96,908,0.77,0.77,0.98
323,-106,909,0.35,1.19,0.98
321,-113,916,0.35,1.68,0.98
319,-116,922,0.84,1.96,0.91
318,-120,929,1.26,2.03,0.98
318,-121,937,1.54,2.17,0.77
319,-116,939,1.68,2.1,0.42
322,-115,941,1.61,2.03,0.14
319,-114,943,1.12,1.89,-0.07
317,-112,946,0.56,1.75,-0.35
320,-111,951,-0.14,1.54,-0.56
322,-107,953,-0.91,1.19,-0.77
322,-98,951,-1.75,1.05,-0.91
321,-100,953,-2.45,0.91,-0.84
321,-107,956,-3.29,0.91,-0.84
321,-102,951,-3.57,0.91,-1.19
321,-96,952,-3.5,0.91,-1.12
321,-108,958,-3.99,0.84,-0.7
320,-117,959,-4.2,0.91,-0.77
319,-116,961,-3.85,0.84,-0.91
318,-117,961,-3.5,0.77,-0.91
320,-112,958,-2.94,0.56,-1.12
325,-107,955,-2.52,0.14,-1.26
326,-120,953,-2.8,-0.21,-1.12
325,-120,952,-2.94,-0.28,-1.33
323,-104,950,-3.01,-0.14,-1.47
315,-104,954,-3.92,-0.07,-0.84
308,-106,955,-4.9,0.07,-0.7
307,-100,950,-5.11,-0.07,-0.98
310,-103,945,-4.97,-0.42,-1.12
313,-114,947,-4.83,-0.7,-1.33
316,-108,945,-4.62,-0.84,-1.68
320,-107,937,-4.34,-1.19,-1.47
321,-117,932,-4.41,-1.26,-1.12
316,-119,933,-3.78,-1.26,-0.91
315,-117,936,-2.66,-1.12,-0.77
317,-121,938,-1.47,-0.98,-0.56
315,-130,938,-0.63,-0.56,-0.28
316,-123,936,0.91,-0.07,-0.56
319,-107,932,2.52,0.21,-0.77
320,-97,937,3.5,0.35,-0.49
317,-115,944,3.15,0.56,0.28
315,-119,943,3.01,0.77,0.07
312,-107,943,3.43,0.91,-0.07
309,-108,949,3.15,0.84,0.21
308,-114,951,2.45,0.49,0.35
309,-116,955,1.89,0.14,0.07
314,-115,960,1.47,-0.07,-0.14
322,-114,961,0.84,-0.35,-0.42
324,-123,965,0.21,-0.56,-0.49
324,-128,967,-0.21,-0.42,-0.56
321,-130,965,-0.28,-0.49,-0.63
318,-137,962,-0.35,-0.49,-0.56
316,-136,958,-0.35,-0.42,-0.84
317,-130,963,-0.42,-0.35,-1.12
316,-127,968,-0.91,-0.42,-1.33
318,-126,966,-1.05,-0.7,-1.61
316,-130,962,-1.12,-0.98,-1.89
313,-135,959,-0.91,-1.26,-2.17
310,-130,960,-0.56,-1.26,-2.52
312,-120,967,-0.63,-1.4,-2.52
309,-118,970,-1.33,-1.61,-2.45
308,-113,963,-1.4,-2.1,-2.8
311,-108,956,-0.7,-2.73,-3.29
313,-104,952,0.0,-3.57,-3.57
318,-99,947,0.0,-3.99,-3.71
324,-84,941,-0.35,-4.27,-3.78
326,-71,931,-0.91,-4.41,-3.43
323,-62,920,-1.33,-4.55,-2.94
319,-61,911,-1.47,-4.55,-2.38
321,-72,907,-1.89,-4.27,-1.61
321,-73,897,-1.96,-3.43,-1.33
324,-68,893,-1.4,-2.52,-0.7
321,-69,888,-0.98,-1.54,0.14
318,-75,884,-0.28,-0.77,0.98
320,-91,889,0.42,0.07,1.54
320,-97,896,0.98,0.98,1.89
318,-99,897,1.54,1.75,2.17
317,-110,902,1.82,2.31,2.59
310,-110,905,2.31,2.59,2.45
309,-105,900,3.15,2.45,2.38
312,-114,904,2.94,2.52,2.45
314,-116,910,1.54,2.87,2.38
309,-116,920,-0.21,3.29,2.45
311,-120,929,-1.96,3.78,2.52
311,-114,932,-3.22,4.13,2.31
312,-120,936,-4.2,4.27,2.24
314,-133,940,-4.97,4.41,1.82
314,-135,943,-5.32,4.41,0.98
316,-140,953,-5.46,4.34,0.56
315,-142,964,-5.88,4.06,0.35
310,-139,967,-6.44,3.64,0.28
308,-141,971,-6.79,3.15,0.0
309,-141,975,-6.93,2.59,-0.35
314,-142,978,-6.93,2.1,-0.84
319,-135,980,-5.95,1.61,-1.47
320,-133,977,-4.62,0.98,-1.75
318,-132,969,-2.94,0.49,-1.82
315,-128,965,-1.4,0.28,-1.68
309,-127,963,-0.56,0.35,-1.33
308,-129,963,-0.42,0.63,-1.05
307,-129,963,-0.42,1.05,-0.77
305,-126,963,-0.21,1.26,-0.77
303,-117,964,0.35,1.26,-0.98
308,-115,966,0.77,0.84,-1.05
311,-133,968,0.42,0.35,-0.98
312,-153,968,0.35,0.14,-1.26
311,-154,970,1.4,0.14,-1.68
309,-144,971,2.94,-0.07,-1.75
306,-145,979,3.92,-0.35,-1.33
301,-143,979,4.55,-0.77,-1.61
299,-145,980,5.11,-1.12,-1.82
305,-146,982,5.39,-1.33,-2.45
312,-130,973,5.88,-1.47,-3.15
313,-112,971,5.95,-1.68,-3.36
310,-104,965,5.25,-2.1,-3.29
308,-98,956,4.69,-2.59,-3.43
309,-91,951,4.13,-2.94,-3.29
307,-100,949,3.57,-3.08,-3.08
306,-100,950,3.99,-2.87,-3.15
306,-77,943,5.32,-2.87,-3.08
306,-73,932,6.3,-3.15,-2.38
305,-84,925,6.58,-3.36,-1.82
305,-76,921,6.79,-3.29,-2.1
312,-55,919,6.79,-3.15,-2.03
317,-48,919,5.32,-2.94,-1.33
317,-47,916,3.08,-2.59,-0.7
318,-43,913,1.4,-2.31,-0.28
318,-54,914,0.07,-1.75,0.42
313,-60,917,-0.35,-1.19,0.84
313,-59,910,0.28,-0.91,1.26
311,-60,906,0.84,-0.7,1.89
304,-76,907,0.77,-0.56,2.59
302,-95,910,0.35,-0.14,3.01
308,-100,919,-0.35,0.63,3.15
313,-103,926,-1.4,1.26,3.43
312,-118,931,-2.59,1.68,3.78
311,-133,934,-2.94,1.82,3.57
308,-148,939,-2.03,1.96,2.87
310,-171,954,-0.28,1.96,2.38
310,-184,963,1.26,2.24,1.82
310,-175,969,2.87,2.52,1.19
305,-162,975,3.99,2.31,0.84
303,-144,977,4.69,1.61,0.0
305,-121,972,5.04,0.35,-1.26
307,-114,970,4.2,-0.98,-2.03
309,-121,971,2.1,-1.61,-2.66
310,-110,967,-0.42,-2.1,-3.36
315,-84,956,-2.87,-2.24,-3.43
318,-70,946,-5.53,-2.31,-2.87
316,-70,942,-7.7,-2.38,-2.45
314,-80,942,-8.61,-2.17,-2.31
315,-79,938,-7.91,-1.96,-2.52
311,-76,934,-6.93,-1.68,-2.03
309,-76,926,-6.23,-1.19,-1.4
310,-66,916,-5.18,-0.63,-0.91
311,-62,911,-4.41,-0.28,-0.14
310,-75,912,-3.64,0.0,0.77
309,-92,915,-2.8,0.63,1.19
309,-84,920,-1.4,1.19,1.33
307,-74,925,0.0,1.54,1.82
302,-83,931,0.91,1.61,2.59
300,-96,933,1.75,1.89,2.87
303,-106,936,3.36,1.89,2.73
309,-120,939,4.83,2.17,2.87
310,-121,943,5.67,2.52,3.01
313,-120,953,5.6,2.87,3.15
314,-121,963,4.9,2.94,3.22
309,-131,970,4.27,2.59,3.01
303,-148,977,3.99,2.17,2.45
296,-156,981,4.62,1.68,1.4
300,-156,986,5.39,1.4,0.56
307,-151,994,5.74,1.05,-0.07
309,-141,992,5.95,0.56,-0.77
310,-139,986,6.72,-0.21,-1.26
307,-151,984,7.49,-0.77,-1.54
303,-145,990,8.19,-0.98,-2.24
300,-109,993,8.47,-1.26,-2.66
299,-81,981,7.63,-1.89,-2.45
294,-82,964,6.09,-2.66,-2.31
292,-91,956,5.11,-3.22,-2.59
296,-84,953,4.55,-3.43,-3.08
304,-61,950,3.78,-3.29,-3.08
307,-53,948,1.82,-3.08,-2.1
307,-53,942,-0.56,-2.8,-1.12
311,-46,935,-2.17,-2.45,-0.7
311,-56,931,-3.01,-2.17,-0.28
308,-82,934,-3.43,-1.75,0.0
303,-93,939,-2.59,-1.33,-0.07
