acc_x[mg],acc_y[mg],acc_z[mg],gyro_x[dps],gyro_y[dps],gyro_z[dps]
510,21,852,1.96,1.89,-0.28
518,24,855,2.66,1.33,-0.42
535,29,851,3.08,0.91,-0.56
539,32,853,2.45,0.7,-0.49
521,43,853,1.33,0.77,-0.56
508,48,863,0.28,0.7,-0.35
520,45,861,-0.14,0.63,-0.14
533,46,855,0.35,0.42,0.35
537,37,851,0.49,0.49,1.05
536,17,856,-0.07,0.84,1.89
528,18,854,-0.98,1.26,1.96
517,30,856,-1.47,1.54,1.75
502,19,865,-2.45,1.33,1.82
491,6,878,-3.01,0.84,1.4
510,14,869,-1.82,0.35,0.49
537,22,859,-0.7,-0.21,0.35
542,7,854,-0.98,-0.49,0.77
535,7,847,-1.12,-0.56,0.7
532,20,840,-0.91,-0.49,0.63
531,7,842,-1.33,-0.56,1.19
513,0,846,-1.75,-0.42,1.12
509,11,846,-0.91,-0.07,0.56
525,18,844,-0.28,-0.14,0.42
532,13,839,-0.35,0.0,0.63
540,9,842,-0.28,0.56,0.77
539,9,849,-0.77,1.05,0.91
523,1,858,-1.47,1.54,1.26
511,-13,869,-2.17,1.75,1.4
517,-9,876,-1.68,1.68,0.7
521,4,879,-0.42,1.26,0.21
532,8,877,0.63,0.49,0.0
538,11,863,0.98,-0.7,-0.14
529,14,852,0.98,-1.68,-0.35
505,15,859,0.21,-2.24,-0.42
510,1,866,-1.05,-1.82,-0.07
543,14,862,-1.68,-0.98,-0.14
558,16,862,-2.03,-0.28,0.63
545,1,863,-1.89,0.14,1.12
539,9,848,-0.35,-0.07,0.49
532,12,834,0.91,-0.63,0.28
506,-2,833,0.77,-0.84,0.07
489,6,842,0.21,-0.91,-0.63
498,24,849,-0.63,-0.91,-0.77
511,35,853,-2.24,-1.05,-0.28
540,42,836,-2.87,-1.19,-0.28
558,37,820,-2.66,-1.47,-0.21
549,24,815,-2.24,-1.54,-0.14
534,21,817,-1.75,-1.12,-0.07
522,18,818,-1.68,-0.7,0.56
515,-6,825,-2.45,0.07,1.47
509,-13,839,-1.96,0.91,1.33
515,-6,848,-0.14,1.4,1.05
517,-2,856,1.19,1.26,0.84
516,-7,863,1.26,1.12,0.63
522,9,854,1.61,0.91,-0.35
520,13,858,1.05,0.56,-0.42
517,-3,862,-0.35,0.28,-0.35
528,-4,858,-0.56,0.0,-0.77
538,2,857,0.14,-0.21,-0.7
528,6,857,0.35,-0.56,-0.56
520,9,857,0.35,-0.84,-0.56
522,18,847,0.07,-1.19,-0.84
521,25,837,-0.56,-1.4,-0.91
514,12,839,-1.89,-1.19,-0.7
524,14,839,-2.8,-0.63,-0.77
543,24,835,-3.29,-0.07,-0.49
546,11,833,-3.71,0.56,0.21
541,-4,837,-3.01,1.33,0.42
540,6,835,-0.7,1.82,0.0
526,4,846,1.05,1.61,0.35
512,0,851,1.47,1.68,0.56
511,11,851,1.68,1.75,0.21
503,9,855,1.19,1.47,0.49
500,0,858,0.63,1.12,0.35
520,14,855,1.19,0.77,-0.42
532,24,853,1.4,0.28,-0.63
523,9,863,0.49,0.07,-0.28
526,9,861,0.35,0.21,-0.7
531,27,852,0.91,0.21,-0.77
517,23,854,0.77,0.28,0.0
512,11,857,0.56,0.49,0.28
517,25,851,0.98,0.49,0.14
527,22,853,0.63,0.7,0.7
545,5,860,-0.49,1.05,1.12
547,-2,863,-1.89,1.54,1.26
528,-6,861,-2.24,1.82,1.12
494,-26,862,-1.89,1.54,0.84
466,-33,861,-0.28,0.77,-0.07
458,-21,867,1.82,-0.28,-1.12
477,3,863,2.52,-0.77,-1.82
518,22,855,1.68,-0.77,-1.96
545,26,850,-0.21,-0.42,-1.54
560,28,844,-1.33,0.0,-1.4
558,23,839,-2.17,0.35,-0.84
558,16,831,-2.73,0.98,-0.42
546,15,826,-2.8,1.33,-0.28
519,2,834,-2.73,1.47,0.21
495,-10,841,-2.24,1.4,0.07
496,1,835,-0.77,1.19,-0.56
506,8,830,0.42,0.91,-0.7
517,3,830,0.42,0.98,-0.63
532,18,829,1.12,1.61,-1.05
539,22,832,1.68,2.17,-0.63
530,17,834,1.89,2.87,-0.07
523,23,830,2.87,3.5,0.14
514,33,834,3.57,3.85,0.63
494,28,840,3.29,3.99,1.19
484,32,845,3.22,4.13,1.12
502,44,843,3.57,3.85,0.91
514,43,848,2.87,3.43,1.26
509,29,856,1.26,3.57,1.61
515,34,850,0.49,3.85,1.26
517,23,850,-0.21,3.99,1.82
507,-2,848,-0.7,4.41,2.03
500,-14,853,0.42,4.9,1.82
502,-18,854,2.03,5.32,1.75
494,-21,857,3.01,5.67,1.68
476,-20,874,3.43,6.09,1.47
490,-8,878,3.64,5.95,0.84
520,2,874,3.15,5.32,0.35
529,-17,877,1.54,5.04,0.35
516,-49,878,0.21,4.69,-0.21
500,-54,881,0.7,4.41,-1.47
490,-51,890,0.91,3.78,-2.03
482,-38,899,0.84,3.08,-2.73
476,-21,908,0.56,2.31,-3.36
494,-6,910,0.14,1.68,-3.99
521,22,897,-0.56,0.91,-4.97
524,43,889,-2.31,0.21,-5.11
507,48,888,-5.11,-0.49,-4.9
493,64,875,-7.28,-0.7,-5.18
489,69,872,-8.89,-0.91,-4.62
482,58,884,-10.43,-0.56,-3.5
500,61,888,-10.15,0.0,-3.15
521,78,880,-8.68,0.21,-2.31
524,77,874,-7.63,0.28,-0.42
514,56,880,-6.58,0.21,0.7
507,47,888,-3.85,-0.07,0.63
489,40,895,-1.19,-0.77,0.77
465,25,901,0.14,-1.33,1.19
467,4,893,0.84,-1.61,1.26
479,1,884,2.66,-1.61,0.84
488,4,881,5.04,-1.47,1.12
489,4,889,6.51,-1.4,1.61
504,10,889,7.07,-1.33,1.82
516,13,891,6.79,-1.54,1.96
509,0,902,5.25,-1.4,2.03
499,0,900,4.41,-1.47,1.33
493,17,889,4.2,-2.31,0.56
485,13,873,3.22,-3.71,0.49
475,0,857,1.4,-4.9,0.0
480,0,845,0.07,-5.18,-0.84
489,1,854,-1.47,-4.62,-0.77
509,-1,856,-3.5,-3.36,-0.21
541,-1,846,-4.41,-2.17,0.14
546,-13,838,-4.34,-1.26,0.84
521,-34,835,-2.45,-0.84,0.91
496,-33,844,0.35,-0.63,0.21
480,-22,850,2.24,-0.7,-0.35
476,-27,864,1.89,-0.91,-0.49
492,-25,867,0.91,-0.91,-1.12
500,1,861,0.63,-1.05,-1.96
500,9,856,0.42,-1.54,-2.24
501,13,844,0.07,-2.38,-2.94
496,43,836,-0.21,-2.73,-3.85
497,60,840,-1.47,-2.66,-3.64
518,71,838,-3.43,-2.24,-3.01
539,63,837,-5.6,-1.47,-1.68
537,36,836,-6.93,-0.42,-0.49
514,23,844,-6.51,0.91,0.0
504,22,844,-4.83,1.68,0.42
496,20,847,-3.36,1.75,0.77
486,12,851,-2.24,1.47,0.77
475,-1,863,-1.33,0.98,0.49
487,-7,874,-0.63,0.77,-0.07
510,6,875,0.49,0.49,-0.63
518,5,880,1.19,0.21,-0.35
508,-2,877,1.82,-0.21,-0.28
492,16,872,3.22,-0.49,-0.84
492,42,863,4.48,-1.12,-1.05
486,39,865,3.29,-1.75,-0.42
483,36,867,1.26,-1.33,-0.07
506,55,864,-0.14,-0.7,0.07
533,52,860,-1.82,-0.14,1.05
532,18,860,-3.57,0.14,2.1
528,-11,864,-3.92,0.56,2.52
524,-16,861,-3.43,1.12,2.24
504,-23,858,-3.15,0.91,2.1
471,-57,872,-3.15,0.28,1.89
462,-61,881,-1.47,-0.14,0.07
478,-29,881,1.61,-0.7,-1.4
489,-13,879,3.15,-1.12,-1.54
513,-8,875,3.5,-1.26,-1.75
539,12,864,3.36,-1.05,-2.03
532,35,856,2.52,-0.77,-1.75
502,27,862,0.42,-0.49,-0.98
491,28,862,-0.98,-0.35,-1.12
492,34,863,-1.61,-0.63,-1.12
482,13,875,-2.31,-0.7,-0.63
482,10,877,-2.66,-0.56,-0.84
508,25,863,-2.03,-0.98,-1.12
513,27,854,-2.17,-1.47,-0.91
494,15,855,-2.59,-1.75,-1.12
489,14,860,-2.45,-1.96,-1.54
502,22,859,-2.1,-1.82,-1.61
500,15,866,-2.17,-1.19,-0.7
497,2,872,-1.61,-0.28,0.0
507,13,876,0.0,0.42,0.28
513,36,870,1.54,0.63,0.49
506,37,864,2.17,0.14,0.77
490,22,865,1.96,-0.63,0.56
477,32,862,1.89,-1.12,0.0
478,39,856,1.47,-1.4,0.14
485,24,856,0.07,-1.68,0.7
494,12,857,-0.77,-1.33,0.98
513,23,853,-0.07,-0.56,0.98
527,26,850,0.35,-0.14,1.54
519,14,853,0.14,0.28,2.17
516,10,847,0.63,0.63,1.96
519,8,837,1.33,0.77,1.96
498,-10,842,1.33,0.84,2.31
476,-27,859,1.47,1.12,1.96
480,-9,872,2.31,1.33,1.19
502,2,875,2.38,1.05,1.05
500,-8,884,1.26,0.7,0.91
504,-2,883,1.05,0.56,-0.07
520,23,870,1.33,0.0,-0.7
516,23,860,0.56,-0.7,-0.42
489,4,871,-0.49,-1.05,-0.14
490,14,879,-0.49,-0.7,-0.56
515,37,879,-0.49,-0.7,-0.14
504,25,882,-1.89,-0.77,1.26
493,8,880,-2.38,-0.63,1.33
502,17,877,-1.4,-0.91,0.7
506,10,866,-1.12,-1.19,0.84
490,-9,865,-1.33,-1.33,0.77
485,-12,870,-1.12,-1.05,0.28
496,1,873,-0.14,-1.05,0.0
487,9,873,0.28,-1.19,0.28
492,14,867,1.05,-1.4,0.14
500,32,855,1.89,-1.75,-0.35
497,48,847,2.31,-1.96,-0.21
491,51,842,1.05,-2.1,0.35
483,52,838,-0.98,-1.96,0.98
484,40,844,-2.87,-1.26,1.54
494,28,849,-3.71,-0.42,2.17
513,21,849,-3.92,0.42,2.87
524,11,854,-3.99,0.84,3.15
523,-4,860,-3.5,1.05,3.08
509,-10,861,-2.24,0.91,2.59
491,-16,859,-1.33,0.42,2.31
467,-38,874,-1.05,0.14,1.89
473,-30,888,0.0,0.21,0.84
497,-4,891,1.33,-0.07,0.42
508,-3,895,1.26,-0.35,0.98
516,3,891,1.12,-0.35,0.63
526,29,875,1.33,-0.77,0.21
522,31,859,0.49,-1.4,0.49
494,13,860,-1.26,-1.89,0.84
480,0,859,-2.73,-2.24,0.77
485,8,856,-3.57,-2.03,0.7
487,8,862,-4.76,-1.68,1.33
495,-5,865,-5.74,-1.33,1.61
516,-3,853,-5.46,-0.98,1.12
525,-8,850,-4.62,-0.56,0.98
522,-12,841,-3.57,-0.21,0.63
507,-11,841,-2.52,-0.21,0.35
485,-10,842,-1.68,-0.21,0.28
487,0,842,-0.7,0.0,0.21
504,9,850,0.14,0.07,0.49
515,20,851,0.28,0.28,0.91
518,22,847,-0.07,0.28,1.4
508,11,841,-0.98,0.42,1.68
504,5,832,-1.12,0.77,1.47
499,-2,839,-0.77,0.98,1.54
490,-15,854,-0.35,1.47,1.75
486,-10,862,0.7,1.68,1.75
477,-9,862,1.47,1.68,2.03
477,-20,869,1.61,1.68,2.03
500,-21,875,1.68,2.1,1.33
538,-4,877,1.96,2.52,0.77
541,-12,883,0.77,2.73,1.4
510,-25,884,-0.28,2.52,1.54
480,-20,876,0.0,1.75,0.84
467,-16,866,0.91,0.77,0.28
457,-25,868,0.91,-0.28,0.0
469,-17,874,0.63,-0.49,-0.56
500,10,865,0.0,-0.56,-0.7
514,10,862,-2.1,-0.21,0.07
519,0,855,-3.78,0.35,0.28
524,-2,846,-3.5,1.12,-0.21
519,-10,843,-2.38,1.68,0.0
492,-29,844,-1.68,2.03,0.14
467,-31,859,-0.49,2.24,-0.07
469,-34,884,0.07,2.45,0.14
499,-18,889,0.98,2.8,-0.28
519,-5,886,1.75,2.66,-0.28
513,-19,886,2.03,2.24,-0.14
512,-18,882,2.8,1.61,-0.98
509,6,877,3.64,0.98,-1.61
487,0,878,2.59,0.21,-1.12
455,-11,885,0.98,-0.14,-1.12
455,1,889,0.77,-0.07,-1.61
479,25,887,1.12,-0.21,-1.61
499,28,884,0.42,-0.21,-1.05
507,27,880,-0.63,-0.14,-0.98
524,41,864,-0.98,0.21,-1.19
531,41,847,-1.61,0.21,-0.42
508,11,849,-3.22,0.35,0.7
487,-14,853,-3.57,0.84,0.77
481,-9,861,-2.31,1.26,0.49
456,-13,888,-1.54,1.33,1.12
446,-22,906,-1.12,1.54,1.26
476,0,894,0.56,1.4,0.35
504,8,876,1.61,0.98,0.14
504,-10,869,1.96,0.7,0.0
498,-10,867,2.8,0.14,-0.49
487,2,860,3.01,-0.35,-0.56
457,6,863,1.61,-0.63,-0.14
447,6,870,0.07,-0.63,-0.14
462,7,886,-1.33,-0.63,-0.07
493,5,882,-2.59,-0.07,-0.14
517,4,863,-3.29,0.42,-0.42
517,-8,849,-3.64,0.91,-0.28
501,-25,850,-2.73,0.91,-0.63
487,-24,850,-0.98,1.05,-0.98
471,-21,860,-0.07,1.19,-0.7
452,-23,884,-0.28,1.4,-0.42
463,-6,894,0.0,1.4,-0.7
492,6,887,0.49,1.05,-0.84
501,-7,880,0.14,0.91,-0.84
504,-14,881,0.56,1.05,-1.4
509,11,879,1.68,1.05,-1.75
505,20,879,1.4,0.77,-0.98
478,3,887,0.35,0.49,-0.35
465,2,890,0.42,0.21,-0.63
470,15,892,0.98,-0.07,-0.84
476,14,896,0.56,-0.21,-0.49
492,12,885,-0.42,-0.56,-0.42
498,14,874,-1.61,-0.91,-0.35
494,6,868,-3.01,-1.26,-0.21
486,-2,864,-3.99,-1.61,-0.49
465,-5,873,-4.55,-1.75,-0.63
459,-5,887,-5.46,-1.54,-0.56
487,14,884,-6.09,-1.4,-0.98
509,34,876,-7.07,-1.61,-0.63
505,18,880,-8.75,-1.68,0.07
493,0,883,-9.73,-1.33,-0.07
483,7,882,-8.96,-1.26,-0.49
463,-7,889,-8.96,-1.26,0.56
457,-34,889,-8.75,-1.05,0.77
464,-33,886,-6.65,-0.98,0.14
484,-34,885,-3.71,-1.33,-0.07
500,-36,888,-1.33,-1.96,-0.49
506,-28,884,0.21,-2.17,-0.91
504,-18,880,1.05,-2.31,-1.12
492,-20,877,0.91,-2.1,-0.84
483,-18,875,1.33,-1.82,-0.84
480,-6,871,2.45,-1.68,-0.91
474,-1,876,3.08,-1.68,-0.56
478,6,876,3.15,-1.33,-0.49
489,23,879,2.52,-1.19,-0.14
498,24,885,0.42,-0.98,0.49
490,18,891,-2.31,-0.7,0.77
490,11,883,-3.71,-0.77,0.7
486,6,872,-4.06,-1.4,0.56
469,-7,865,-3.99,-2.17,0.42
460,-13,862,-3.43,-2.94,0.0
470,-11,859,-3.22,-3.36,-0.14
490,-15,854,-3.5,-3.08,0.28
508,-15,846,-3.57,-2.24,0.77
518,-16,838,-3.22,-1.26,1.19
518,-18,831,-2.45,-0.56,1.33
500,-26,831,-1.33,-0.21,1.33
483,-36,835,-0.35,0.28,1.05
482,-30,839,0.63,0.84,0.42
481,-23,846,0.91,1.05,0.49
484,-28,846,0.42,1.05,0.63
483,-18,843,0.35,1.12,0.21
493,-7,843,0.49,1.05,-0.07
502,-6,846,0.07,0.7,-0.14
492,-11,853,-1.05,0.84,0.0
488,-12,854,-1.89,1.47,0.07
497,-14,854,-2.1,1.96,0.28
503,-24,861,-1.61,2.31,0.63
486,-38,872,-0.63,2.45,0.84
480,-44,886,0.56,2.87,0.7
498,-26,888,1.89,3.15,0.14
504,-20,892,2.31,3.01,0.21
492,-29,898,2.1,2.66,0.14
483,-16,900,2.31,2.24,-0.49
490,3,893,2.73,1.54,-0.84
488,0,889,1.96,0.35,-0.42
468,-16,891,0.84,-0.35,-0.56
460,-4,890,0.35,-0.84,-1.12
475,12,881,-0.35,-1.19,-0.98
481,4,881,-1.89,-1.26,-0.28
486,-2,887,-2.8,-0.63,-0.35
503,9,877,-2.45,-0.07,-0.35
507,5,865,-2.59,0.07,0.42
483,-19,868,-3.01,0.14,0.7
467,-14,864,-2.24,0.07,0.21
464,0,859,-1.61,-0.35,0.0
457,-15,860,-2.66,-0.7,0.42
468,-15,855,-2.87,-0.7,-0.07
491,2,855,-2.8,-0.56,-0.07
503,-7,857,-3.92,-0.14,0.63
498,-19,856,-4.48,0.56,0.84
485,-23,854,-3.78,1.19,0.7
474,-34,858,-2.17,1.68,0.7
474,-48,863,-1.12,2.1,0.84
476,-51,871,-0.7,2.52,0.77
475,-42,888,-0.28,3.01,0.56
481,-32,895,0.0,2.66,0.42
485,-32,895,-0.42,2.03,0.28
489,-33,889,-1.05,1.68,-0.21
489,-30,882,-1.19,1.26,-0.77
481,-33,879,-1.4,1.05,-0.77
464,-38,885,-1.75,1.12,-0.56
461,-32,889,-1.33,1.33,-0.49
473,-21,888,-0.56,1.12,-0.28
470,-31,897,-0.77,1.12,0.21
460,-33,898,-0.91,1.26,-0.21
481,-13,892,-0.14,1.47,-1.12
501,-6,895,0.0,1.19,-1.12
496,-16,901,-0.28,1.05,-0.77
483,-3,896,0.35,0.84,-0.84
469,1,887,0.91,0.28,-0.42
447,-13,885,1.19,-0.28,-0.07
443,-9,886,1.89,-0.49,-0.28
474,7,886,2.31,-0.21,-0.21
509,15,875,1.54,-0.07,0.56
506,-5,879,0.49,0.35,1.33
489,-17,888,0.7,0.98,1.12
475,-11,891,1.61,0.98,0.84
454,-20,895,1.19,0.84,1.26
437,-37,907,0.77,0.84,0.84
449,-33,921,1.12,0.77,0.14
484,-12,911,1.82,0.21,-0.14
493,-1,906,1.54,-0.49,0.0
478,1,896,1.05,-1.54,-0.07
470,4,885,0.84,-2.52,-0.28
476,5,869,0.35,-3.01,-0.28
476,-4,859,-1.19,-3.08,0.35
462,-26,869,-2.73,-2.31,1.12
472,-30,872,-3.08,-1.12,1.4
491,-26,870,-2.52,-0.14,1.68
484,-34,879,-2.03,0.28,1.68
471,-29,878,-0.42,0.42,0.98
472,-19,868,1.26,-0.07,0.35
462,-25,866,1.12,-0.49,0.21
451,-29,871,0.35,-0.7,-0.14
462,-23,872,-0.07,-0.63,-0.28
488,-23,868,-0.28,-0.49,0.0
501,-20,858,0.07,-0.28,0.28
493,-16,852,0.77,-0.28,0.56
477,-9,848,1.05,-0.28,0.42
455,-14,855,0.28,-0.21,0.56
451,-30,859,-1.19,0.49,0.63
457,-25,875,-1.96,1.61,0.35
477,-33,884,-2.24,2.45,0.84
489,-45,886,-2.24,2.87,1.05
502,-35,881,-0.84,2.94,0.28
507,-32,879,0.63,2.1,-0.21
492,-46,879,0.63,1.12,-0.14
476,-52,872,0.0,0.42,-0.49
458,-50,871,-1.19,-0.21,-0.84
454,-56,882,-2.31,-0.56,-1.12
468,-49,892,-2.24,-0.7,-1.96
486,-33,898,-1.96,-0.56,-2.17
495,-29,900,-2.45,-0.21,-2.1
494,-23,895,-3.15,0.42,-2.38
487,-12,892,-3.71,0.84,-2.59
473,-11,891,-4.76,0.77,-2.52
458,-12,892,-5.39,0.14,-2.66
449,-1,891,-5.46,-0.56,-2.94
451,19,885,-4.76,-1.47,-3.08
451,18,894,-5.11,-2.45,-2.24
470,12,891,-6.02,-2.59,-1.89
495,37,872,-5.6,-2.31,-1.75
502,32,857,-5.25,-1.89,-0.35
491,-3,858,-4.69,-1.61,0.63
477,-18,864,-2.52,-0.98,0.7
469,-8,864,0.07,-0.49,1.05
452,-29,870,1.05,0.0,2.1
446,-47,883,2.1,0.91,2.24
463,-20,887,4.27,1.68,1.54
477,-7,891,5.25,1.61,1.96
475,-19,888,4.69,1.19,2.24
474,-22,877,4.34,0.56,1.54
463,-15,863,4.13,-0.14,0.84
442,-28,860,2.66,-0.84,1.05
440,-47,866,0.49,-0.91,0.91
449,-43,878,-0.77,-0.42,0.7
467,-49,886,-1.82,0.42,0.91
480,-43,884,-2.59,1.05,0.77
492,-49,886,-3.01,1.26,1.05
489,-65,880,-3.29,1.54,0.56
479,-62,872,-2.66,1.54,-0.56
464,-71,871,-2.59,1.19,-0.91
444,-75,879,-3.01,0.84,-1.33
441,-64,889,-2.87,0.77,-1.82
448,-40,890,-2.38,0.84,-2.24
454,-28,902,-2.38,0.84,-2.1
477,-11,903,-2.03,1.05,-2.52
506,19,891,-1.19,0.98,-2.59
513,4,885,-2.17,0.84,-1.26
499,-13,879,-3.22,0.77,-0.49
475,-22,879,-2.8,0.84,-0.14
449,-35,897,-2.52,0.7,0.14
445,-39,922,-2.17,0.42,0.14
461,-32,931,-1.54,-0.21,-0.07
473,-28,920,-1.19,-0.7,-0.56
475,-22,903,-0.42,-1.12,-1.4
481,-9,884,0.77,-1.82,-2.03
479,1,873,0.98,-2.66,-1.82
466,2,871,-0.07,-2.8,-1.19
472,0,877,-1.4,-2.17,-0.42
492,5,884,-1.82,-1.4,0.35
498,-14,900,-2.31,-0.7,1.75
497,-37,903,-2.87,0.07,2.24
500,-43,893,-2.38,0.42,1.89
480,-53,879,-1.68,0.07,1.61
433,-89,880,-1.26,-0.7,1.33
400,-106,891,-0.28,-1.12,-0.07
416,-72,892,1.96,-1.75,-1.75
465,-53,898,2.87,-2.45,-1.75
507,-55,898,2.38,-2.8,-1.68
512,-47,896,1.96,-2.38,-2.03
504,-30,881,2.31,-1.96,-2.52
488,-32,866,2.03,-2.03,-2.1
458,-56,866,1.4,-1.96,-1.68
425,-55,869,1.54,-1.75,-1.89
421,-42,870,1.68,-1.54,-1.89
430,-41,878,0.77,-1.75,-1.82
453,-40,883,0.14,-1.89,-2.52
487,-31,877,0.07,-1.75,-3.5
500,-17,867,-0.49,-1.33,-3.85
486,-22,861,-1.61,-1.05,-3.57
472,-24,853,-2.03,-0.84,-3.64
448,-20,852,-1.47,-0.63,-3.64
415,-21,866,-0.91,-0.21,-3.08
424,0,879,0.21,0.14,-3.08
478,26,885,0.7,0.21,-2.52
510,22,887,0.0,0.49,-1.54
509,-5,889,-0.7,1.12,-0.84
503,-18,884,0.42,1.61,-0.84
492,-31,884,2.24,1.54,-0.49
458,-49,897,4.13,1.33,-0.14
434,-49,919,5.88,0.98,-0.35
452,-27,930,7.35,0.35,-0.77
469,0,942,7.84,-0.56,-1.12
488,3,949,7.0,-1.33,-1.19
506,13,930,5.6,-1.96,-1.54
493,27,907,4.2,-2.31,-1.54
467,30,890,3.64,-2.45,-0.91
452,47,878,3.22,-2.59,-0.21
437,36,891,1.12,-2.87,0.77
431,19,898,-1.61,-3.22,0.77
456,25,893,-3.57,-3.85,0.21
486,26,872,-5.25,-4.34,0.07
495,31,848,-5.32,-4.69,0.07
484,16,840,-5.04,-4.9,0.91
473,-15,845,-5.53,-4.69,1.82
462,-31,844,-5.25,-4.27,2.17
460,-43,843,-3.85,-3.71,2.45
466,-58,850,-2.03,-2.94,2.38
474,-52,861,0.14,-1.96,2.1
495,-39,868,1.96,-0.91,2.24
501,-22,861,2.24,-0.07,2.31
483,-13,853,1.96,0.35,1.96
446,-24,853,1.12,0.14,1.61
420,-24,852,0.0,0.07,0.98
424,-11,862,-1.4,0.14,0.84
444,-10,873,-3.92,0.07,1.26
467,-22,880,-6.23,0.21,1.68
493,-25,874,-6.86,0.49,1.54
510,-25,865,-5.88,0.35,1.26
499,-48,868,-4.27,0.0,1.33
482,-50,868,-2.31,0.0,0.98
476,-34,871,-0.84,0.14,1.33
469,-40,880,-1.19,0.35,2.38
470,-45,886,-1.75,0.56,2.45
480,-46,891,-2.03,0.84,2.31
495,-45,886,-1.89,1.12,1.54
488,-41,882,-1.12,0.84,0.77
476,-43,878,0.07,0.35,0.28
466,-33,863,0.7,-0.35,-0.21
453,-23,856,0.21,-0.84,-0.28
439,-19,858,-0.98,-1.26,-0.14
450,-17,861,-2.24,-1.12,-0.21
485,-2,862,-3.15,-0.63,-0.28
515,1,855,-4.69,-0.21,0.35
522,-16,843,-6.16,0.63,0.91
502,-44,841,-6.37,1.4,1.26
487,-60,841,-4.69,2.17,1.19
468,-60,849,-2.31,2.59,1.33
442,-79,869,-0.77,3.01,1.96
430,-85,893,0.84,3.29,1.54
463,-65,903,3.29,3.71,0.56
502,-32,897,5.25,3.43,-0.21
508,-29,895,4.97,2.66,-0.07
491,-29,883,3.99,1.82,-0.7
466,-9,873,3.64,1.05,-1.26
440,-13,877,2.45,0.28,-0.84
424,-20,888,0.42,-0.07,-0.63
436,-12,901,-1.26,0.14,-0.28
473,-15,897,-2.38,0.77,0.28
492,-23,898,-2.87,1.47,0.7
495,-32,904,-2.94,2.1,0.7
499,-20,898,-2.31,2.45,0.21
478,-33,890,-2.8,2.31,0.77
435,-54,894,-3.22,2.03,0.63
402,-49,913,-2.24,1.75,-0.07
425,-17,923,-0.42,1.33,-0.42
461,4,925,0.0,0.56,0.28
486,-7,928,-0.91,0.35,1.4
493,6,923,-1.26,0.63,1.4
490,21,916,-1.19,0.56,2.03
463,1,914,-1.89,0.07,3.01
438,-6,916,-1.75,-0.21,3.22
428,-6,921,-0.84,-0.56,3.43
431,-10,928,-0.35,-0.7,4.06
458,-22,929,0.0,-0.84,4.55
486,-16,906,1.12,-1.12,4.41
493,-29,892,1.89,-1.47,4.62
490,-57,882,2.38,-1.89,4.27
470,-56,873,3.5,-2.45,3.29
445,-58,874,3.92,-2.94,3.08
436,-69,876,3.15,-3.29,2.59
436,-61,875,2.59,-3.36,1.75
451,-54,876,2.52,-2.94,1.05
472,-41,878,2.31,-2.45,0.77
498,-24,866,1.82,-2.17,0.77
508,-17,848,0.7,-1.96,1.12
477,-36,844,-0.7,-1.68,1.61
455,-62,847,-1.68,-1.19,1.82
456,-57,851,-1.05,-0.42,1.33
448,-57,875,-0.21,0.14,1.75
440,-80,904,0.35,0.49,2.38
465,-85,903,1.54,0.84,2.03
493,-62,888,3.71,1.12,1.19
484,-72,888,5.04,0.91,1.12
451,-89,896,6.65,0.56,0.28
425,-63,906,10.08,0.21,-0.7
428,-40,920,13.37,-0.07,-0.56
453,-34,933,15.82,-0.14,0.0
484,-24,947,17.78,0.21,0.63
502,-6,947,18.76,0.56,1.19
491,5,942,19.04,0.42,1.47
446,2,951,18.83,-0.21,1.33
427,-3,963,19.95,-1.19,0.77
435,4,957,21.56,-2.24,0.49
438,0,957,21.84,-3.08,1.26
450,-17,955,21.28,-3.5,1.19
477,6,943,22.26,-4.2,0.14
487,21,921,22.89,-5.46,0.14
467,19,903,22.54,-6.93,0.21
452,21,882,22.05,-8.12,-0.42
439,40,861,21.0,-9.03,-0.63
435,47,847,18.69,-8.89,-0.28
452,62,833,16.38,-8.26,-0.14
491,67,817,14.0,-7.7,0.35
511,59,798,10.92,-6.79,1.26
504,57,792,8.05,-5.39,1.68
505,53,776,6.09,-4.34,2.1
482,41,770,3.85,-3.57,2.73
461,22,788,1.47,-2.24,3.22
471,17,808,-0.28,-1.12,3.15
492,11,815,-1.89,-0.14,3.43
494,-15,827,-2.87,0.63,3.64
495,-37,839,-2.31,1.19,2.94
490,-31,849,-0.14,1.33,1.75
461,-28,862,1.26,1.12,1.61
445,-40,879,1.33,0.77,1.54
444,-30,897,1.33,0.63,0.91
469,-15,922,1.4,0.91,0.84
506,-5,931,0.56,0.98,0.98
521,-4,930,-0.98,0.77,1.05
500,-7,924,-1.54,0.07,0.35
458,-5,928,-0.98,-1.05,-0.63
428,4,943,-0.63,-2.38,-1.4
445,12,951,-1.68,-3.15,-1.61
490,8,953,-4.27,-3.36,-1.19
499,15,941,-6.58,-2.87,-1.19
477,25,936,-6.86,-3.22,-1.26
458,25,927,-6.37,-4.62,-1.54
436,34,918,-5.6,-6.09,-2.24
429,47,913,-5.25,-6.86,-2.52
462,66,892,-4.97,-7.42,-2.31
496,54,882,-5.74,-7.63,-0.84
522,31,874,-6.02,-6.72,-0.14
531,51,866,-4.41,-5.67,0.07
508,49,865,-3.5,-5.39,1.4
463,29,865,-3.64,-5.53,2.03
447,28,853,-2.66,-5.67,1.54
453,24,847,-2.1,-5.74,1.54
471,0,852,-2.45,-5.25,1.75
492,17,850,-1.54,-4.48,1.05
505,44,847,-0.21,-4.2,1.19
504,31,848,-0.21,-4.48,1.96
496,26,846,0.14,-4.62,1.96
501,39,839,0.42,-4.34,1.89
504,33,829,-1.05,-4.2,2.8
484,-9,836,-3.78,-3.78,3.78
480,-33,841,-4.2,-2.59,3.36
494,-19,848,-2.24,-1.82,2.8
510,-23,857,-1.05,-1.4,3.08
520,-15,861,-1.05,-1.61,2.73
502,-16,858,-2.03,-1.89,2.66
478,-33,850,-3.29,-1.82,1.89
462,-25,846,-3.22,-2.03,0.42
475,-35,855,-3.01,-2.66,0.14
504,-34,851,-3.22,-2.66,-0.49
501,-13,844,-2.8,-2.17,-0.77
487,-22,844,-2.45,-2.17,-0.42
479,-29,838,-1.96,-2.38,-0.7
477,-8,828,-1.19,-1.82,-1.4
475,5,827,-1.54,-1.12,-1.33
479,2,826,-2.87,-0.77,-0.98
483,6,824,-3.43,-0.35,-1.12
495,14,828,-2.73,0.21,-1.19
515,18,836,-2.52,0.7,-0.91
522,18,840,-2.8,0.98,-0.49
515,5,840,-3.01,1.47,0.0
503,-2,840,-2.31,1.82,0.14
489,-4,846,-0.84,1.75,0.07
467,-11,867,0.07,1.75,0.14
468,-11,883,0.28,1.96,-0.14
474,4,895,-0.35,2.1,-0.21
489,0,910,-1.89,2.52,-0.07
508,0,912,-2.59,2.52,-0.77
513,1,909,-2.66,1.89,-1.19
490,-6,913,-3.36,0.84,-1.12
466,-8,932,-4.48,-0.14,-1.33
478,8,932,-5.6,-1.12,-1.75
484,9,933,-7.35,-1.89,-1.47
475,-9,935,-9.17,-2.17,-1.05
480,-7,927,-8.82,-2.52,-1.47
496,-5,920,-7.91,-2.8,-1.19
510,-14,908,-7.7,-2.66,-0.84
510,-25,912,-7.84,-2.31,-0.28
504,-41,917,-7.98,-1.75,0.07
490,-39,917,-7.0,-1.4,0.07
473,-58,920,-5.95,-1.68,0.42
468,-69,917,-4.48,-2.31,-0.56
459,-38,908,-1.89,-3.5,-2.03
463,-27,905,-0.7,-5.32,-2.66
487,-29,893,-1.12,-7.21,-3.43
505,-10,881,-1.12,-8.19,-4.48
508,13,875,-1.47,-8.54,-4.55
508,14,871,-3.15,-8.89,-3.64
511,21,850,-4.41,-8.68,-3.22
509,23,830,-4.2,-8.12,-2.73
505,0,826,-3.92,-7.49,-1.89
508,-5,822,-3.29,-6.3,-1.75
507,20,813,-2.24,-4.97,-1.54
492,7,826,-2.59,-4.06,-0.35
489,-16,832,-3.15,-3.71,-0.07
504,-3,819,-2.24,-3.36,-0.49
509,1,805,-1.82,-3.01,-0.63
485,-16,810,-2.45,-3.08,-0.7
484,-39,823,-2.1,-3.01,-1.05
502,-21,825,-0.42,-2.45,-1.82
511,0,827,1.33,-1.75,-1.33
503,-23,840,1.19,-1.19,-0.14
506,-38,853,1.12,0.0,0.07
524,-23,848,1.89,1.12,-0.14
508,-25,845,1.61,1.61,0.28
472,-50,863,0.49,1.47,0.07
468,-52,877,0.35,0.91,-1.19
492,-36,868,0.28,-0.07,-1.89
487,-52,869,-1.33,-1.05,-1.89
480,-74,880,-2.66,-1.54,-2.73
505,-59,876,-2.38,-2.17,-4.13
514,-49,863,-2.52,-2.31,-4.34
506,-52,866,-3.57,-1.96,-4.76
511,-34,866,-3.64,-1.75,-5.6
516,-8,848,-3.43,-1.68,-5.67
501,-6,838,-3.99,-1.61,-5.18
473,-17,858,-4.69,-1.47,-4.97
487,-5,857,-4.34,-1.26,-5.25
522,19,854,-3.85,-0.63,-4.97
539,0,863,-4.69,-0.07,-3.57
545,-23,869,-4.48,0.77,-3.29
543,-1,864,-1.96,1.05,-3.71
524,-2,859,-0.07,0.28,-3.15
495,-16,864,0.84,-0.7,-3.15
479,-7,865,2.17,-1.47,-3.78
476,13,865,3.01,-1.89,-3.78
506,18,866,3.08,-1.82,-3.22
545,29,862,2.8,-1.54,-2.87
556,41,851,2.52,-0.98,-2.24
528,32,841,1.54,-0.84,-1.33
489,10,837,0.07,-0.91,-1.19
476,0,833,-0.42,-1.12,-1.68
471,-6,842,-0.98,-1.26,-1.96
494,-9,851,-1.96,-1.26,-1.96
510,-3,841,-3.5,-1.47,-1.89
513,-8,824,-4.97,-1.89,-1.96
497,-18,813,-6.37,-2.45,-2.52
483,-5,800,-7.49,-3.01,-3.29
472,5,792,-9.73,-3.5,-3.57
468,-12,794,-13.02,-3.22,-3.43
493,-36,791,-15.05,-2.24,-3.64
522,-45,781,-14.14,-0.14,-4.13
534,-36,790,-10.99,2.38,-3.71
532,-35,796,-7.84,4.48,-2.45
524,-22,798,-5.04,5.95,-1.96
488,-21,808,-2.87,7.07,-1.54
473,-35,819,-1.05,7.84,-1.47
483,-29,820,0.49,8.19,-1.89
491,-17,825,1.61,8.47,-1.75
489,-23,840,1.61,8.4,-1.33
488,-23,855,1.54,8.26,-1.26
492,-6,859,1.89,8.33,-1.54
489,2,861,2.73,8.05,-1.68
478,-11,872,3.01,7.77,-1.4
478,-9,872,2.94,7.91,-1.61
481,7,876,2.59,8.12,-1.54
482,3,894,0.56,8.33,-0.63
487,3,907,-1.96,8.33,-0.35
505,-2,906,-4.41,8.12,-0.07
498,-14,904,-7.21,7.49,-0.07
480,-25,908,-10.15,6.72,-0.49
483,-17,906,-13.09,5.46,-1.33
478,-21,900,-16.87,4.2,-1.47
467,-45,903,-19.95,3.43,-1.82
480,-45,909,-20.44,3.01,-2.73
492,-45,924,-20.58,3.08,-2.8
513,-50,926,-19.11,3.78,-3.29
532,-56,918,-14.56,4.2,-3.22
515,-89,917,-9.52,4.69,-2.17
489,-92,916,-4.69,5.25,-1.82
476,-48,919,-0.7,4.97,-1.75
454,-27,931,0.21,3.92,-0.77
439,-20,939,-0.07,2.59,-0.77
456,14,933,0.84,1.26,-1.96
482,35,926,1.05,-0.14,-2.24
492,19,919,-0.35,-1.12,-1.68
484,15,896,-1.33,-1.33,-1.75
461,12,881,-1.75,-1.12,-1.19
450,-20,894,-2.45,-0.42,-0.07
468,-23,904,-1.75,0.56,0.0
483,-7,913,-0.35,1.54,0.49
483,-19,922,0.0,2.03,1.61
471,-25,921,0.42,1.61,1.68
455,-7,915,1.12,0.56,1.05
453,0,905,1.19,-0.98,0.7
452,-10,894,-0.35,-2.59,0.77
446,-31,892,-2.45,-3.5,0.98
450,-16,893,-3.08,-3.15,0.77
447,-6,905,-3.78,-2.8,1.96
478,-35,906,-4.62,-1.96,3.01
506,-31,888,-3.22,-0.63,2.87
498,-35,880,-0.7,0.42,3.57
464,-63,887,0.7,0.21,4.13
433,-76,888,1.33,-0.28,3.78
431,-85,891,1.33,-0.63,3.29
441,-90,895,0.77,-0.98,2.94
443,-93,912,0.14,-1.26,2.66
463,-86,915,0.0,-1.61,2.03
493,-61,896,0.28,-2.24,1.05
500,-55,883,-0.35,-2.87,0.63
474,-59,874,-1.68,-3.36,0.07
456,-54,868,-2.66,-3.5,-0.63
455,-43,866,-3.71,-3.22,-0.7
459,-40,862,-4.62,-3.08,-0.28
462,-39,861,-5.53,-2.8,0.35
488,-23,849,-6.16,-1.89,0.28
510,-8,836,-6.79,-1.4,0.49
505,-38,836,-7.42,-1.19,0.98
477,-54,836,-6.72,-0.7,0.63
470,-56,840,-5.11,-0.14,0.63
462,-65,860,-3.71,0.07,0.91
451,-72,888,-2.1,0.49,1.54
491,-67,897,0.42,0.98,1.54
523,-45,891,2.66,1.19,1.33
521,-45,882,4.48,0.91,1.26
491,-47,879,5.88,-0.07,0.63
472,-25,877,7.21,-0.7,-0.14
468,-9,877,7.21,-1.4,0.14
452,-25,885,5.25,-1.89,1.33
455,-40,891,3.15,-1.47,1.96
485,-10,888,3.08,-0.84,1.82
503,-10,893,1.75,-0.84,3.01
505,-45,889,-1.4,-0.63,3.5
504,-48,872,-2.73,-0.35,2.45
494,-55,867,-3.08,-0.35,2.31
461,-88,875,-3.64,-0.98,2.17
430,-103,896,-3.22,-1.47,1.68
445,-90,906,-1.68,-1.54,1.05
474,-71,907,-0.49,-1.61,0.98
504,-82,902,0.14,-1.68,0.98
521,-82,885,1.12,-1.82,0.42
506,-69,872,2.31,-1.82,-0.21
480,-61,870,3.15,-2.17,-0.63
454,-61,883,3.43,-2.73,-0.56
448,-54,887,2.87,-2.87,-0.35
464,-45,884,1.82,-2.8,0.14
482,-56,882,0.0,-2.38,0.49
480,-53,883,-0.63,-1.68,0.0
484,-41,882,0.14,-1.33,-0.42
485,-42,875,0.56,-1.47,-0.42
485,-38,863,1.54,-1.33,-0.63
492,-35,849,3.57,-1.4,-0.63
479,-42,861,4.69,-1.47,0.28
466,-41,872,4.48,-0.91,0.98
462,0,878,4.13,-0.42,1.05
449,-2,899,2.24,-0.42,2.31
468,-23,897,0.56,-0.35,2.31
507,-2,868,0.91,-0.07,1.54
518,-10,848,0.98,0.14,2.17
494,-33,839,0.7,0.14,2.66
469,-33,843,1.26,0.56,3.01
462,-10,844,1.61,1.26,3.43
451,-1,850,0.49,1.75,4.62
460,-10,847,-1.61,2.59,5.46
483,-1,834,-3.57,3.71,5.46
499,3,821,-6.09,4.97,6.02
495,-13,814,-9.31,6.37,6.86
488,-26,820,-11.62,7.98,7.42
477,-47,839,-12.39,9.17,8.05
464,-83,871,-12.11,9.87,8.96
464,-120,895,-10.78,10.15,9.03
452,-136,906,-8.47,9.66,8.19
451,-161,911,-5.18,8.4,6.93
447,-178,915,-1.47,6.3,4.9
442,-174,915,1.96,4.2,2.73
433,-156,921,3.64,1.75,0.84
431,-143,929,3.01,-0.35,-0.49
455,-122,923,2.24,-1.89,-2.03
476,-102,922,1.33,-2.73,-2.94
491,-96,911,-0.14,-2.87,-3.36
492,-74,893,-1.05,-2.73,-3.92
479,-63,882,-1.96,-2.24,-3.99
472,-44,866,-2.66,-1.68,-3.92
461,-23,858,-3.71,-1.33,-3.22
457,-14,850,-5.6,-0.7,-2.52
458,0,837,-7.42,-0.14,-2.1
460,8,835,-9.17,0.35,-1.47
471,8,831,-10.29,1.05,-0.98
495,14,827,-10.43,1.75,-0.56
510,-6,826,-9.94,2.52,0.91
504,-31,821,-8.4,3.92,2.1
489,-29,821,-4.76,5.39,2.87
473,-41,834,-0.84,6.37,4.27
458,-51,845,3.29,7.28,5.11
444,-43,860,7.63,8.19,5.6
442,-38,875,10.92,8.75,6.23
447,-38,887,12.67,8.82,6.58
448,-51,900,13.02,8.89,6.86
452,-51,910,12.95,8.89,6.51
445,-55,928,12.11,8.12,6.65
440,-76,942,10.29,7.14,6.86
440,-75,945,9.31,5.81,5.88
433,-78,952,8.05,4.06,5.46
427,-87,956,5.95,2.24,4.69
424,-90,956,3.78,0.35,3.57
434,-92,950,1.4,-1.19,2.59
439,-94,939,-1.19,-2.31,1.89
444,-103,926,-3.29,-3.22,1.4
453,-113,922,-4.76,-3.71,0.91
457,-115,917,-5.32,-3.71,0.28
458,-119,910,-5.46,-3.57,0.14
456,-137,910,-5.67,-2.87,0.14
453,-135,921,-4.9,-1.54,-0.28
450,-121,929,-2.87,-0.63,-0.63
448,-119,928,-0.7,-0.63,-0.56
438,-121,928,1.26,-0.91,-0.98
433,-107,932,3.22,-1.61,-1.89
434,-78,942,4.41,-2.8,-2.87
440,-56,948,3.71,-4.41,-3.01
458,-50,938,2.1,-6.02,-3.29
462,-38,928,0.91,-7.35,-3.78
461,-38,922,-0.21,-8.33,-3.71
466,-30,913,-1.19,-9.03,-3.78
461,-21,913,-2.59,-9.24,-3.22
455,-35,912,-4.69,-9.17,-2.24
467,-27,893,-5.39,-8.61,-2.45
459,-18,892,-5.88,-8.12,-2.1
439,-37,902,-7.7,-7.91,-1.54
446,-20,893,-8.4,-7.98,-2.1
454,-10,884,-9.24,-8.33,-1.75
451,-34,872,-10.57,-9.03,-1.33
449,-63,878,-10.85,-9.31,-1.05
474,-65,872,-9.1,-8.89,-1.33
491,-46,856,-6.16,-8.33,-0.84
481,-69,851,-4.2,-7.84,0.77
462,-96,847,-2.38,-7.0,1.26
453,-79,842,0.42,-5.74,0.98
455,-62,822,2.52,-4.83,1.33
450,-79,816,2.45,-3.92,1.96
447,-92,815,2.31,-2.31,1.75
448,-68,818,3.71,-0.77,1.26
447,-58,827,3.64,0.35,2.24
469,-63,820,2.38,1.54,2.73
501,-58,806,1.82,2.66,2.73
508,-77,801,1.47,3.64,3.15
482,-88,816,1.61,4.76,3.15
463,-80,822,2.1,5.25,3.08
461,-72,821,2.03,5.67,3.22
445,-73,827,0.91,6.3,3.43
445,-77,832,-0.56,6.79,3.5
478,-62,822,-1.33,7.42,2.87
497,-51,823,-2.59,7.91,2.87
497,-76,829,-4.62,8.33,3.22
488,-81,821,-5.11,8.96,2.66
468,-74,821,-4.76,9.73,2.66
426,-99,843,-5.11,9.87,3.29
419,-125,858,-4.62,9.94,2.94
441,-110,859,-2.17,10.36,1.68
447,-101,875,-0.42,10.43,1.54
443,-111,885,0.0,9.66,1.26
458,-97,880,0.49,8.75,0.14
469,-81,879,0.91,8.05,-0.63
464,-84,891,1.05,7.28,-0.63
451,-87,897,1.19,6.65,-0.42
432,-84,907,0.98,6.23,-0.21
418,-84,930,0.77,5.74,0.0
434,-73,941,1.33,5.04,-0.35
468,-60,941,1.26,4.2,-0.56
491,-73,938,0.0,3.57,-0.42
484,-77,933,-0.91,3.36,-0.63
469,-67,926,-0.98,3.01,-0.49
428,-78,933,-1.61,2.52,0.35
403,-90,945,-1.96,2.31,0.42
423,-64,949,-0.91,2.03,-0.21
459,-66,956,-1.19,1.61,0.42
487,-97,942,-2.31,1.61,0.63
477,-86,930,-1.19,2.17,-0.28
459,-71,930,0.42,2.52,-0.28
450,-66,922,1.19,1.89,0.21
447,-69,916,0.91,1.68,0.77
445,-64,914,0.35,1.75,0.84
445,-60,911,-0.56,1.4,1.19
452,-62,909,-1.82,1.19,1.19
448,-51,900,-2.87,0.77,0.91
428,-68,903,-4.41,0.21,1.26
415,-78,897,-5.46,-0.07,0.7
415,-64,889,-5.04,-0.49,0.35
422,-67,889,-5.25,-0.91,0.56
429,-66,884,-5.6,-1.12,0.35
426,-61,891,-5.81,-1.12,0.42
433,-53,890,-6.23,-1.12,0.7
438,-45,889,-7.49,-1.33,1.19
427,-58,882,-9.52,-1.89,1.82
412,-88,889,-11.2,-2.1,2.03
413,-99,885,-11.2,-2.17,1.82
409,-111,881,-10.99,-2.17,2.1
406,-129,879,-10.71,-1.82,2.1
411,-138,886,-9.94,-1.4,1.68
417,-133,898,-8.47,-0.91,1.12
408,-131,916,-6.93,-0.98,0.56
401,-140,924,-6.37,-1.47,0.49
420,-150,920,-6.37,-1.47,-0.35
429,-154,922,-5.6,-1.54,-1.19
432,-169,937,-4.69,-1.61,-1.47
454,-169,943,-3.85,-1.61,-2.03
460,-153,949,-3.22,-1.54,-2.31
447,-148,959,-2.94,-1.61,-2.31
427,-145,956,-2.87,-2.03,-2.73
411,-135,953,-3.22,-2.52,-3.15
410,-118,945,-3.36,-2.87,-4.27
418,-99,942,-2.73,-3.29,-4.76
421,-99,946,-3.29,-3.71,-4.34
440,-81,933,-3.85,-4.06,-4.27
452,-58,930,-4.27,-4.27,-3.99
463,-56,911,-5.18,-4.69,-3.29
470,-58,889,-5.74,-5.25,-3.08
458,-66,893,-5.95,-5.53,-2.8
451,-74,883,-5.11,-5.95,-2.45
446,-80,881,-3.64,-6.23,-1.75
435,-94,889,-2.8,-5.74,-0.98
441,-89,890,-1.19,-5.11,-0.56
452,-96,883,0.28,-4.41,0.07
452,-115,886,1.12,-3.64,0.49
451,-111,894,2.8,-2.87,0.14
452,-84,904,4.69,-2.73,-0.35
457,-69,894,5.11,-3.15,-0.21
448,-77,890,3.57,-3.71,-0.14
433,-89,898,1.89,-3.92,-0.28
438,-78,902,1.4,-3.92,-0.49
441,-63,904,0.7,-4.06,-0.07
447,-81,900,-0.98,-4.27,1.05
458,-89,882,-1.75,-4.55,1.05
464,-81,871,-1.89,-4.69,0.77
458,-77,861,-2.38,-5.39,0.42
432,-83,852,-3.92,-6.16,0.28
427,-96,836,-4.76,-6.44,-0.35
419,-96,842,-5.18,-6.16,-0.84
411,-95,859,-5.6,-5.39,-0.77
453,-88,866,-5.74,-4.2,-0.77
505,-73,861,-4.97,-2.73,-0.77
532,-69,862,-3.01,-1.26,-0.28
543,-57,858,-0.49,-0.49,0.35
539,-31,858,1.96,-0.49,1.19
510,-39,864,3.64,-0.91,2.73
470,-64,866,4.27,-1.54,4.13
433,-60,866,4.62,-1.75,4.62
