acc_x[mg],acc_y[mg],acc_z[mg],gyro_x[dps],gyro_y[dps],gyro_z[dps]
-965,-109,240,2.17,-0.21,2.52
-966,-106,241,2.1,-0.14,2.59
-969,-98,238,2.1,-0.21,2.59
-968,-94,238,1.47,-0.14,2.8
-967,-98,242,0.28,-0.14,3.01
-966,-98,240,-0.35,-0.21,2.94
-970,-96,238,-0.21,-0.14,2.87
-968,-98,237,-0.35,-0.07,2.94
-965,-101,240,-0.56,-0.07,3.01
-968,-99,236,-0.28,-0.07,3.01
-972,-94,233,0.56,0.0,3.01
-975,-88,234,0.91,-0.07,3.01
-971,-84,238,0.63,-0.14,2.8
-970,-81,238,-0.21,-0.28,2.59
-973,-84,235,-0.98,-0.28,2.24
-971,-86,237,-1.19,-0.28,1.89
-968,-89,240,-1.12,-0.28,1.75
-968,-91,237,-1.05,-0.14,1.54
-968,-98,237,-0.7,0.0,1.33
-972,-102,231,0.0,0.07,1.19
-975,-99,230,1.26,0.14,0.91
-970,-96,236,2.17,0.14,0.91
-972,-93,238,2.73,0.14,0.63
-968,-90,239,2.59,0.21,0.63
-970,-90,236,1.89,0.14,0.98
-972,-91,233,1.47,0.14,1.12
-967,-97,236,0.7,0.21,1.4
-968,-100,237,0.21,0.21,1.54
-968,-97,237,0.28,0.14,1.61
-968,-96,235,0.07,0.14,1.82
-969,-94,237,-0.35,0.07,2.1
-970,-94,236,-0.84,0.07,2.31
-972,-95,233,-1.12,0.14,2.45
-973,-98,232,-1.33,0.07,2.66
-971,-94,231,-0.98,0.0,2.59
-974,-84,230,-0.49,-0.07,2.59
-972,-79,234,-0.56,-0.07,2.73
-972,-78,232,-1.19,-0.14,2.66
-972,-81,236,-1.54,-0.28,2.52
-970,-83,232,-1.54,-0.35,2.24
-973,-81,231,-1.05,-0.42,2.03
-975,-83,230,-0.7,-0.56,1.82
-973,-80,226,-0.35,-0.63,1.47
-975,-81,228,-0.07,-0.77,1.26
-976,-80,232,0.42,-0.98,0.91
-972,-79,233,0.63,-1.12,0.7
-970,-80,232,0.56,-1.19,0.56
-972,-83,234,0.56,-1.19,0.28
-976,-84,232,0.7,-1.19,0.14
-973,-83,233,0.98,-1.12,0.0
-967,-86,235,1.05,-0.98,-0.07
-967,-89,236,0.84,-0.91,-0.14
-972,-91,239,0.91,-0.91,-0.07
-969,-93,238,1.05,-0.77,0.07
-966,-91,236,1.19,-0.63,0.07
-969,-86,239,1.47,-0.56,0.21
-971,-82,241,1.19,-0.49,0.35
-971,-81,236,0.35,-0.35,0.49
-970,-81,236,-0.21,-0.21,0.49
-971,-80,236,-0.84,-0.21,0.56
-974,-80,235,-1.47,-0.21,0.77
-978,-85,234,-1.96,-0.28,0.77
-976,-89,232,-1.96,-0.35,0.7
-974,-86,228,-1.33,-0.49,0.63
-969,-78,230,-0.77,-0.63,0.56
-970,-78,232,-1.05,-0.77,0.63
-972,-82,230,-1.47,-0.84,0.56
-966,-91,230,-1.47,-0.84,0.42
-967,-91,231,-0.49,-0.91,0.14
-975,-86,233,0.98,-0.98,0.07
-973,-84,233,1.68,-0.91,0.14
-967,-91,233,1.54,-0.84,0.21
-971,-94,231,2.1,-0.84,0.28
-972,-95,232,2.87,-0.77,0.35
-972,-90,233,3.43,-0.7,0.42
-973,-84,238,3.57,-0.7,0.49
-967,-77,241,2.8,-0.56,0.49
-969,-76,242,1.4,-0.42,0.56
-974,-81,239,-0.21,-0.28,0.84
-974,-86,232,-1.54,-0.14,0.84
-973,-90,231,-1.82,-0.21,0.84
-974,-89,229,-1.47,-0.21,0.84
-972,-83,231,-1.19,-0.28,0.98
-971,-78,234,-1.12,-0.35,1.12
-973,-76,233,-1.19,-0.42,1.12
-970,-80,234,-1.47,-0.49,1.19
-969,-82,233,-1.68,-0.42,1.19
-971,-84,232,-1.33,-0.42,1.19
-970,-87,233,-0.84,-0.35,1.05
-969,-84,232,-0.07,-0.42,0.84
-972,-80,231,0.84,-0.42,0.84
-973,-78,231,1.05,-0.49,0.7
-971,-75,231,0.91,-0.63,0.56
-977,-75,232,0.84,-0.77,0.42
-980,-72,231,0.63,-0.91,0.14
-974,-65,229,0.14,-0.98,-0.07
-972,-64,235,-0.35,-1.12,-0.35
-977,-65,233,-1.19,-1.26,-0.63
-975,-74,232,-2.03,-1.26,-0.77
-971,-83,230,-2.24,-1.19,-1.19
-972,-85,231,-1.19,-1.19,-1.61
-972,-85,232,0.07,-1.19,-1.96
-972,-81,233,1.05,-1.19,-2.17
-970,-82,235,1.68,-1.19,-2.17
-969,-84,232,2.03,-0.98,-2.31
-972,-89,231,2.66,-0.91,-2.31
-969,-93,234,3.15,-0.98,-2.1
-970,-90,234,3.64,-0.98,-1.96
-972,-89,235,3.85,-0.98,-1.61
-973,-91,236,3.29,-0.98,-1.26
-970,-94,238,2.45,-0.98,-0.77
-964,-95,238,1.68,-0.84,-0.14
-964,-100,238,1.05,-0.7,0.35
-966,-100,238,0.91,-0.49,0.84
-968,-96,239,0.91,-0.35,1.26
-970,-87,240,0.42,-0.21,1.54
-969,-81,239,-0.7,-0.21,2.03
-970,-81,236,-1.89,-0.14,2.38
-974,-80,232,-2.59,-0.14,2.45
-976,-72,231,-2.94,-0.21,2.31
-958,-96,227,-3.15,-0.14,2.52
-983,-71,243,-2.38,-0.77,2.94
-988,-22,230,-3.01,-0.63,-0.7
-972,-58,233,-6.44,-0.56,0.63
-964,-104,224,-7.28,-0.49,1.82
-966,-109,219,-2.45,-0.63,0.91
-971,-83,231,2.8,-1.05,0.0
-977,-66,236,4.06,-1.12,-0.49
-972,-69,235,2.94,-1.05,-0.63
-973,-71,233,2.24,-0.98,-0.84
-973,-72,233,2.03,-0.84,-0.91
-972,-78,235,1.75,-0.77,-0.84
-973,-80,232,1.89,-0.77,-1.12
-971,-83,230,2.31,-0.7,-1.12
-970,-86,236,2.45,-0.84,-0.91
-969,-87,237,2.03,-0.84,-0.84
-959,-89,240,1.89,-0.84,-0.77
-977,-88,236,1.05,-0.35,0.49
-984,-79,233,-0.42,-0.63,0.49
-967,-75,235,-1.75,-0.7,-0.14
-967,-90,236,-3.01,-0.7,0.35
-970,-94,232,-2.66,-0.63,0.63
-972,-82,232,-1.4,-0.7,0.56
-970,-70,234,-1.33,-0.91,0.35
-973,-68,234,-2.1,-1.05,0.56
-973,-76,233,-2.87,-1.05,0.7
-974,-81,230,-2.94,-1.12,0.42
-977,-78,228,-2.24,-1.26,0.0
-973,-71,230,-1.68,-1.4,-0.42
-975,-70,233,-1.33,-1.54,-0.7
-977,-68,229,-1.05,-1.68,-1.05
-973,-73,228,-0.77,-1.75,-1.4
-975,-80,231,-0.07,-1.89,-1.75
-975,-78,233,1.26,-2.03,-2.31
-973,-71,233,2.17,-2.1,-2.87
-973,-67,235,2.24,-2.17,-3.29
-971,-73,237,1.54,-2.24,-3.5
-973,-82,233,0.98,-2.24,-3.71
-969,-86,234,1.33,-2.31,-4.06
-971,-86,236,1.89,-2.24,-4.06
-974,-80,236,1.96,-2.17,-4.13
-969,-81,237,1.54,-2.24,-4.06
-968,-85,238,0.98,-2.24,-3.85
-971,-91,238,0.35,-2.17,-3.5
-969,-95,240,0.07,-2.17,-3.36
-966,-97,240,0.0,-2.1,-3.22
-963,-99,240,0.14,-2.1,-3.08
-965,-98,244,0.49,-2.03,-2.8
-968,-93,241,0.35,-1.75,-2.66
-967,-87,239,-0.14,-1.75,-2.59
-972,-89,240,-0.98,-1.75,-2.52
-971,-89,237,-1.61,-1.75,-2.66
-966,-91,239,-1.75,-1.82,-2.8
-972,-92,240,-1.47,-1.82,-2.8
-974,-91,237,-1.05,-1.82,-2.94
-970,-92,238,-0.84,-1.89,-3.01
-973,-92,236,-0.49,-1.96,-3.15
-973,-90,237,-0.28,-2.03,-3.29
-968,-89,238,-0.35,-2.1,-3.5
-969,-91,240,-0.07,-2.24,-3.57
-970,-92,240,0.14,-2.31,-3.71
-964,-100,240,0.21,-2.17,-3.78
-961,-113,241,0.35,-2.17,-3.57
-965,-125,240,1.61,-2.1,-3.29
-966,-126,241,3.85,-1.89,-3.29
-965,-119,243,6.09,-1.68,-3.36
-964,-105,244,7.42,-1.54,-3.22
-966,-102,246,7.28,-1.33,-2.66
-964,-107,246,6.23,-1.26,-2.17
-963,-112,245,5.6,-1.19,-1.82
-964,-114,245,5.81,-1.05,-1.68
-967,-104,245,6.02,-1.05,-1.61
-967,-95,246,5.74,-1.05,-1.19
-967,-90,247,4.34,-0.98,-0.91
-968,-92,247,2.31,-0.91,-0.63
-967,-93,247,0.7,-0.84,-0.42
-967,-94,248,-0.56,-0.91,-0.21
-967,-95,245,-1.54,-0.77,-0.14
-968,-100,244,-2.45,-0.77,0.0
-968,-106,240,-2.87,-0.77,0.07
-970,-109,241,-2.52,-0.77,0.0
-965,-110,243,-1.47,-0.91,0.07
-965,-104,245,-0.14,-0.84,0.14
-971,-101,245,0.84,-0.77,0.14
-964,-101,242,0.91,-0.7,0.28
-966,-103,240,1.05,-0.84,0.28
-972,-109,240,1.19,-0.84,0.42
-971,-103,241,1.4,-0.84,0.42
-970,-89,244,1.96,-0.98,0.49
-972,-82,248,1.4,-1.12,0.7
-965,-87,246,-0.77,-1.05,0.91
-963,-106,241,-2.52,-0.91,0.91
-963,-119,242,-2.45,-0.98,0.91
-967,-117,243,-0.35,-1.05,1.05
-965,-103,246,1.82,-1.05,1.05
-965,-99,249,1.96,-1.05,1.26
-966,-102,247,0.77,-0.84,1.26
-965,-106,247,0.49,-0.77,1.19
-966,-99,244,0.98,-0.63,1.33
-968,-94,244,1.4,-0.42,1.54
-968,-98,247,0.84,-0.35,1.75
-967,-101,247,0.42,-0.28,1.82
-964,-100,247,0.35,-0.21,1.96
-966,-102,249,-0.14,-0.14,2.38
-964,-105,246,-0.56,0.07,2.73
-963,-108,245,-0.42,0.21,2.94
-964,-109,246,0.28,0.35,3.01
-965,-103,246,1.12,0.49,3.22
-965,-97,246,1.19,0.7,3.43
-966,-100,246,0.63,0.84,3.71
-969,-97,243,0.35,0.91,3.85
-971,-90,239,0.56,0.98,4.06
-970,-88,239,0.28,0.91,4.2
-970,-88,240,-0.42,0.91,4.2
-971,-87,239,-0.84,0.84,4.13
-968,-89,240,-1.05,0.77,4.13
-969,-87,238,-0.84,0.63,4.06
-972,-85,239,-0.63,0.49,4.06
-970,-86,238,-0.84,0.42,3.99
-971,-84,235,-0.7,0.42,3.71
-971,-85,235,-0.42,0.35,3.5
-973,-80,235,0.07,0.28,3.29
-976,-70,237,0.91,0.07,3.15
-971,-69,242,0.84,-0.07,3.08
-965,-73,242,-0.07,-0.14,3.08
-968,-85,242,-0.63,-0.21,3.08
-969,-89,239,0.0,-0.14,2.73
-968,-87,239,0.98,-0.07,2.52
-968,-85,240,1.61,0.0,2.52
-971,-87,239,1.75,0.14,2.45
-971,-88,240,2.1,0.42,2.31
-972,-81,240,2.94,0.56,2.17
-973,-75,241,3.36,0.7,2.1
-971,-71,239,2.87,0.77,2.1
-970,-71,239,2.03,0.77,2.17
-971,-71,238,1.12,0.77,2.1
-971,-66,237,0.35,0.7,2.03
-974,-67,239,-0.7,0.7,1.96
-976,-66,237,-1.68,0.7,1.82
-976,-60,235,-2.03,0.63,1.47
-975,-52,236,-2.17,0.42,0.98
-976,-42,237,-2.8,0.14,0.7
-972,-41,239,-4.34,0.0,0.49
-971,-45,237,-6.02,-0.21,-0.07
-974,-56,235,-6.86,-0.35,-0.49
-976,-62,229,-6.51,-0.42,-1.26
-976,-66,227,-5.18,-0.49,-1.89
-978,-64,230,-3.36,-0.7,-2.66
-978,-56,231,-1.89,-0.91,-3.36
-972,-57,235,-1.61,-1.12,-3.92
-973,-59,230,-1.75,-1.33,-4.55
-979,-68,225,-1.47,-1.61,-5.04
-981,-73,223,-0.84,-1.89,-5.67
-981,-68,227,0.14,-2.31,-6.3
-975,-58,235,0.56,-2.59,-6.72
-968,-57,243,-0.49,-2.8,-6.93
-964,-69,241,-2.59,-2.87,-7.14
-963,-83,240,-3.92,-3.01,-7.49
-969,-88,238,-3.36,-3.22,-7.98
-975,-85,235,-2.24,-3.36,-8.33
-973,-83,236,-2.03,-3.36,-8.4
-971,-87,240,-2.45,-3.43,-8.33
-969,-96,244,-2.8,-3.43,-8.05
-966,-108,242,-2.87,-3.15,-7.77
-965,-117,237,-1.89,-3.08,-7.63
-964,-124,239,-0.49,-2.87,-7.42
-964,-123,245,0.84,-2.59,-7.07
-963,-120,249,1.89,-2.52,-6.72
-963,-110,243,2.1,-2.38,-6.44
-969,-110,241,1.26,-2.45,-5.88
-966,-114,242,-0.14,-2.59,-5.67
-965,-110,245,-0.77,-2.66,-5.67
-968,-99,247,-1.54,-2.8,-5.39
-969,-89,244,-2.94,-2.8,-5.25
-968,-89,248,-5.04,-2.8,-5.18
-966,-93,246,-7.14,-2.87,-5.32
-966,-96,242,-8.05,-2.87,-5.67
-968,-107,239,-8.26,-2.87,-5.81
-966,-118,238,-7.63,-2.87,-6.02
-965,-125,237,-5.6,-2.87,-6.44
-965,-128,242,-2.87,-2.94,-6.86
-963,-127,244,-0.21,-2.94,-7.07
-964,-131,244,1.68,-2.87,-7.0
-964,-133,243,3.57,-2.87,-7.0
-963,-136,245,5.25,-2.87,-6.86
-960,-139,246,5.95,-2.8,-6.51
-961,-132,248,6.72,-2.8,-6.37
-967,-125,252,6.79,-2.87,-6.09
-962,-118,255,5.18,-2.8,-5.6
-960,-122,256,2.73,-2.59,-4.83
-958,-134,257,0.21,-2.31,-4.27
-958,-142,258,-1.4,-2.03,-3.78
-957,-139,254,-1.82,-1.82,-3.43
-961,-129,254,-2.03,-1.68,-3.01
-963,-128,255,-3.08,-1.54,-2.38
-960,-133,255,-4.62,-1.47,-1.89
-957,-141,251,-5.39,-1.4,-1.54
-958,-148,250,-4.9,-1.33,-1.26
-963,-150,245,-3.57,-1.19,-1.19
-965,-140,246,-1.54,-1.19,-1.19
-962,-131,249,-0.14,-1.19,-1.05
-960,-129,250,-0.07,-1.12,-0.98
-962,-130,250,-0.07,-1.19,-0.91
-964,-130,249,0.21,-1.33,-0.98
-965,-127,249,0.7,-1.33,-1.12
-966,-124,249,0.77,-1.4,-1.19
-963,-127,251,0.14,-1.4,-1.05
-959,-135,252,-0.35,-1.4,-1.05
-959,-142,251,-0.21,-1.33,-1.05
-962,-145,251,0.7,-1.26,-0.91
-958,-150,252,1.54,-1.12,-0.63
-958,-151,252,2.38,-0.91,-0.21
-957,-153,257,3.01,-0.7,0.35
-957,-149,258,3.43,-0.56,0.91
-955,-150,260,3.5,-0.21,1.61
-953,-152,257,2.94,0.14,2.17
-954,-152,257,2.66,0.42,2.94
-957,-148,256,2.66,0.63,3.57
-960,-138,256,2.31,0.77,4.2
-963,-130,258,1.19,0.98,4.76
-960,-130,258,-0.77,1.26,5.39
-957,-133,256,-2.59,1.4,5.81
-961,-129,248,-3.15,1.47,6.02
-966,-127,247,-3.01,1.47,6.23
-965,-124,246,-3.22,1.4,6.51
-967,-120,245,-3.36,1.26,6.58
-967,-123,242,-3.29,1.12,6.65
-966,-133,237,-3.15,0.98,6.79
-965,-146,235,-2.17,0.77,7.07
-961,-151,240,0.35,0.56,7.42
-959,-146,245,3.64,0.28,7.98
-958,-140,248,6.02,0.28,8.75
-958,-131,246,7.28,0.49,9.24
-958,-115,253,8.19,0.56,9.1
-961,-87,257,8.4,0.63,8.96
-966,-64,262,6.44,0.84,8.82
-969,-54,257,2.31,1.05,8.61
-974,-56,250,-2.03,1.05,8.19
-978,-64,246,-5.53,0.98,7.42
-976,-66,239,-7.77,0.84,6.51
-975,-73,241,-9.1,0.77,5.88
-975,-78,240,-9.17,0.77,5.11
-974,-79,240,-7.91,0.77,4.2
-973,-82,238,-5.95,0.84,3.22
-972,-88,237,-3.92,0.91,2.59
-969,-101,236,-1.75,0.77,2.1
-966,-108,236,1.12,0.56,1.54
-967,-111,238,4.34,0.49,1.19
-966,-109,239,6.93,0.56,1.05
-964,-108,239,8.75,0.56,0.91
-965,-107,243,9.87,0.56,0.91
-968,-100,245,10.22,0.56,1.12
-967,-95,245,9.59,0.63,1.4
-964,-90,246,7.77,0.63,1.68
-966,-90,247,4.9,0.42,2.03
-969,-89,245,1.82,0.42,2.38
-971,-85,243,-0.98,0.35,2.8
-971,-80,244,-3.43,0.21,3.01
-969,-78,247,-5.53,0.14,3.08
-970,-77,245,-7.14,0.0,3.08
-973,-79,239,-8.12,0.07,3.08
-973,-87,236,-8.19,0.0,2.8
-973,-89,234,-7.07,-0.21,2.45
-973,-87,232,-5.18,-0.35,2.1
-971,-90,235,-3.5,-0.49,1.75
-972,-92,232,-1.82,-0.63,1.33
-975,-88,231,0.56,-0.63,0.77
-969,-87,234,2.52,-0.7,0.14
-973,-79,237,4.2,-0.98,-0.42
-979,-72,236,5.32,-1.12,-0.7
-968,-70,240,4.9,-1.12,-1.05
-968,-70,242,3.78,-1.26,-1.4
-972,-71,245,2.59,-1.47,-1.75
-969,-74,246,1.12,-1.54,-2.17
-969,-75,242,-0.07,-1.47,-2.45
-973,-82,240,-1.54,-1.4,-2.66
-970,-90,240,-2.38,-1.4,-2.87
-967,-92,240,-2.24,-1.47,-3.08
-968,-92,242,-1.96,-1.47,-3.22
-966,-96,241,-1.89,-1.4,-3.36
-966,-99,238,-1.68,-1.4,-3.57
-970,-106,235,-0.91,-1.4,-3.78
-974,-109,234,0.42,-1.4,-4.2
-972,-105,237,2.52,-1.4,-4.62
-971,-90,239,4.76,-1.47,-4.9
-971,-85,241,5.74,-1.47,-5.04
-971,-88,243,5.32,-1.4,-4.97
-967,-95,247,4.83,-1.4,-4.97
-962,-98,251,4.76,-1.47,-4.97
-963,-93,252,5.11,-1.61,-4.9
-965,-92,250,4.41,-1.61,-4.55
-966,-97,247,2.59,-1.54,-4.27
-966,-108,249,0.63,-1.54,-3.85
-962,-116,247,-0.77,-1.4,-3.64
-961,-113,252,-1.05,-1.4,-3.36
-964,-107,253,-1.19,-1.33,-3.01
-966,-101,246,-2.03,-1.19,-2.59
-968,-109,250,-3.43,-1.12,-2.03
-964,-119,246,-4.41,-1.05,-1.68
-963,-121,243,-3.99,-0.91,-1.54
-965,-117,242,-2.66,-0.91,-1.47
-966,-100,244,-1.26,-1.05,-1.47
-969,-90,250,-1.19,-1.19,-1.26
-968,-91,247,-2.66,-1.26,-1.05
-967,-103,240,-3.99,-1.26,-0.98
-969,-119,236,-4.34,-1.26,-1.12
-969,-123,233,-3.08,-1.33,-1.4
-966,-118,238,-1.05,-1.4,-1.61
-967,-106,244,0.7,-1.47,-1.75
-970,-96,245,0.91,-1.54,-1.82
-970,-100,241,0.14,-1.54,-1.89
-970,-112,240,-0.98,-1.54,-2.03
-967,-119,240,-0.77,-1.61,-2.52
-968,-107,241,1.05,-1.68,-3.08
-971,-90,244,2.24,-1.82,-3.29
-969,-85,247,1.19,-1.96,-3.29
-967,-97,250,-0.77,-1.96,-3.5
-967,-114,245,-2.03,-1.96,-3.78
-965,-122,242,-1.47,-1.89,-3.99
-962,-125,243,-0.14,-1.82,-3.92
-963,-128,248,0.91,-1.68,-3.64
-962,-128,251,1.89,-1.61,-3.15
-961,-127,253,2.73,-1.54,-2.66
-961,-131,256,2.8,-1.4,-2.03
-955,-133,254,2.52,-1.26,-1.54
-958,-131,253,2.59,-1.19,-0.98
-962,-126,255,2.38,-1.12,-0.49
-960,-120,258,1.33,-0.98,0.07
-957,-117,256,-0.35,-0.91,0.56
-962,-117,255,-2.03,-0.84,0.98
-964,-117,252,-3.43,-0.77,1.33
-965,-117,249,-4.34,-0.7,1.68
-964,-120,248,-5.18,-0.63,2.1
-964,-123,244,-5.6,-0.49,2.17
-966,-122,246,-5.11,-0.49,2.17
-967,-118,246,-4.2,-0.49,2.17
-964,-115,246,-3.43,-0.42,2.17
-964,-117,246,-2.66,-0.28,2.1
-963,-117,245,-1.4,-0.14,1.89
-966,-112,244,0.35,-0.14,1.54
-968,-108,244,1.68,-0.14,1.33
-967,-107,244,2.17,-0.14,1.12
-969,-109,242,2.24,-0.14,0.91
-966,-113,244,2.1,-0.14,0.7
-962,-111,245,2.24,-0.14,0.42
-968,-110,246,2.31,-0.21,0.28
-968,-114,242,1.75,-0.21,0.28
-965,-123,240,1.33,-0.21,0.35
-965,-134,243,1.82,-0.14,0.56
-962,-133,243,3.22,0.0,0.63
-960,-127,246,4.69,0.07,0.91
-960,-126,251,5.11,0.07,1.33
-961,-132,247,4.62,0.35,1.68
-963,-134,245,4.62,0.56,1.96
-963,-136,242,5.32,0.77,2.31
-961,-138,241,5.95,0.98,2.66
-963,-133,243,6.79,1.12,2.87
-966,-114,249,8.4,1.12,2.87
-963,-105,248,8.26,1.19,3.01
-962,-95,248,6.58,1.33,3.15
-968,-91,255,5.6,1.4,3.57
-968,-85,254,4.2,1.47,3.43
-969,-63,252,3.43,1.33,3.01
-974,-47,253,2.24,1.05,2.73
-974,-41,249,-0.77,0.7,2.59
-977,-49,246,-4.27,0.42,2.45
-976,-65,241,-6.72,0.21,1.75
-977,-75,238,-7.14,-0.07,0.84
-974,-82,236,-6.79,-0.35,-0.14
-973,-90,233,-6.02,-0.49,-0.98
-971,-100,235,-4.83,-0.63,-1.54
-967,-106,237,-2.73,-0.77,-2.17
-965,-105,235,0.14,-0.84,-2.59
-970,-104,235,2.38,-0.91,-2.73
-969,-109,238,3.64,-0.91,-2.73
-970,-116,234,4.48,-0.91,-2.73
-968,-124,237,5.11,-0.91,-2.52
-963,-133,245,5.46,-0.98,-2.17
-960,-124,250,6.51,-1.05,-1.82
-961,-108,252,7.07,-0.91,-1.33
-961,-107,255,5.39,-0.84,-0.49
-961,-112,252,2.59,-0.77,0.35
-961,-118,249,0.35,-0.63,1.05
-964,-113,246,-0.77,-0.63,1.47
-968,-101,249,-1.54,-0.63,2.03
-965,-91,253,-3.22,-0.56,2.66
-960,-95,250,-5.74,-0.35,3.08
-965,-107,244,-7.28,-0.21,3.15
-971,-107,240,-6.58,-0.21,2.94
-971,-95,241,-4.83,-0.21,2.66
-970,-81,242,-3.78,-0.42,2.45
-973,-79,242,-3.85,-0.7,2.38
-971,-88,238,-4.62,-0.77,2.03
-972,-100,236,-4.48,-0.7,1.4
-972,-106,234,-2.94,-0.7,0.63
-971,-104,229,-0.91,-0.63,0.0
-972,-105,232,0.98,-0.63,-0.49
-969,-106,238,2.24,-0.7,-0.77
-966,-105,243,3.43,-0.77,-0.98
-967,-97,243,4.48,-0.84,-1.19
-968,-90,243,4.69,-0.91,-1.12
-970,-97,246,3.15,-0.91,-0.84
-966,-106,244,1.26,-0.91,-0.7
-962,-114,244,0.28,-0.91,-0.56
-961,-116,240,0.14,-0.91,-0.42
-965,-120,244,0.28,-0.84,0.0
-966,-115,244,0.28,-0.77,0.35
-965,-108,243,0.77,-0.7,0.7
-966,-112,242,0.28,-0.63,1.12
-965,-118,242,-0.28,-0.49,1.33
-963,-122,244,0.07,-0.35,1.4
-963,-122,244,1.05,-0.14,1.54
-964,-112,248,2.59,0.0,1.68
-964,-93,250,3.99,0.0,1.61
-966,-79,248,4.13,0.0,1.82
-968,-81,249,2.45,0.07,2.03
-969,-86,248,1.05,0.07,1.96
-971,-82,240,0.77,0.07,1.54
-973,-79,237,0.35,0.07,1.26
-975,-81,240,-0.77,0.0,0.98
-973,-84,240,-1.89,-0.07,0.63
-971,-84,240,-2.17,-0.21,0.21
-971,-77,238,-1.68,-0.35,-0.14
-972,-74,240,-1.4,-0.56,-0.21
-969,-81,239,-2.17,-0.7,-0.28
-969,-97,239,-2.59,-0.77,-0.56
-968,-109,240,-1.96,-0.84,-0.77
-967,-109,237,-0.14,-0.77,-1.12
-966,-103,239,1.61,-0.84,-1.19
-966,-110,239,1.96,-0.84,-1.05
-970,-116,238,2.1,-0.63,-0.98
-967,-116,242,3.01,-0.63,-0.91
-963,-109,243,4.06,-0.63,-0.56
-966,-106,244,3.78,-0.49,-0.14
-967,-110,245,2.8,-0.42,0.28
-966,-104,245,2.52,-0.42,0.56
-968,-95,245,2.1,-0.42,0.91
-967,-95,246,0.35,-0.42,1.4
-963,-106,245,-1.75,-0.28,1.68
-964,-124,244,-2.94,0.0,1.68
-968,-139,237,-2.24,0.42,1.33
-967,-138,230,0.42,0.7,0.63
-969,-120,229,3.85,0.77,0.07
-974,-89,240,6.58,0.77,0.07
-972,-57,249,7.56,0.63,0.49
-967,-40,252,6.09,0.49,0.84
-963,-48,251,2.73,0.35,1.12
-967,-67,246,-0.14,0.14,0.98
-973,-80,239,-0.77,0.07,0.42
-976,-81,232,0.0,-0.07,-0.28
-976,-81,232,0.63,-0.35,-0.63
-973,-81,236,0.63,-0.49,-0.77
-970,-84,239,0.49,-0.63,-1.05
-973,-82,240,0.42,-0.77,-1.26
-975,-83,236,0.14,-0.91,-1.54
-972,-91,237,-0.49,-0.98,-1.75
-969,-94,239,-0.84,-1.12,-2.17
-969,-85,243,-0.14,-1.26,-2.45
-968,-77,244,-0.07,-1.33,-2.52
-968,-84,240,-1.26,-1.33,-2.24
-969,-109,239,-2.66,-1.33,-2.03
-967,-127,235,-2.24,-1.26,-2.03
-965,-128,235,0.07,-1.19,-1.96
-966,-114,239,2.45,-1.19,-1.82
-966,-100,244,3.36,-1.26,-1.33
-966,-94,246,2.45,-1.26,-0.77
-967,-99,245,0.91,-1.19,-0.35
-966,-105,247,-0.42,-1.19,-0.07
-965,-101,246,-0.91,-1.19,-0.07
-968,-90,246,-0.91,-1.12,0.0
-969,-92,243,-1.96,-0.98,0.28
-966,-108,240,-3.78,-0.84,0.49
-967,-123,237,-4.13,-0.7,0.28
-970,-119,237,-2.1,-0.63,0.0
-973,-93,239,0.42,-0.63,-0.21
-969,-76,244,0.84,-0.77,0.0
-966,-82,241,-1.19,-0.84,0.14
-969,-104,236,-2.87,-0.84,0.07
-972,-114,236,-1.96,-0.84,-0.49
-970,-97,237,0.91,-0.91,-1.05
-972,-81,241,2.45,-1.05,-1.12
-970,-84,245,1.47,-1.19,-1.05
-968,-97,243,0.28,-1.19,-1.12
-965,-107,242,0.21,-1.12,-1.26
-965,-107,239,0.98,-1.12,-1.4
-968,-103,241,1.75,-1.05,-1.33
-970,-102,241,1.54,-1.05,-1.19
-968,-104,242,0.91,-1.05,-1.05
-967,-109,243,0.56,-0.98,-0.91
-964,-110,244,0.49,-0.91,-0.84
-967,-104,244,0.7,-0.91,-0.63
-966,-98,245,0.77,-0.98,-0.21
-964,-101,246,-0.07,-0.84,0.07
-965,-102,245,-0.84,-0.7,0.21
-969,-101,244,-1.05,-0.63,0.21
-968,-97,245,-1.19,-0.63,0.28
-965,-95,242,-1.47,-0.63,0.35
-968,-101,244,-1.75,-0.56,0.35
-966,-106,244,-1.96,-0.49,0.35
-965,-105,240,-1.26,-0.42,0.28
-968,-108,240,-0.49,-0.35,0.28
-968,-108,241,0.14,-0.35,0.21
-968,-106,245,0.91,-0.28,0.28
-965,-102,244,1.61,-0.14,0.35
-966,-103,243,1.82,0.14,0.35
-972,-103,241,1.89,0.21,0.35
-967,-100,242,1.89,0.21,0.35
-966,-95,242,1.68,0.14,0.35
-968,-91,242,1.19,0.07,0.42
-970,-88,241,0.07,-0.21,0.56
-971,-91,240,-1.4,-0.42,0.56
-973,-101,238,-2.52,-0.49,0.63
-970,-106,236,-2.87,-0.56,0.49
-968,-106,238,-2.17,-0.63,0.42
-968,-100,239,-1.26,-0.77,0.49
-970,-97,236,-0.84,-0.84,0.63
-970,-103,235,-0.91,-0.91,0.77
-969,-111,235,-0.77,-0.98,0.7
-969,-107,238,0.28,-1.12,0.49
-969,-94,242,1.61,-1.05,0.42
-965,-84,247,1.75,-1.05,0.42
-963,-85,249,0.91,-1.05,0.49
-965,-93,246,-0.14,-0.98,0.49
-968,-98,239,-0.49,-0.84,0.49
-970,-102,238,-0.42,-0.77,0.42
-971,-103,238,-0.07,-0.77,0.21
-969,-97,239,0.14,-0.84,0.07
-967,-95,242,-0.07,-0.91,0.14
-966,-97,243,-0.7,-0.91,0.21
-970,-103,245,-0.98,-0.91,0.28
-967,-107,243,-0.7,-0.7,0.35
-961,-107,246,0.07,-0.63,0.42
-963,-104,244,0.84,-0.49,0.56
-969,-101,242,1.26,-0.35,0.63
-968,-102,242,1.19,-0.28,0.7
-968,-97,240,1.33,-0.28,0.77
-972,-91,242,1.26,-0.35,0.91
-971,-93,244,0.0,-0.35,1.05
-969,-97,242,-1.33,-0.14,1.19
-971,-100,239,-1.68,-0.07,1.12
-970,-98,238,-1.4,-0.07,1.12
-968,-95,240,-1.12,-0.14,1.12
-965,-91,244,-1.05,-0.21,1.19
-966,-90,244,-1.33,-0.21,1.19
-968,-94,241,-1.75,-0.21,1.26
-966,-99,240,-1.82,-0.28,1.26
-968,-100,238,-1.4,-0.35,1.19
-971,-96,237,-0.56,-0.35,1.05
-971,-91,237,-0.07,-0.42,1.05
-972,-86,238,-0.07,-0.56,0.91
-974,-87,238,-0.42,-0.56,0.84
-970,-92,235,-1.19,-0.7,0.77
-970,-97,233,-1.4,-0.77,0.63
-973,-99,238,-0.91,-0.91,0.49
-968,-98,242,-0.21,-0.91,0.28
-964,-90,243,0.49,-0.84,0.14
-966,-87,242,0.56,-0.84,0.21
-968,-91,242,0.07,-0.84,0.35
-967,-99,243,-0.21,-0.77,0.35
-968,-99,238,0.14,-0.7,0.21
-974,-96,234,0.63,-0.56,0.07
-974,-95,237,0.63,-0.56,0.07
-970,-86,240,0.56,-0.63,-0.14
-971,-82,240,0.28,-0.77,-0.07
-969,-88,242,-0.91,-0.77,0.0
-968,-94,241,-1.47,-0.77,0.0
-967,-96,240,-0.98,-0.84,-0.07
-968,-94,239,-0.49,-0.77,-0.14
-970,-91,240,-0.21,-0.7,-0.21
-970,-90,241,-0.21,-0.7,-0.28
-967,-90,240,-0.63,-0.63,-0.42
-969,-88,241,-0.63,-0.7,-0.49
-972,-87,240,-0.56,-0.77,-0.63
-972,-86,235,-0.7,-0.91,-0.84
-974,-87,235,-0.91,-1.05,-0.98
-972,-88,238,-1.05,-1.19,-1.05
-971,-86,238,-1.33,-1.33,-1.26
-971,-87,240,-1.4,-1.4,-1.54
-966,-95,240,-1.75,-1.47,-1.82
-966,-99,238,-1.54,-1.47,-2.03
-967,-101,238,-0.42,-1.54,-2.17
-969,-95,238,0.91,-1.54,-2.31
-969,-92,241,1.54,-1.61,-2.31
-968,-94,241,1.33,-1.75,-2.24
-968,-95,242,1.12,-1.82,-2.24
-971,-94,241,0.84,-1.82,-2.24
-971,-94,244,0.28,-1.82,-2.24
-967,-100,245,-0.42,-1.75,-2.17
-968,-108,239,-1.12,-1.61,-2.1
-970,-112,238,-1.05,-1.47,-1.96
-969,-109,241,-0.07,-1.4,-1.89
-964,-101,247,0.28,-1.4,-1.82
-963,-96,248,-0.14,-1.4,-1.75
-966,-98,247,-0.91,-1.33,-1.54
-964,-101,247,-1.89,-1.19,-1.4
-966,-101,243,-2.03,-1.12,-1.12
-969,-102,243,-1.96,-1.19,-0.91
-967,-104,242,-2.03,-1.19,-0.91
-966,-101,241,-1.75,-1.33,-0.91
-970,-98,242,-1.4,-1.47,-0.77
-969,-92,247,-1.54,-1.61,-0.49
-968,-89,248,-1.82,-1.75,-0.21
-964,-97,246,-3.22,-1.82,-0.28
-964,-101,244,-4.13,-1.82,-0.35
-963,-111,248,-4.34,-1.75,-0.35
-964,-109,242,-4.13,-1.68,-0.7
-966,-105,240,-3.29,-1.61,-0.98
-971,-104,242,-2.73,-1.68,-1.12
-970,-104,242,-2.73,-1.61,-1.33
-969,-108,242,-2.59,-1.61,-1.61
-968,-111,242,-2.1,-1.47,-1.75
-967,-117,244,-1.47,-1.33,-1.75
-964,-124,243,-0.56,-1.12,-1.68
-961,-129,243,0.84,-0.98,-1.47
-962,-130,242,2.59,-0.84,-1.19
-964,-131,244,4.06,-0.7,-0.7
-961,-132,246,4.97,-0.49,-0.14
-961,-124,250,5.95,-0.35,0.35
-961,-113,251,6.23,-0.14,0.77
-964,-103,253,5.04,0.14,1.19
-964,-97,252,2.87,0.14,1.75
-966,-96,249,0.35,0.21,2.24
-968,-100,247,-2.03,0.28,2.59
-970,-104,247,-3.78,0.21,2.8
-967,-108,242,-4.76,0.07,2.8
-968,-104,239,-4.76,0.0,2.73
-972,-99,241,-4.27,-0.21,2.87
-969,-96,241,-4.06,-0.28,2.94
-966,-98,241,-4.13,-0.28,2.94
-967,-100,239,-3.36,-0.35,2.66
-968,-102,240,-1.96,-0.35,2.31
-968,-100,238,-0.56,-0.42,1.89
-968,-101,240,0.77,-0.56,1.75
-964,-108,243,1.89,-0.56,1.68
-966,-108,239,3.29,-0.63,1.4
-972,-104,241,4.9,-0.63,1.33
-970,-96,243,5.53,-0.49,1.33
-966,-93,248,4.97,-0.35,1.47
-968,-98,248,3.43,-0.21,1.61
-964,-98,248,2.24,-0.14,1.54
-965,-96,248,1.61,-0.07,1.54
-968,-92,247,0.7,0.07,1.75
-967,-90,246,-0.49,0.07,1.89
-967,-91,246,-1.47,0.21,2.03
-968,-92,244,-2.17,0.28,1.96
-968,-91,243,-2.59,0.35,1.89
-970,-92,241,-2.87,0.35,1.89
-972,-90,238,-2.87,0.35,1.68
-972,-90,238,-2.52,0.21,1.54
-969,-91,238,-1.96,0.07,1.4
-967,-93,238,-1.4,0.0,1.19
-971,-95,237,-0.56,-0.07,0.84
-973,-91,235,0.49,-0.21,0.56
-971,-89,236,1.26,-0.35,0.35
-971,-89,235,1.68,-0.56,0.21
-970,-91,236,1.82,-0.77,-0.07
-969,-93,239,1.89,-0.98,-0.35
-970,-87,241,1.96,-1.12,-0.42
-970,-87,243,1.54,-1.19,-0.49
-967,-89,242,0.7,-1.12,-0.49
-971,-96,239,0.14,-1.12,-0.42
-970,-101,239,-0.14,-1.19,-0.49
-968,-95,241,0.35,-1.26,-0.56
-968,-88,243,0.63,-1.33,-0.42
-968,-86,245,-0.14,-1.4,-0.21
-968,-96,245,-1.4,-1.4,0.07
-967,-103,243,-1.82,-1.26,0.07
-965,-106,242,-1.12,-1.12,0.0
-966,-100,245,-0.14,-1.05,-0.07
-966,-91,243,0.49,-0.98,0.0
-969,-90,242,0.35,-0.98,0.07
-970,-94,244,-0.07,-0.98,0.14
-966,-95,245,-0.21,-0.98,0.14
-967,-90,245,-0.14,-0.98,0.07
-971,-87,243,-0.35,-0.91,0.14
-968,-89,243,-0.91,-0.84,0.07
-968,-91,242,-1.26,-0.84,-0.14
-970,-92,243,-1.4,-0.91,-0.14
-967,-93,242,-1.33,-0.84,-0.35
-969,-93,243,-1.05,-0.91,-0.42
-968,-93,244,-0.7,-0.91,-0.49
-968,-96,243,-0.7,-0.84,-0.49
-968,-100,243,-0.63,-0.7,-0.42
-966,-107,240,-0.42,-0.7,-0.42
-966,-107,238,0.28,-0.7,-0.63
-968,-107,242,1.4,-0.7,-0.63
-967,-100,244,2.24,-0.7,-0.49
-967,-95,245,2.31,-0.63,-0.21
-967,-95,246,1.82,-0.63,0.07
-967,-97,244,1.19,-0.49,0.35
-967,-104,244,0.49,-0.42,0.56
-965,-105,244,0.21,-0.28,0.63
-965,-99,245,0.49,-0.21,0.77
-966,-94,246,0.28,-0.14,0.98
-968,-93,246,-0.35,-0.07,1.19
-969,-91,244,-0.91,-0.07,1.33
-969,-92,244,-1.33,0.0,1.4
-970,-90,240,-1.68,-0.07,1.4
-969,-94,240,-1.89,-0.14,1.4
-967,-97,239,-1.89,-0.14,1.4
-967,-96,240,-1.33,-0.21,1.4
-974,-89,239,-0.28,-0.28,1.26
-973,-81,238,0.28,-0.42,0.98
-972,-79,240,0.07,-0.42,0.84
-972,-86,242,-0.56,-0.42,0.7
-970,-90,239,-0.77,-0.35,0.35
-968,-91,239,-0.35,-0.42,0.0
-970,-88,239,0.28,-0.56,-0.21
-971,-85,241,0.56,-0.7,-0.21
-972,-92,239,-0.07,-0.7,-0.14
-969,-100,238,-0.07,-0.63,-0.21
-968,-99,241,0.91,-0.77,-0.28
-968,-89,240,1.89,-0.91,-0.35
-970,-78,241,1.68,-0.91,-0.14
-974,-75,241,0.28,-0.98,-0.07
-972,-80,244,-1.33,-1.19,-0.07
-968,-86,242,-2.52,-1.26,-0.14
-969,-81,237,-2.52,-1.4,-0.28
-973,-79,241,-2.38,-1.61,-0.49
-972,-77,243,-2.94,-1.75,-0.7
-971,-83,243,-3.64,-1.75,-0.91
-970,-90,241,-3.92,-1.75,-1.19
-967,-94,242,-3.22,-1.75,-1.54
-967,-95,241,-2.03,-1.68,-1.75
-969,-97,241,-0.84,-1.61,-1.82
-968,-101,240,0.14,-1.54,-1.82
-968,-105,240,1.05,-1.54,-1.96
-966,-107,242,1.96,-1.4,-1.96
-962,-106,245,2.73,-1.4,-2.17
-965,-97,246,3.29,-1.4,-2.24
-969,-88,247,3.22,-1.33,-2.03
-969,-90,247,1.75,-1.26,-1.68
-969,-96,245,0.07,-1.12,-1.47
-967,-108,245,-0.98,-1.05,-1.4
-965,-107,242,-0.98,-0.98,-1.4
-968,-100,242,-0.42,-0.98,-1.26
-968,-94,245,-0.42,-0.98,-1.05
-967,-95,247,-1.12,-0.98,-0.63
-966,-103,246,-1.82,-0.91,-0.42
-963,-110,242,-1.82,-0.77,-0.28
-965,-115,240,-0.91,-0.7,-0.21
-968,-111,244,0.49,-0.7,-0.21
-964,-100,247,1.68,-0.63,-0.21
-965,-92,245,1.89,-0.63,0.0
-970,-90,244,1.4,-0.63,0.07
-970,-94,244,0.56,-0.63,0.07
-968,-96,243,0.35,-0.7,0.0
-968,-95,241,0.14,-0.7,-0.14
-971,-93,242,-0.07,-0.77,-0.28
-969,-87,244,-0.28,-0.84,-0.35
-969,-88,243,-0.7,-0.98,-0.49
-970,-94,244,-1.47,-1.05,-0.56
-970,-97,241,-1.61,-1.12,-0.63
-970,-97,240,-1.12,-1.12,-0.63
-969,-98,240,-0.63,-1.12,-0.63
-967,-100,243,-0.28,-1.12,-0.63
-967,-97,242,0.21,-1.26,-0.77
-970,-100,243,0.56,-1.26,-0.77
-965,-106,242,0.42,-1.4,-0.7
-964,-112,241,0.63,-1.47,-0.56
-966,-120,244,1.54,-1.33,-0.28
-961,-116,245,2.8,-1.33,-0.14
-962,-103,250,3.99,-1.4,0.14
-963,-102,252,3.71,-1.33,0.7
-961,-102,251,2.52,-1.19,0.77
-966,-103,252,2.03,-1.05,1.05
-966,-104,251,1.26,-0.84,1.19
-968,-96,245,0.77,-0.63,1.26
-970,-92,248,0.35,-0.49,1.47
-967,-89,250,-0.91,-0.42,1.61
-967,-87,248,-1.82,-0.35,1.75
-969,-90,247,-2.52,-0.21,1.75
-967,-94,247,-2.87,-0.07,1.61
-968,-98,244,-2.87,0.0,1.47
-970,-94,241,-2.24,0.07,1.19
-968,-87,244,-1.4,0.0,0.98
-969,-82,245,-0.98,0.0,0.77
-971,-80,241,-0.98,-0.14,0.63
-971,-88,239,-1.26,-0.35,0.35
-970,-95,237,-1.05,-0.49,0.07
-970,-94,237,-0.07,-0.7,-0.14
-970,-93,240,0.98,-0.84,-0.35
-967,-94,243,1.33,-1.05,-0.42
-968,-98,244,1.4,-1.12,-0.42
-966,-101,245,1.54,-1.12,-0.42
-965,-104,245,1.68,-1.12,-0.21
-967,-105,244,1.82,-1.05,0.0
-968,-104,244,1.96,-1.05,0.21
-966,-100,248,1.96,-1.05,0.28
-967,-96,247,1.61,-0.98,0.42
-970,-95,246,0.98,-0.91,0.63
-967,-96,246,0.07,-0.77,0.7
-962,-98,250,-0.63,-0.77,0.77
-966,-97,247,-0.77,-0.7,0.7
-970,-97,244,-0.7,-0.56,0.7
-969,-96,241,-0.56,-0.56,0.7
-969,-97,239,-0.28,-0.56,0.77
-972,-95,239,0.28,-0.63,0.77
-973,-90,241,1.05,-0.63,0.35
-970,-87,244,1.47,-0.56,0.07
-965,-83,245,1.54,-0.63,-0.07
-966,-83,246,1.82,-0.7,-0.28
-969,-86,245,2.17,-0.77,-0.35
-970,-82,245,2.66,-0.91,-0.56
-971,-76,246,2.87,-0.98,-0.7
-970,-79,247,2.17,-0.98,-0.7
-966,-85,247,1.19,-0.98,-0.91
-966,-93,247,0.56,-0.91,-0.98
-963,-101,247,0.35,-0.84,-0.98
-963,-103,247,0.63,-0.84,-1.05
-967,-101,246,1.26,-0.84,-0.98
-966,-97,246,1.4,-0.84,-0.77
-969,-97,245,0.91,-0.7,-0.49
-968,-98,249,0.35,-0.77,-0.28
-963,-100,252,0.0,-0.7,-0.07
-962,-97,251,-0.21,-0.49,0.14
-966,-94,247,-0.42,-0.42,0.42
-966,-96,246,-0.77,-0.42,0.63
-966,-98,248,-1.19,-0.35,0.77
-965,-98,246,-1.26,-0.28,0.91
-967,-94,244,-0.98,-0.28,0.91
-971,-89,244,-0.84,-0.28,0.98
-970,-86,244,-1.33,-0.35,0.91
-970,-89,242,-2.1,-0.35,0.91
-969,-92,242,-2.38,-0.42,0.77
-970,-88,240,-1.82,-0.49,0.49
-972,-82,243,-1.33,-0.56,0.21
-970,-78,243,-1.4,-0.7,0.07
-971,-81,243,-1.61,-0.98,-0.07
-971,-90,240,-2.1,-1.05,-0.28
-971,-95,239,-2.03,-1.12,-0.63
-972,-92,240,-0.77,-1.26,-0.98
-970,-83,243,0.21,-1.4,-1.33
-970,-79,243,0.21,-1.54,-1.4
-965,-90,241,-0.7,-1.68,-1.47
-966,-107,240,-1.26,-1.82,-1.54
-971,-111,237,-0.07,-1.89,-1.75
-968,-104,244,1.68,-1.89,-1.96
-962,-91,252,2.59,-1.89,-1.89
-965,-80,254,2.38,-1.96,-1.47
-966,-91,252,0.63,-1.82,-1.05
-965,-106,249,-0.7,-1.61,-0.91
-966,-110,246,-0.28,-1.47,-0.91
-967,-107,247,0.63,-1.47,-0.84
-963,-98,251,1.05,-1.33,-0.63
-963,-92,252,0.7,-1.12,-0.35
-964,-93,254,-0.49,-0.98,-0.07
-963,-101,251,-1.54,-0.84,0.21
-965,-104,248,-1.89,-0.63,0.28
-966,-101,247,-1.4,-0.56,0.28
-965,-93,250,-0.91,-0.56,0.42
-964,-93,249,-1.33,-0.49,0.56
-965,-95,248,-1.89,-0.35,0.56
-967,-100,247,-1.89,-0.28,0.63
-968,-102,246,-1.47,-0.21,0.56
-967,-103,246,-0.84,-0.21,0.56
-966,-100,243,-0.07,-0.21,0.56
-969,-98,242,0.35,-0.21,0.56
-969,-99,242,0.42,-0.35,0.56
-969,-98,242,0.63,-0.49,0.35
-971,-93,241,0.84,-0.7,0.21
-971,-85,242,0.91,-0.84,0.0
-972,-78,246,0.49,-1.05,-0.07
-969,-80,246,-0.7,-1.26,-0.14
-967,-88,245,-1.82,-1.4,-0.14
-967,-94,243,-2.03,-1.47,-0.35
-969,-96,242,-1.54,-1.68,-0.63
-969,-91,242,-0.91,-1.89,-0.77
-968,-88,245,-0.49,-2.03,-0.98
-967,-90,249,-0.77,-2.1,-1.12
-968,-95,252,-0.98,-2.03,-1.19
-963,-100,248,-0.49,-2.1,-1.26
-963,-101,246,0.28,-2.1,-1.19
-968,-102,249,0.84,-2.03,-1.05
-967,-104,252,1.12,-1.96,-0.98
-964,-98,252,1.33,-1.75,-1.05
-966,-96,252,1.26,-1.47,-0.98
-964,-97,255,0.7,-1.19,-0.77
-962,-100,254,0.21,-0.84,-0.63
-965,-102,252,0.0,-0.7,-0.35
-966,-106,247,-0.21,-0.49,-0.21
-966,-105,249,-0.35,-0.42,0.0
-965,-99,251,-0.07,-0.49,0.14
-963,-95,252,-0.21,-0.42,0.28
-964,-93,252,-0.77,-0.42,0.49
-966,-97,251,-1.33,-0.42,0.63
-964,-98,250,-1.68,-0.42,0.77
-966,-100,250,-1.61,-0.42,0.77
-965,-99,247,-1.33,-0.42,0.7
-963,-100,247,-1.26,-0.42,0.77
-966,-101,249,-1.12,-0.49,0.7
-971,-96,244,-0.63,-0.56,0.56
-969,-91,243,-0.42,-0.63,0.42
-968,-89,250,-0.49,-0.7,0.42
-965,-92,252,-0.98,-0.7,0.42
-964,-94,249,-1.26,-0.63,0.21
-970,-96,248,-0.77,-0.63,0.07
-967,-95,246,-0.35,-0.7,0.0
-965,-94,248,-0.28,-0.77,-0.07
-969,-98,248,-0.28,-0.7,-0.07
-967,-95,246,-0.07,-0.77,-0.21
-968,-89,246,0.35,-0.84,-0.21
-968,-88,249,0.14,-0.84,-0.14
-967,-89,251,-0.49,-0.77,-0.14
-963,-93,250,-1.12,-0.77,-0.14
-966,-95,247,-1.33,-0.63,-0.28
-971,-94,246,-1.05,-0.63,-0.42
-969,-95,247,-0.98,-0.63,-0.49
-968,-92,245,-1.05,-0.63,-0.63
-966,-95,247,-0.98,-0.7,-0.63
-961,-103,250,-1.19,-0.7,-0.63
-964,-105,249,-0.7,-0.77,-0.7
-968,-103,246,0.35,-0.77,-0.63
-968,-98,247,0.98,-0.84,-0.56
-969,-95,248,1.05,-0.84,-0.49
-969,-94,248,0.77,-0.91,-0.49
-965,-96,248,0.14,-0.91,-0.49
-966,-100,249,-0.28,-0.98,-0.56
-969,-97,248,-0.35,-0.91,-0.7
-965,-95,249,-0.56,-0.84,-0.7
-965,-96,250,-0.84,-0.84,-0.63
-970,-98,248,-1.12,-0.84,-0.56
-969,-98,246,-1.12,-0.84,-0.77
-965,-97,246,-0.77,-0.91,-0.84
-967,-93,247,-0.42,-0.98,-0.77
-968,-94,251,-0.56,-1.05,-0.7
-963,-100,249,-0.84,-1.05,-0.77
-965,-103,247,-0.7,-1.05,-0.84
-967,-104,247,-0.28,-0.98,-0.77
-967,-102,247,0.14,-0.98,-0.77
-967,-98,247,0.56,-0.98,-0.77
-967,-95,249,0.7,-1.05,-0.7
-966,-94,251,0.35,-1.05,-0.7
-963,-95,253,-0.42,-1.05,-0.7
-964,-100,253,-1.19,-0.98,-0.7
-967,-103,249,-1.19,-0.84,-0.84
-965,-104,247,-0.91,-0.84,-0.77
-965,-103,248,-0.49,-0.91,-0.7
-965,-103,250,-0.42,-0.91,-0.56
-964,-106,251,-0.63,-0.91,-0.42
-965,-108,249,-0.56,-0.84,-0.42
-965,-110,250,-0.14,-0.84,-0.28
-962,-110,252,0.35,-0.7,-0.07
-965,-111,250,0.84,-0.49,0.14
-964,-107,248,1.12,-0.49,0.28
-965,-102,251,1.19,-0.42,0.35
-967,-97,252,0.84,-0.42,0.49
-967,-94,251,0.21,-0.35,0.63
-965,-96,250,-0.56,-0.42,0.7
-967,-99,248,-1.12,-0.42,0.7
-967,-100,249,-1.33,-0.49,0.63
-968,-98,251,-1.33,-0.49,0.63
-964,-99,250,-1.4,-0.42,0.56
-964,-97,247,-1.33,-0.42,0.49
-967,-98,245,-1.19,-0.49,0.56
-967,-104,245,-1.12,-0.63,0.56
-966,-103,246,-0.49,-0.77,0.63
-966,-101,245,0.35,-0.7,0.63
-967,-100,246,0.84,-0.77,0.42
-969,-98,244,1.05,-0.77,0.49
-967,-105,247,1.05,-0.77,0.42
-966,-107,244,1.4,-0.84,0.28
-966,-104,248,1.96,-0.7,0.28
-964,-100,250,2.17,-0.7,0.21
-964,-97,253,2.03,-0.7,0.35
-965,-94,252,1.82,-0.63,0.42
-964,-88,254,1.61,-0.63,0.56
-964,-86,255,1.19,-0.7,0.63
-965,-90,252,-0.07,-0.63,0.77
-967,-101,251,-1.05,-0.7,0.77
-967,-105,249,-0.91,-0.63,0.77
-967,-103,250,-0.14,-0.49,0.7
-963,-100,253,0.07,-0.35,0.7
-962,-100,252,-0.14,-0.35,0.77
-965,-101,250,-0.21,-0.21,0.91
-968,-100,247,-0.14,-0.07,1.05
-968,-96,248,0.07,0.0,1.12
-965,-95,250,-0.14,0.0,1.26
-967,-89,249,-0.35,-0.07,1.19
-969,-86,249,-0.7,-0.07,1.19
-967,-88,248,-1.33,-0.07,1.05
-969,-92,245,-1.61,-0.14,0.91
-970,-95,243,-1.47,-0.21,0.77
-967,-99,243,-1.12,-0.35,0.7
-968,-100,245,-0.63,-0.42,0.7
-965,-98,246,0.07,-0.49,0.77
-967,-93,244,0.63,-0.49,0.7
-970,-94,246,0.77,-0.63,0.7
-968,-91,246,0.84,-0.7,0.63
-968,-89,247,0.7,-0.77,0.49
-968,-90,247,0.42,-0.84,0.49
-967,-88,247,0.21,-0.91,0.35
-966,-90,250,-0.14,-0.91,0.35
-967,-92,249,-0.56,-0.91,0.28
-966,-94,247,-0.63,-0.84,0.14
-965,-93,246,-0.42,-0.91,0.07
-967,-93,248,-0.42,-0.91,0.14
-968,-95,247,-0.49,-0.84,0.14
-968,-95,249,-0.28,-0.84,0.14
-965,-93,250,-0.07,-0.84,0.07
-965,-90,249,0.14,-0.77,0.0
-966,-93,249,0.0,-0.77,0.07
-968,-97,249,-0.14,-0.7,0.0
-970,-94,247,0.35,-0.63,-0.14
-968,-88,246,0.7,-0.63,-0.21
-962,-87,248,0.42,-0.56,-0.28
-968,-87,248,-0.14,-0.56,-0.28
-972,-89,247,-0.56,-0.63,-0.42
-970,-88,246,-0.77,-0.7,-0.63
-967,-88,247,-1.19,-0.84,-0.7
-967,-91,246,-1.54,-0.91,-0.77
-970,-91,245,-1.33,-1.05,-0.91
-970,-90,244,-0.98,-1.19,-1.05
-968,-88,243,-0.77,-1.26,-1.26
-969,-91,246,-0.84,-1.4,-1.4
-968,-94,248,-0.91,-1.33,-1.68
-968,-93,247,-0.49,-1.33,-1.89
-966,-94,248,-0.14,-1.4,-1.96
-963,-93,247,0.07,-1.54,-2.1
-968,-92,247,0.49,-1.68,-2.24
-970,-97,247,0.49,-1.75,-2.24
-967,-101,246,0.56,-1.68,-2.38
-965,-104,250,0.98,-1.68,-2.45
-964,-100,252,1.47,-1.68,-2.45
-965,-95,254,1.68,-1.61,-2.45
-963,-97,256,0.91,-1.61,-2.45
-965,-99,250,0.14,-1.54,-2.52
-968,-98,249,-0.14,-1.47,-2.45
-968,-99,248,-0.49,-1.4,-2.38
-968,-96,249,-0.77,-1.4,-2.45
-968,-94,249,-0.91,-1.47,-2.66
-966,-91,251,-1.19,-1.54,-2.8
-963,-95,254,-1.68,-1.54,-2.87
-964,-101,252,-2.1,-1.54,-3.08
-966,-105,249,-1.89,-1.61,-3.57
-967,-105,246,-0.91,-1.47,-3.99
-967,-96,246,0.28,-1.61,-4.27
-966,-91,248,0.77,-1.68,-4.2
-966,-96,249,0.49,-1.89,-4.13
-967,-106,247,0.07,-1.96,-4.2
-964,-115,249,0.56,-2.1,-4.34
-963,-117,251,1.68,-2.17,-4.48
-965,-115,251,2.73,-2.24,-4.48
-964,-113,255,3.22,-2.24,-4.34
-959,-111,258,2.94,-2.17,-3.99
-962,-112,257,2.38,-2.1,-3.57
-961,-115,260,1.61,-1.96,-3.15
-961,-115,257,0.7,-1.82,-2.94
-962,-115,256,0.07,-1.75,-2.66
-961,-119,257,-1.05,-1.68,-2.31
-958,-124,258,-1.82,-1.61,-1.96
-958,-124,260,-1.54,-1.54,-1.68
-959,-116,257,-1.19,-1.61,-1.4
-963,-116,256,-1.4,-1.61,-0.98
-962,-118,252,-1.89,-1.54,-0.63
-965,-120,252,-2.03,-1.54,-0.35
-967,-118,252,-1.82,-1.54,-0.28
-964,-115,252,-1.33,-1.47,-0.35
-961,-117,253,-1.4,-1.4,-0.35
-960,-116,254,-1.19,-1.33,-0.56
-965,-109,256,-0.14,-1.4,-0.84
-966,-103,257,0.35,-1.4,-1.05
-963,-106,256,-0.21,-1.33,-1.05
-962,-115,255,-0.98,-1.26,-1.19
-966,-124,255,-0.77,-1.19,-1.4
-964,-124,253,0.28,-1.05,-1.54
-960,-124,255,1.19,-0.91,-1.4
-959,-125,256,1.75,-0.91,-1.33
-960,-129,257,2.31,-0.77,-1.12
-960,-133,256,2.73,-0.7,-0.91
-957,-132,257,3.64,-0.56,-0.63
-959,-127,261,4.13,-0.56,-0.21
-959,-122,263,3.57,-0.42,0.35
-959,-120,264,2.59,-0.28,0.84
-958,-127,264,1.33,-0.07,1.4
-956,-128,259,0.49,0.07,1.89
-962,-127,258,0.42,0.21,2.38
-961,-126,259,0.14,0.35,2.8
-957,-125,258,-0.49,0.56,3.22
-958,-124,258,-0.7,0.63,3.5
-958,-121,258,-0.77,0.7,3.78
-961,-115,256,-0.77,0.77,3.99
-966,-108,254,-0.63,0.84,4.2
-964,-107,257,-1.05,0.91,4.34
-962,-108,255,-1.54,0.98,4.27
-966,-101,250,-1.05,1.05,3.99
-970,-96,248,-0.28,0.98,3.71
-966,-97,251,-0.35,0.91,3.43
-966,-99,252,-0.42,0.91,3.22
-967,-94,250,0.56,0.84,2.73
-965,-92,253,1.19,0.7,2.52
-963,-99,252,0.84,0.7,2.38
-967,-104,248,0.91,0.63,2.1
-969,-104,248,1.82,0.49,1.82
-966,-97,249,2.52,0.35,1.61
-965,-93,252,2.38,0.21,1.61
-966,-97,254,1.61,0.14,1.75
-964,-107,251,0.7,0.21,1.89
-963,-113,250,0.42,0.28,1.96
-963,-113,252,0.91,0.28,2.03
-961,-112,256,1.19,0.28,2.24
-961,-106,254,1.26,0.35,2.52
-965,-104,251,0.98,0.35,2.87
-966,-103,249,0.49,0.35,3.22
-964,-100,252,-0.07,0.28,3.5
-967,-96,252,-0.63,0.21,3.64
-968,-94,250,-1.4,0.28,3.78
-968,-95,251,-2.03,0.21,3.78
-968,-92,248,-2.45,0.28,3.64
-969,-91,246,-2.59,0.35,3.57
-968,-94,244,-2.66,0.42,3.29
-969,-92,246,-2.03,0.42,2.8
-971,-82,246,-0.84,0.28,2.38
-969,-76,247,-0.28,0.21,1.96
-970,-74,246,-0.49,0.0,1.75
-973,-82,244,-1.12,-0.21,1.47
-970,-91,239,-1.12,-0.28,0.98
-968,-97,244,-0.07,-0.49,0.63
-967,-97,243,1.12,-0.63,0.35
-967,-99,242,1.89,-0.63,0.28
-965,-104,246,2.52,-0.7,0.28
-962,-102,249,3.43,-0.77,0.28
-962,-97,251,3.99,-0.84,0.42
-965,-94,251,3.78,-0.84,0.7
-967,-93,249,3.01,-0.77,0.77
-970,-90,250,2.17,-0.7,0.77
-969,-84,252,1.05,-0.63,0.84
-965,-78,253,-0.07,-0.63,0.84
-967,-74,254,-1.4,-0.7,0.84
-968,-76,254,-2.94,-0.63,0.7
-967,-80,251,-4.34,-0.56,0.42
-970,-83,247,-4.76,-0.49,0.21
-970,-87,245,-4.41,-0.56,-0.07
-966,-84,246,-3.64,-0.56,-0.49
-968,-83,246,-2.66,-0.56,-0.84
-969,-85,244,-1.96,-0.56,-1.33
-966,-86,243,-0.98,-0.56,-1.75
-969,-87,242,0.14,-0.7,-2.17
-969,-89,242,1.12,-0.84,-2.66
-967,-92,243,1.75,-0.91,-3.01
-968,-89,242,2.52,-1.12,-3.5
-970,-86,246,3.08,-1.33,-3.71
-970,-83,247,2.73,-1.61,-3.71
-971,-85,248,1.82,-1.68,-3.64
-968,-93,249,0.7,-1.75,-3.71
-968,-95,250,0.0,-1.82,-3.85
-967,-96,250,-0.42,-1.82,-3.78
-965,-97,248,-1.05,-1.82,-3.5
-967,-100,249,-1.61,-1.82,-3.36
-964,-107,251,-1.96,-1.82,-3.15
-960,-109,251,-2.17,-1.82,-2.87
-961,-113,251,-2.1,-1.68,-2.52
-964,-117,252,-1.75,-1.54,-2.31
-962,-113,251,-0.98,-1.47,-2.24
-964,-108,251,-0.35,-1.4,-2.03
-969,-101,250,0.0,-1.33,-1.82
-967,-95,249,-0.21,-1.4,-1.82
-966,-94,251,-0.91,-1.47,-1.89
-965,-97,253,-1.82,-1.61,-1.96
-967,-97,251,-2.31,-1.61,-2.1
-960,-100,253,-2.52,-1.54,-2.24
-960,-103,253,-2.03,-1.33,-2.45
-967,-106,252,-1.61,-1.4,-2.45
-967,-114,248,-1.05,-1.4,-2.31
-961,-120,247,0.0,-1.33,-2.31
-959,-123,250,1.68,-1.33,-2.17
-963,-123,252,3.29,-1.19,-2.1
-965,-122,252,4.41,-1.05,-1.89
-966,-119,251,5.32,-0.91,-1.82
-965,-116,251,5.74,-0.7,-1.89
-966,-109,254,5.67,-0.63,-1.89
-964,-111,256,4.9,-0.49,-1.54
-962,-118,255,3.57,-0.28,-1.33
-961,-125,255,2.8,-0.07,-1.12
-958,-125,254,2.94,-0.07,-0.84
-960,-119,253,3.29,-0.07,-0.28
-960,-117,254,2.87,0.0,0.49
-961,-117,255,1.82,-0.07,1.12
-965,-115,253,0.84,-0.07,1.61
-965,-114,253,-0.07,-0.14,2.1
-961,-107,253,-0.91,-0.07,2.45
-959,-104,255,-1.89,-0.21,2.87
-959,-106,259,-3.22,-0.14,3.15
-962,-108,253,-3.85,-0.14,3.29
-968,-109,249,-3.36,-0.14,3.29
-966,-108,249,-2.66,0.0,3.36
-966,-100,248,-1.89,0.07,3.15
-971,-93,251,-0.98,0.07,2.94
-968,-90,251,-0.98,0.14,2.66
-965,-91,250,-1.4,0.14,2.52
-967,-99,250,-1.61,0.14,2.31
-968,-108,246,-1.4,0.21,1.89
-967,-110,244,0.07,0.28,1.47
-968,-104,249,1.96,0.28,1.12
-966,-95,248,3.01,0.35,0.84
-965,-91,249,3.43,0.35,0.84
-966,-92,250,2.87,0.28,0.98
-964,-96,250,2.31,0.28,0.98
-965,-101,249,1.89,0.21,1.19
-966,-109,247,1.54,0.21,1.33
-965,-118,244,1.26,0.21,1.4
-965,-120,244,1.82,0.35,1.33
-966,-121,242,2.8,0.35,1.4
-966,-124,239,3.5,0.49,1.61
-966,-122,240,4.69,0.63,1.82
-962,-107,247,6.44,0.63,2.03
-959,-98,252,7.14,0.56,2.38
-958,-96,257,6.58,0.63,2.8
-963,-101,256,5.74,0.63,2.94
-967,-95,250,5.6,0.77,2.52
-971,-70,251,6.72,0.7,2.73
-970,-70,250,5.18,0.77,3.08
-968,-72,242,2.52,0.77,2.87
-976,-80,243,1.4,0.63,2.45
-975,-78,244,0.49,0.63,1.68
-972,-75,243,-0.63,0.63,1.19
-974,-70,245,-1.19,0.56,0.77
-971,-63,248,-1.33,0.42,0.49
-969,-55,254,-1.19,0.21,0.21
-970,-51,255,-1.54,-0.07,0.14
-966,-59,251,-2.31,-0.14,-0.21
-970,-76,244,-2.87,-0.28,-0.63
-970,-96,239,-2.31,-0.35,-0.98
-971,-102,237,-0.21,-0.63,-1.4
-972,-95,242,2.38,-0.77,-1.68
-970,-82,243,3.57,-0.98,-1.96
-966,-78,244,3.08,-1.12,-1.82
-967,-93,243,1.4,-1.26,-1.61
-969,-106,241,0.42,-1.26,-1.54
-969,-110,243,0.91,-1.33,-1.54
-967,-99,243,1.75,-1.33,-1.54
-965,-90,247,1.54,-1.4,-1.19
-965,-93,251,0.28,-1.47,-0.84
-967,-93,250,-0.49,-1.47,-0.63
-968,-90,249,-0.56,-1.47,-0.49
-966,-87,248,-0.84,-1.4,-0.28
-969,-86,246,-1.61,-1.33,-0.14
-971,-91,247,-2.45,-1.26,-0.14
-966,-90,246,-2.8,-1.26,-0.21
-965,-89,244,-2.87,-1.26,-0.21
-968,-101,241,-3.29,-1.26,-0.21
-970,-112,239,-2.87,-1.26,-0.35
-968,-114,240,-0.91,-1.26,-0.7
-965,-99,245,1.61,-1.19,-1.05
-967,-83,252,3.08,-1.26,-1.05
-967,-75,258,2.59,-1.19,-0.98
-965,-76,253,1.26,-1.12,-0.98
-965,-89,247,0.07,-1.12,-1.05
-967,-105,242,-0.63,-1.05,-1.19
-969,-110,243,0.28,-1.12,-1.33
-970,-96,245,2.03,-1.19,-1.61
-969,-81,247,2.8,-1.26,-1.68
-967,-80,251,1.54,-1.33,-1.54
-968,-94,251,-0.63,-1.4,-1.26
-966,-102,254,-1.4,-1.33,-1.26
-964,-99,250,-0.77,-1.33,-1.33
-963,-99,249,-0.7,-1.12,-1.05
-965,-106,250,-1.05,-1.05,-0.91
-967,-111,248,-0.77,-0.98,-0.84
-966,-104,245,0.28,-0.91,-0.84
-967,-95,246,1.12,-0.91,-0.63
-968,-92,249,0.91,-0.98,-0.56
-969,-91,248,0.14,-0.91,-0.63
-969,-86,249,-0.14,-0.98,-0.91
-964,-76,254,-0.56,-1.05,-1.05
-967,-76,254,-1.75,-1.19,-0.98
-971,-88,249,-3.43,-1.26,-1.05
-965,-100,244,-3.85,-1.33,-1.19
-965,-105,244,-2.73,-1.33,-1.54
-967,-103,244,-1.33,-1.4,-1.68
-968,-102,245,-0.35,-1.4,-1.82
-967,-100,246,0.42,-1.4,-2.1
-965,-93,251,1.05,-1.4,-2.17
-969,-87,252,1.33,-1.4,-2.17
-965,-94,250,0.14,-1.47,-2.1
-964,-113,245,-1.05,-1.4,-2.17
-968,-122,247,-0.42,-1.33,-2.38
-966,-112,249,1.54,-1.33,-2.45
-964,-98,250,2.66,-1.4,-2.31
-963,-95,251,1.82,-1.33,-2.03
-965,-106,255,0.28,-1.33,-1.68
-961,-105,255,-0.56,-1.19,-1.68
-963,-96,257,-0.07,-1.12,-1.68
-969,-86,256,-0.35,-1.12,-1.61
-968,-80,253,-1.4,-1.12,-1.26
-966,-95,250,-3.36,-1.19,-1.12
-967,-103,246,-4.34,-1.19,-1.4
-968,-102,248,-3.36,-1.4,-1.68
-968,-86,246,-2.31,-1.75,-2.03
-971,-80,245,-2.45,-1.96,-2.03
-969,-89,246,-4.06,-2.17,-2.1
-969,-99,246,-4.69,-2.38,-2.38
-968,-105,244,-4.06,-2.59,-2.73
-965,-106,246,-2.73,-2.73,-3.08
-962,-108,252,-1.54,-2.94,-3.29
-965,-114,252,-0.98,-2.94,-3.5
-965,-116,251,-0.14,-2.87,-3.64
-962,-109,256,1.19,-2.8,-3.71
-963,-102,258,1.4,-2.8,-3.64
-961,-105,260,0.28,-2.73,-3.43
-956,-117,261,-1.05,-2.59,-3.36
-958,-131,256,-1.68,-2.38,-3.22
-963,-147,248,-1.54,-1.96,-3.08
-960,-158,250,-0.42,-1.61,-2.73
-956,-150,257,1.89,-1.47,-2.45
-957,-128,260,4.13,-1.33,-1.96
-959,-115,262,4.2,-1.12,-1.26
-961,-111,262,2.24,-0.91,-0.63
-962,-109,261,0.42,-0.84,-0.28
-962,-103,261,-0.77,-0.84,0.07
-963,-101,261,-2.24,-0.77,0.28
-962,-105,257,-3.78,-0.63,0.35
-963,-110,254,-4.48,-0.63,0.07
-964,-108,252,-4.06,-0.77,-0.35
-964,-104,255,-3.5,-0.91,-0.56
-962,-96,254,-2.94,-1.05,-0.77
-966,-94,254,-2.8,-1.19,-0.98
-970,-99,248,-3.22,-1.33,-1.33
-966,-107,249,-2.94,-1.47,-1.75
-965,-116,251,-2.45,-1.61,-2.17
-965,-113,249,-0.91,-1.68,-2.66
-964,-110,253,0.56,-1.82,-2.94
-960,-116,258,1.05,-1.89,-3.08
-955,-126,261,1.33,-1.82,-2.87
-955,-137,259,1.96,-1.61,-2.73
-956,-142,256,3.15,-1.4,-2.52
-957,-149,258,4.06,-1.19,-2.1
-958,-157,263,4.48,-0.91,-1.4
-956,-159,264,4.97,-0.49,-0.49
-950,-157,264,5.81,-0.14,0.35
-953,-146,265,6.23,0.14,1.4
-956,-140,266,5.39,0.42,2.59
-956,-136,267,3.78,0.77,3.64
-956,-130,267,1.89,1.19,4.55
-955,-124,265,-0.28,1.47,5.25
-965,-114,260,-2.1,1.68,5.74
-964,-108,258,-4.06,1.75,6.09
-963,-101,256,-5.95,1.75,6.09
-970,-90,251,-7.07,1.68,5.74
-971,-81,247,-7.84,1.47,5.25
-972,-82,244,-8.68,1.19,4.83
-972,-88,244,-8.75,0.84,4.2
-975,-93,239,-7.63,0.56,3.29
-969,-98,238,-5.46,0.28,2.31
-969,-100,239,-2.45,0.0,1.47
-971,-103,240,0.28,-0.35,0.7
-968,-102,241,3.29,-0.56,-0.07
-969,-101,245,6.09,-0.84,-0.77
-968,-101,248,7.7,-0.98,-1.19
-964,-103,251,8.54,-1.19,-1.47
-963,-108,257,8.4,-1.26,-1.47
-963,-114,255,7.63,-1.12,-1.54
-964,-117,254,7.14,-1.05,-1.54
-964,-114,257,6.72,-0.91,-1.33
-961,-110,259,5.39,-0.77,-0.77
-959,-112,263,3.29,-0.7,0.0
-956,-125,266,0.77,-0.63,0.84
-955,-128,262,-0.77,-0.35,1.47
-959,-124,259,-1.05,-0.07,2.17
-965,-117,259,-1.61,0.07,2.73
-962,-106,258,-2.45,0.21,3.22
-961,-100,256,-3.5,0.28,3.64
-963,-96,256,-4.76,0.35,3.78
-965,-97,252,-5.46,0.42,3.64
-966,-93,248,-5.46,0.28,3.29
-973,-86,244,-4.83,0.21,2.8
-973,-80,244,-4.34,0.0,2.17
-970,-78,245,-4.13,-0.28,1.47
-971,-78,242,-3.43,-0.49,0.7
-974,-84,240,-2.73,-0.7,0.0
-972,-90,243,-1.61,-0.91,-0.77
-969,-88,247,0.21,-1.19,-1.68
-967,-88,248,1.54,-1.4,-2.38
-967,-95,244,2.31,-1.54,-2.94
-968,-109,245,2.87,-1.61,-3.29
-967,-119,249,3.71,-1.75,-3.71
-966,-117,249,5.39,-1.68,-4.06
-962,-110,254,6.65,-1.68,-3.92
-959,-103,259,6.3,-1.68,-3.5
-962,-104,262,4.9,-1.75,-2.94
-962,-114,258,2.73,-1.68,-2.31
-958,-119,259,0.98,-1.54,-1.89
-959,-120,259,0.14,-1.4,-1.54
-967,-111,259,-0.63,-1.26,-1.12
-965,-105,258,-2.1,-1.19,-0.77
-962,-102,258,-3.71,-1.19,-0.49
-963,-103,257,-5.25,-1.12,-0.35
-967,-100,254,-6.16,-1.19,-0.35
-967,-99,252,-6.44,-1.26,-0.35
-964,-102,252,-6.72,-1.26,-0.56
-965,-104,250,-6.37,-1.4,-0.98
-967,-105,249,-4.97,-1.47,-1.4
-966,-106,245,-3.57,-1.54,-1.89
-968,-108,245,-2.1,-1.68,-2.24
-968,-110,246,-0.42,-1.82,-2.66
-964,-109,249,1.26,-1.96,-3.08
-965,-107,251,2.45,-2.17,-3.29
-964,-109,252,2.87,-2.24,-3.36
-963,-114,254,2.73,-2.31,-3.43
-963,-118,257,2.8,-2.24,-3.64
-959,-114,261,3.08,-2.24,-3.85
-960,-105,261,2.94,-2.24,-3.92
-965,-106,259,1.61,-2.1,-3.64
-964,-118,256,-0.49,-1.96,-3.36
-960,-128,258,-1.82,-1.96,-3.01
-959,-133,260,-1.96,-1.89,-2.59
-957,-132,262,-1.68,-1.82,-2.17
-957,-127,264,-1.47,-1.68,-1.61
-959,-129,261,-1.82,-1.47,-1.05
-958,-133,261,-2.1,-1.26,-0.63
-956,-133,261,-1.82,-1.12,-0.14
-958,-128,260,-1.61,-0.91,0.14
-958,-128,261,-1.96,-0.84,0.42
-958,-127,260,-2.31,-0.77,0.49
-963,-124,256,-2.1,-0.7,0.56
-965,-121,254,-2.1,-0.63,0.7
-962,-122,251,-2.1,-0.56,0.7
-963,-125,252,-1.89,-0.63,0.63
-962,-122,257,-1.19,-0.63,0.42
-960,-113,258,-0.28,-0.63,0.28
-964,-105,257,0.07,-0.7,0.21
-966,-109,257,-0.56,-0.84,0.21
-964,-120,253,-1.19,-0.84,0.21
-962,-132,252,-0.77,-0.77,0.07
-958,-136,255,0.77,-0.7,-0.14
-958,-128,259,2.73,-0.7,-0.21
-959,-121,262,3.71,-0.49,0.0
-960,-126,260,3.29,-0.28,0.28
-959,-130,258,2.94,-0.07,0.42
-961,-127,258,3.5,-0.07,0.49
-964,-122,259,3.36,0.0,0.77
-963,-116,260,2.24,0.14,1.05
-962,-115,261,0.98,0.14,1.33
-960,-117,260,-0.28,0.21,1.54
-962,-118,259,-1.12,0.28,1.75
-960,-116,256,-1.47,0.35,1.82
-961,-110,255,-1.54,0.28,1.82
-968,-108,253,-1.96,0.21,1.82
-968,-107,255,-2.38,0.14,1.75
-965,-102,252,-2.38,0.0,1.4
-962,-98,253,-2.24,-0.21,1.12
-966,-108,250,-2.45,-0.35,0.91
-962,-120,245,-2.24,-0.49,0.49
-966,-132,245,-0.56,-0.42,0.0
-967,-135,247,2.17,-0.42,-0.49
-962,-123,250,5.04,-0.42,-1.05
-963,-107,254,7.14,-0.42,-1.19
-961,-104,259,7.07,-0.42,-1.05
-964,-111,257,5.95,-0.35,-0.98
-961,-114,258,5.46,-0.21,-1.12
-960,-109,262,5.88,-0.35,-1.12
-959,-102,265,5.74,-0.35,-0.91
-960,-103,264,4.2,-0.28,-0.49
-963,-114,260,2.17,-0.14,-0.14
-964,-124,256,1.05,0.0,0.14
-962,-124,254,0.84,0.07,0.28
-961,-117,256,0.63,0.07,0.7
-963,-109,259,-0.07,0.0,1.05
-963,-106,260,-1.47,0.0,1.33
-960,-106,257,-2.94,0.07,1.54
-965,-111,254,-3.85,0.07,1.54
-969,-110,252,-3.99,0.0,1.54
-964,-107,252,-3.43,-0.14,1.4
-965,-108,250,-3.22,-0.21,1.19
-965,-112,250,-3.08,-0.28,0.98
-966,-110,249,-2.1,-0.42,0.56
-968,-104,250,-0.7,-0.56,0.28
-966,-98,252,0.14,-0.7,0.07
-965,-97,251,0.21,-0.91,-0.21
-969,-104,249,0.07,-1.19,-0.49
-967,-109,245,0.28,-1.33,-0.91
