acc_x[mg],acc_y[mg],acc_z[mg],gyro_x[dps],gyro_y[dps],gyro_z[dps]
83,0,-1004,0.07,-0.77,0.14
84,-1,-1004,0.07,-0.7,0.21
84,0,-1006,0.14,-0.63,0.28
84,-1,-1005,0.35,-0.49,0.35
85,0,-1005,0.42,-0.49,0.49
85,0,-1005,0.56,-0.42,0.49
84,-2,-1005,0.56,-0.42,0.42
84,-2,-1005,0.49,-0.42,0.42
83,-2,-1003,0.35,-0.42,0.35
84,-2,-1003,0.21,-0.49,0.35
84,-1,-1004,0.14,-0.49,0.28
85,-2,-1004,0.0,-0.42,0.35
84,-2,-1005,0.0,-0.35,0.42
84,-1,-1005,0.14,-0.21,0.42
84,-1,-1005,0.14,-0.14,0.35
86,-2,-1005,0.07,-0.21,0.21
84,-2,-1004,-0.07,-0.21,0.14
84,-2,-1004,-0.14,-0.28,0.14
85,-1,-1005,-0.14,-0.21,0.14
85,-1,-1005,-0.14,-0.14,0.14
84,-1,-1005,-0.21,-0.14,0.21
86,-2,-1003,-0.35,-0.14,0.21
86,-2,-1003,-0.63,-0.28,0.14
87,-2,-1002,-1.05,-0.49,0.07
87,-1,-1004,-1.4,-0.63,0.0
86,0,-1003,-1.4,-0.7,-0.07
85,0,-1004,-1.4,-0.7,-0.07
87,0,-1005,-1.26,-0.7,0.0
85,0,-1005,-1.05,-0.63,0.0
86,0,-1005,-0.77,-0.63,0.0
85,0,-1004,-0.7,-0.63,0.0
86,0,-1004,-0.56,-0.7,0.0
86,0,-1005,-0.56,-0.77,-0.07
85,0,-1004,-0.42,-0.77,0.0
84,0,-1004,-0.28,-0.77,0.0
85,1,-1003,-0.14,-0.7,0.07
85,1,-1006,0.07,-0.63,0.14
84,0,-1005,0.35,-0.7,0.28
85,0,-1005,0.49,-0.7,0.35
86,0,-1004,0.56,-0.7,0.35
85,0,-1005,0.7,-0.77,0.35
85,0,-1005,0.84,-0.77,0.35
85,0,-1004,1.05,-0.77,0.49
84,-1,-1004,1.12,-0.77,0.49
85,-1,-1004,1.12,-0.77,0.49
86,0,-1005,1.05,-0.7,0.42
85,0,-1004,0.98,-0.77,0.42
85,0,-1005,0.98,-0.84,0.35
85,-2,-1006,1.05,-0.84,0.35
86,-2,-1005,1.05,-0.84,0.28
86,-1,-1004,0.91,-0.84,0.21
86,-2,-1004,0.77,-0.84,0.21
86,-1,-1005,0.63,-0.91,0.14
86,-2,-1005,0.49,-0.84,0.07
85,-2,-1005,0.35,-0.91,0.07
85,-2,-1004,0.21,-0.91,0.0
85,-2,-1003,0.14,-0.91,-0.07
85,-2,-1004,0.0,-0.98,-0.07
85,-2,-1005,0.0,-0.98,-0.14
86,-3,-1005,-0.07,-0.98,-0.07
85,-1,-1005,-0.07,-0.98,-0.07
86,-2,-1005,0.07,-0.98,-0.07
85,-2,-1004,0.07,-0.91,-0.07
85,-1,-1004,0.14,-0.91,-0.14
85,-2,-1004,0.14,-0.84,-0.07
84,-2,-1006,0.21,-0.84,-0.14
84,-2,-1005,0.28,-0.77,-0.07
85,-2,-1005,0.35,-0.7,-0.07
83,-2,-1005,0.42,-0.7,0.0
85,-3,-1005,0.42,-0.63,0.0
86,-2,-1004,0.35,-0.63,0.0
85,-2,-1004,0.35,-0.63,0.0
85,-2,-1004,0.35,-0.63,0.0
85,-2,-1005,0.42,-0.63,0.07
85,-2,-1005,0.42,-0.56,0.14
84,-3,-1004,0.49,-0.56,0.14
84,-2,-1004,0.56,-0.49,0.21
84,-3,-1003,0.49,-0.56,0.14
85,-3,-1004,0.49,-0.63,0.14
84,-3,-1005,0.42,-0.63,0.21
85,-3,-1005,0.49,-0.7,0.28
86,-3,-1004,0.49,-0.7,0.28
84,-3,-1004,0.56,-0.7,0.42
86,-3,-1006,0.63,-0.7,0.42
85,-4,-1006,0.7,-0.7,0.49
86,-4,-1004,0.56,-0.77,0.42
85,-4,-1004,0.35,-0.84,0.35
85,-4,-1005,0.21,-0.91,0.28
85,-4,-1004,0.21,-0.91,0.21
85,-4,-1005,0.28,-0.84,0.21
85,-4,-1003,0.28,-0.84,0.21
85,-4,-1005,0.21,-0.91,0.21
85,-4,-1004,0.14,-0.91,0.14
86,-4,-1005,0.14,-0.84,0.21
85,-4,-1004,0.21,-0.77,0.28
85,-3,-1005,0.28,-0.77,0.28
86,-3,-1004,0.42,-0.77,0.35
85,-4,-1004,0.56,-0.7,0.42
85,-3,-1006,0.84,-0.63,0.63
84,-4,-1004,0.98,-0.56,0.84
85,-5,-1006,0.91,-0.56,0.84
85,-5,-1005,0.91,-0.49,0.77
85,-4,-1007,0.98,-0.49,0.7
85,-6,-1006,1.19,-0.35,0.63
86,-5,-1007,1.33,-0.28,0.63
85,-5,-1004,1.47,-0.14,0.56
85,-5,-1004,1.47,-0.14,0.56
85,-7,-1006,1.54,-0.07,0.63
86,-5,-1005,1.61,0.0,0.77
85,-4,-1006,1.75,0.07,0.91
85,-5,-1004,2.03,0.07,1.19
87,-6,-1005,2.17,0.14,1.47
87,-8,-1005,2.17,0.07,1.47
87,-10,-1004,2.17,0.07,1.47
87,-10,-1004,1.96,0.0,1.26
88,-12,-1004,1.68,-0.07,1.05
87,-10,-1004,1.47,-0.14,0.84
87,-10,-1004,1.33,-0.14,0.7
87,-11,-1005,1.19,-0.14,0.7
87,-10,-1004,1.12,-0.21,0.7
88,-10,-1005,0.98,-0.28,0.7
88,-9,-1006,1.12,-0.21,0.77
88,-10,-1005,1.19,-0.14,0.91
88,-10,-1004,1.19,-0.14,1.12
88,-11,-1005,1.12,-0.14,1.26
88,-10,-1005,1.05,-0.21,1.12
88,-11,-1004,1.05,-0.14,1.12
88,-12,-1004,1.05,-0.14,1.12
88,-13,-1003,0.98,-0.14,0.98
88,-12,-1004,0.77,-0.28,0.91
88,-11,-1003,0.7,-0.35,0.77
88,-11,-1005,0.77,-0.35,0.77
88,-9,-1005,0.91,-0.21,0.98
89,-7,-1006,1.33,0.0,1.26
88,-7,-1006,1.61,0.0,1.89
89,-13,-1006,1.89,0.07,2.52
89,-13,-1007,2.45,0.28,2.45
89,-12,-1006,3.08,0.42,2.38
88,-15,-1005,3.36,0.42,2.52
90,-13,-1005,3.5,0.42,2.52
87,-13,-1006,3.71,0.42,2.66
90,-14,-1004,3.78,0.49,3.08
88,-14,-1003,3.71,0.35,3.5
88,-16,-1006,3.64,0.35,3.78
90,-19,-1004,3.64,0.49,3.78
90,-21,-1004,3.36,0.49,3.5
92,-23,-1001,3.01,0.42,3.29
92,-24,-1002,2.38,0.14,2.8
92,-23,-1002,1.75,-0.14,2.24
92,-21,-1004,1.54,-0.28,1.89
91,-20,-1004,1.75,-0.42,1.82
90,-19,-1003,2.31,-0.49,2.1
91,-19,-1004,2.8,-0.56,2.52
91,-22,-1006,3.22,-0.7,2.8
92,-25,-1006,3.43,-0.49,2.66
93,-28,-1003,3.15,-0.42,2.24
93,-29,-1002,2.38,-0.63,1.61
93,-28,-1003,1.61,-0.91,1.05
92,-27,-1005,1.05,-0.98,0.63
93,-26,-1004,0.63,-0.98,0.35
92,-25,-1005,0.35,-0.91,0.28
91,-25,-1006,0.42,-0.84,0.21
91,-25,-1006,0.56,-0.84,0.21
91,-26,-1006,0.7,-0.77,0.14
91,-25,-1003,0.7,-0.7,0.21
91,-26,-1005,0.56,-0.7,0.14
91,-27,-1006,0.35,-0.7,0.07
92,-26,-1004,0.07,-0.7,0.0
92,-25,-1003,-0.35,-0.77,-0.07
91,-25,-1004,-0.63,-0.91,-0.21
90,-25,-1004,-0.77,-0.98,-0.21
90,-25,-1004,-0.77,-0.91,-0.28
91,-24,-1004,-0.7,-0.91,-0.21
92,-24,-1004,-0.63,-0.91,-0.14
92,-24,-1004,-0.35,-0.84,-0.07
91,-24,-1004,-0.07,-0.84,0.0
91,-25,-1004,0.0,-0.84,0.0
92,-25,-1003,0.0,-0.91,-0.07
92,-25,-1002,-0.14,-1.05,-0.14
92,-24,-1003,-0.49,-1.26,-0.21
90,-25,-1003,-0.77,-1.47,-0.28
90,-25,-1003,-0.98,-1.68,-0.35
90,-24,-1002,-1.19,-1.82,-0.42
91,-24,-1004,-1.33,-1.96,-0.49
88,-24,-1003,-1.47,-2.1,-0.49
89,-24,-1003,-1.68,-2.1,-0.56
90,-24,-1002,-1.82,-2.17,-0.63
90,-22,-1005,-1.82,-2.17,-0.63
89,-22,-1005,-1.68,-2.1,-0.63
89,-22,-1005,-1.54,-1.96,-0.56
88,-22,-1006,-1.4,-1.89,-0.49
88,-22,-1004,-1.33,-1.89,-0.49
87,-22,-1005,-1.4,-1.82,-0.49
88,-20,-1005,-1.54,-1.89,-0.56
87,-21,-1004,-1.61,-1.82,-0.56
87,-21,-1004,-1.75,-1.82,-0.56
87,-20,-1004,-1.82,-1.89,-0.63
87,-19,-1005,-1.89,-1.82,-0.7
87,-19,-1005,-1.82,-1.75,-0.63
87,-18,-1006,-1.61,-1.68,-0.63
87,-18,-1007,-1.33,-1.61,-0.56
87,-18,-1005,-1.12,-1.54,-0.49
86,-19,-1004,-1.12,-1.61,-0.49
85,-18,-1005,-1.12,-1.61,-0.49
86,-18,-1006,-1.05,-1.61,-0.49
86,-18,-1004,-1.05,-1.54,-0.49
85,-17,-1005,-1.05,-1.47,-0.49
85,-18,-1006,-0.91,-1.33,-0.49
86,-17,-1006,-0.63,-1.19,-0.49
86,-16,-1006,-0.35,-1.05,-0.42
85,-17,-1006,-0.07,-0.98,-0.35
85,-18,-1004,0.0,-0.91,-0.28
84,-18,-1004,-0.21,-0.98,-0.35
85,-18,-1005,-0.49,-1.05,-0.35
85,-17,-1005,-0.7,-1.19,-0.42
86,-17,-1005,-0.77,-1.26,-0.42
85,-17,-1003,-0.77,-1.33,-0.42
85,-16,-1004,-0.91,-1.33,-0.42
85,-17,-1004,-0.98,-1.4,-0.49
85,-16,-1005,-1.05,-1.4,-0.49
85,-17,-1003,-1.05,-1.47,-0.49
84,-16,-1007,-1.12,-1.47,-0.49
84,-17,-1004,-1.19,-1.47,-0.49
85,-16,-1005,-1.26,-1.54,-0.49
84,-15,-1003,-1.4,-1.54,-0.49
84,-17,-1004,-1.61,-1.61,-0.56
84,-14,-1006,-1.68,-1.68,-0.7
83,-15,-1006,-1.61,-1.68,-0.7
83,-14,-1005,-1.4,-1.61,-0.63
83,-14,-1004,-1.19,-1.54,-0.56
83,-13,-1005,-1.05,-1.47,-0.49
82,-13,-1006,-0.91,-1.47,-0.49
83,-13,-1006,-0.84,-1.4,-0.49
82,-14,-1005,-0.77,-1.26,-0.49
82,-15,-1004,-0.7,-1.19,-0.42
82,-13,-1005,-0.7,-1.19,-0.35
82,-13,-1006,-0.56,-1.19,-0.35
83,-12,-1007,-0.35,-1.05,-0.28
81,-14,-1005,-0.14,-0.98,-0.28
82,-13,-1004,0.07,-0.77,-0.21
82,-14,-1005,0.07,-0.7,-0.21
83,-13,-1006,0.07,-0.7,-0.21
82,-13,-1006,0.14,-0.7,-0.21
82,-14,-1005,0.14,-0.7,-0.21
82,-14,-1004,0.21,-0.63,-0.14
82,-14,-1005,0.14,-0.7,-0.14
83,-14,-1005,0.07,-0.7,-0.21
83,-14,-1005,-0.07,-0.77,-0.21
82,-13,-1005,-0.14,-0.77,-0.21
83,-13,-1005,-0.21,-0.84,-0.28
83,-14,-1004,-0.28,-0.84,-0.28
83,-13,-1004,-0.35,-0.91,-0.28
82,-13,-1005,-0.35,-0.91,-0.28
82,-14,-1005,-0.28,-0.91,-0.21
82,-13,-1005,-0.21,-0.91,-0.21
82,-12,-1005,-0.21,-0.84,-0.21
83,-13,-1004,-0.28,-0.84,-0.28
83,-12,-1004,-0.35,-0.84,-0.28
82,-13,-1005,-0.35,-0.84,-0.28
83,-13,-1005,-0.21,-0.77,-0.21
82,-14,-1005,-0.21,-0.77,-0.21
83,-13,-1004,-0.28,-0.77,-0.28
82,-12,-1004,-0.28,-0.77,-0.35
81,-13,-1004,-0.28,-0.84,-0.35
82,-13,-1007,-0.21,-0.77,-0.42
83,-13,-1004,-0.14,-0.77,-0.42
82,-13,-1005,-0.14,-0.7,-0.42
82,-12,-1005,-0.21,-0.84,-0.49
83,-13,-1004,-0.28,-0.84,-0.49
81,-13,-1006,-0.21,-0.77,-0.49
82,-12,-1006,0.0,-0.77,-0.49
82,-11,-1007,0.28,-0.7,-0.56
82,-13,-1006,0.42,-0.63,-0.63
82,-14,-1003,0.28,-0.7,-0.77
81,-12,-1004,-0.07,-0.84,-0.91
81,-13,-1004,-0.28,-0.84,-0.91
81,-11,-1005,-0.21,-0.77,-0.84
81,-11,-1005,0.07,-0.7,-0.7
82,-12,-1005,0.28,-0.63,-0.42
81,-12,-1003,0.35,-0.56,-0.42
82,-12,-1005,0.28,-0.63,-0.35
81,-12,-1005,0.35,-0.56,-0.35
82,-11,-1007,0.42,-0.49,-0.35
81,-12,-1003,0.49,-0.49,-0.28
82,-13,-1003,0.35,-0.63,-0.21
82,-12,-1004,0.14,-0.77,-0.21
82,-12,-1005,0.21,-0.63,-0.14
82,-13,-1004,0.28,-0.63,-0.14
82,-14,-1004,0.21,-0.63,-0.14
83,-14,-1005,0.07,-0.7,-0.14
82,-13,-1005,-0.07,-0.77,-0.14
82,-12,-1005,0.0,-0.77,-0.14
82,-13,-1005,0.0,-0.77,-0.07
83,-13,-1005,0.0,-0.77,-0.07
83,-13,-1006,0.07,-0.84,-0.14
82,-13,-1005,0.07,-0.84,-0.07
81,-12,-1005,0.07,-0.84,-0.07
81,-13,-1005,0.0,-0.77,-0.07
82,-12,-1005,0.07,-0.84,-0.07
82,-12,-1005,0.14,-0.77,-0.07
83,-13,-1005,0.21,-0.7,-0.07
82,-12,-1005,0.21,-0.7,-0.07
82,-14,-1005,0.28,-0.7,-0.07
82,-13,-1005,0.28,-0.7,-0.07
82,-14,-1004,0.21,-0.7,-0.07
82,-13,-1004,0.21,-0.7,-0.07
82,-12,-1006,0.28,-0.7,-0.07
82,-13,-1006,0.21,-0.7,-0.07
82,-13,-1005,0.21,-0.7,-0.07
82,-14,-1005,0.21,-0.77,-0.07
82,-13,-1004,0.14,-0.7,-0.07
81,-13,-1004,0.07,-0.7,-0.07
82,-13,-1005,0.14,-0.7,0.0
82,-13,-1005,0.21,-0.7,-0.07
81,-13,-1005,0.14,-0.7,-0.07
81,-14,-1006,0.14,-0.7,-0.07
81,-13,-1005,0.14,-0.7,-0.07
82,-14,-1004,0.14,-0.7,-0.07
82,-14,-1004,0.14,-0.77,-0.07
82,-13,-1005,0.21,-0.7,0.0
82,-13,-1005,0.21,-0.7,0.0
83,-13,-1005,0.21,-0.7,-0.07
82,-13,-1006,0.21,-0.77,0.0
82,-13,-1005,0.21,-0.77,-0.07
81,-13,-1004,0.14,-0.7,-0.07
83,-13,-1005,0.07,-0.77,-0.07
82,-14,-1006,0.07,-0.77,0.0
82,-14,-1005,0.07,-0.84,0.0
81,-13,-1006,0.07,-0.84,0.0
81,-13,-1006,0.14,-0.84,0.0
82,-13,-1006,0.21,-0.77,-0.07
81,-14,-1005,0.21,-0.7,-0.07
81,-14,-1004,0.21,-0.7,-0.07
82,-13,-1004,0.21,-0.77,-0.07
82,-13,-1005,0.14,-0.77,-0.07
82,-14,-1005,0.21,-0.77,-0.07
81,-13,-1005,0.28,-0.7,-0.07
82,-13,-1004,0.28,-0.63,-0.07
81,-14,-1005,0.21,-0.7,-0.07
82,-13,-1005,0.14,-0.77,-0.07
82,-14,-1007,0.14,-0.77,-0.07
81,-14,-1006,0.14,-0.77,-0.07
82,-15,-1005,0.07,-0.84,-0.07
82,-14,-1005,0.0,-0.91,-0.07
81,-14,-1005,0.0,-0.84,-0.07
82,-14,-1005,0.07,-0.84,-0.07
82,-14,-1004,0.07,-0.7,-0.07
83,-14,-1005,0.14,-0.77,-0.14
82,-14,-1006,0.14,-0.7,-0.07
82,-15,-1005,0.21,-0.7,-0.07
81,-15,-1005,0.14,-0.7,-0.07
82,-14,-1005,0.07,-0.77,-0.07
81,-14,-1005,0.07,-0.77,-0.07
81,-14,-1006,0.14,-0.77,-0.07
81,-14,-1006,0.07,-0.77,-0.07
83,-15,-1005,0.07,-0.77,-0.07
81,-15,-1004,0.07,-0.7,-0.07
81,-14,-1005,0.0,-0.77,-0.07
81,-14,-1005,0.07,-0.7,0.0
80,-14,-1004,0.14,-0.7,-0.07
82,-13,-1005,0.14,-0.7,-0.07
83,-14,-1005,0.14,-0.7,-0.07
81,-14,-1005,0.14,-0.7,-0.07
81,-15,-1005,0.0,-0.77,-0.07
82,-15,-1005,0.0,-0.84,-0.07
81,-14,-1005,0.0,-0.77,-0.07
82,-14,-1005,0.0,-0.77,-0.07
81,-14,-1004,0.0,-0.77,-0.07
81,-14,-1005,0.0,-0.77,-0.07
81,-14,-1005,0.0,-0.84,-0.07
82,-15,-1004,0.0,-0.77,-0.07
81,-14,-1005,-0.07,-0.77,-0.07
82,-14,-1004,0.0,-0.77,-0.07
81,-14,-1005,0.0,-0.84,-0.14
83,-14,-1005,0.0,-0.84,-0.07
83,-14,-1006,0.07,-0.77,-0.07
80,-14,-1006,0.14,-0.7,-0.07
82,-14,-1004,0.07,-0.84,-0.07
81,-15,-1005,0.0,-0.84,-0.14
81,-15,-1005,0.0,-0.84,-0.07
82,-15,-1005,0.0,-0.77,-0.07
82,-13,-1005,0.0,-0.77,-0.14
81,-14,-1004,0.0,-0.84,-0.07
81,-14,-1004,0.0,-0.84,-0.07
82,-14,-1005,-0.07,-0.84,-0.07
82,-14,-1005,-0.07,-0.84,-0.07
81,-15,-1005,-0.07,-0.77,-0.07
80,-15,-1004,0.0,-0.77,-0.07
81,-15,-1005,0.0,-0.84,-0.07
82,-14,-1005,0.0,-0.84,-0.07
81,-15,-1005,0.0,-0.77,-0.14
82,-14,-1004,-0.07,-0.77,-0.07
81,-14,-1005,-0.07,-0.77,-0.07
82,-14,-1006,-0.07,-0.77,-0.14
81,-15,-1006,-0.07,-0.77,-0.07
81,-15,-1006,0.0,-0.7,-0.07
81,-15,-1005,0.0,-0.7,-0.07
81,-14,-1005,0.07,-0.77,-0.07
81,-15,-1005,0.07,-0.7,-0.07
81,-15,-1005,0.14,-0.77,-0.14
80,-14,-1006,0.07,-0.77,-0.07
80,-14,-1005,0.14,-0.77,-0.07
81,-15,-1005,0.07,-0.77,-0.07
81,-14,-1006,0.0,-0.77,-0.07
82,-14,-1004,-0.07,-0.77,-0.07
81,-14,-1004,-0.07,-0.84,-0.07
81,-14,-1005,-0.14,-0.84,-0.07
80,-14,-1005,-0.14,-0.91,-0.14
80,-14,-1005,-0.07,-0.84,-0.14
82,-14,-1005,-0.07,-0.91,-0.14
81,-14,-1005,-0.14,-0.91,-0.14
81,-13,-1006,-0.14,-0.91,-0.14
80,-14,-1004,-0.14,-0.91,-0.14
80,-13,-1006,-0.14,-0.91,-0.14
80,-14,-1006,0.0,-0.91,-0.14
81,-14,-1006,0.07,-0.84,-0.14
80,-14,-1004,0.07,-0.7,-0.14
81,-13,-1005,0.07,-0.7,-0.07
80,-14,-1006,0.14,-0.7,-0.07
81,-15,-1006,0.21,-0.63,-0.07
80,-14,-1006,0.21,-0.63,-0.14
81,-15,-1005,0.21,-0.63,-0.07
82,-14,-1005,0.21,-0.63,-0.14
81,-15,-1005,0.14,-0.7,-0.07
81,-15,-1005,0.07,-0.77,-0.07
81,-14,-1005,0.0,-0.77,-0.07
80,-14,-1005,0.0,-0.77,-0.07
81,-14,-1005,-0.07,-0.77,-0.14
82,-14,-1006,-0.07,-0.77,-0.14
81,-15,-1005,-0.07,-0.84,-0.14
80,-14,-1005,-0.07,-0.77,-0.14
81,-15,-1005,-0.07,-0.84,-0.07
81,-15,-1005,-0.07,-0.77,-0.07
81,-15,-1005,-0.07,-0.77,-0.14
81,-14,-1006,-0.07,-0.77,-0.14
82,-14,-1006,0.07,-0.63,-0.14
80,-14,-1004,0.07,-0.7,-0.14
81,-15,-1004,-0.07,-0.77,-0.14
80,-13,-1005,-0.07,-0.84,-0.07
81,-14,-1005,0.0,-0.84,-0.14
80,-14,-1005,0.07,-0.77,-0.14
79,-14,-1005,0.0,-0.77,-0.14
81,-13,-1005,0.07,-0.77,-0.14
81,-15,-1006,0.07,-0.77,-0.07
81,-14,-1005,0.0,-0.77,-0.07
80,-14,-1005,0.07,-0.7,-0.07
81,-15,-1005,0.14,-0.7,-0.07
81,-15,-1005,0.07,-0.7,-0.07
80,-14,-1005,0.07,-0.7,-0.14
81,-14,-1005,0.07,-0.77,-0.14
81,-14,-1005,0.14,-0.7,-0.07
81,-15,-1004,0.07,-0.7,-0.07
81,-15,-1004,0.0,-0.7,-0.07
80,-15,-1004,0.07,-0.7,-0.07
80,-15,-1005,0.07,-0.63,-0.07
82,-15,-1005,0.14,-0.7,-0.07
80,-15,-1006,0.14,-0.7,-0.07
81,-13,-1005,0.14,-0.7,-0.07
81,-15,-1005,0.07,-0.77,0.0
81,-14,-1006,0.07,-0.7,-0.07
81,-15,-1005,0.07,-0.77,-0.07
81,-15,-1006,0.07,-0.77,-0.07
81,-15,-1005,0.14,-0.7,-0.07
80,-13,-1006,0.21,-0.63,-0.07
81,-15,-1004,0.42,-0.56,0.0
80,-15,-1004,0.28,-0.63,0.0
80,-15,-1005,0.28,-0.63,-0.07
82,-15,-1005,0.21,-0.7,-0.07
81,-14,-1005,0.21,-0.7,-0.07
81,-14,-1005,0.14,-0.7,-0.07
82,-14,-1005,0.14,-0.63,0.0
81,-15,-1004,0.07,-0.7,0.0
80,-13,-1006,0.14,-0.7,0.0
81,-15,-1005,0.21,-0.7,0.0
81,-15,-1005,0.14,-0.7,-0.07
82,-14,-1006,0.14,-0.7,-0.07
81,-14,-1005,0.14,-0.77,-0.07
81,-15,-1005,0.07,-0.77,-0.07
80,-14,-1005,0.14,-0.7,-0.07
80,-15,-1005,0.14,-0.7,-0.07
80,-14,-1005,0.14,-0.7,-0.07
81,-16,-1005,0.21,-0.7,-0.07
80,-14,-1005,0.21,-0.63,-0.07
80,-15,-1005,0.28,-0.7,-0.07
82,-15,-1005,0.14,-0.77,-0.07
81,-15,-1005,0.07,-0.77,-0.07
81,-15,-1006,0.14,-0.7,-0.07
81,-16,-1006,0.21,-0.7,0.0
81,-15,-1006,0.21,-0.7,-0.07
81,-15,-1005,0.07,-0.77,-0.07
81,-15,-1006,0.07,-0.77,-0.07
81,-16,-1006,0.07,-0.77,-0.07
81,-15,-1005,0.14,-0.7,-0.07
82,-16,-1005,0.21,-0.7,-0.07
81,-15,-1006,0.14,-0.77,-0.14
81,-16,-1005,0.07,-0.77,-0.14
80,-14,-1006,0.07,-0.7,-0.07
82,-15,-1005,0.14,-0.77,-0.07
79,-15,-1005,0.14,-0.7,-0.07
81,-15,-1004,0.14,-0.7,-0.07
81,-15,-1005,0.07,-0.7,-0.07
81,-15,-1005,0.07,-0.7,-0.07
80,-14,-1005,0.07,-0.7,-0.07
81,-15,-1005,0.07,-0.77,-0.07
81,-15,-1005,0.07,-0.7,-0.07
81,-16,-1005,0.14,-0.7,-0.07
81,-14,-1005,0.14,-0.7,-0.07
81,-15,-1004,0.07,-0.63,-0.07
81,-15,-1004,0.07,-0.63,-0.07
83,-16,-1005,0.0,-0.7,-0.07
81,-15,-1006,-0.07,-0.77,-0.07
81,-16,-1005,-0.14,-0.84,-0.07
80,-16,-1006,-0.28,-0.91,-0.14
80,-15,-1005,-0.42,-1.05,-0.14
80,-15,-1005,-0.56,-1.05,-0.14
79,-15,-1005,-0.56,-0.98,-0.14
82,-15,-1004,-0.42,-0.98,-0.14
80,-14,-1006,-0.35,-0.91,-0.07
81,-16,-1006,-0.14,-0.84,-0.07
80,-15,-1005,-0.07,-0.84,-0.14
81,-15,-1004,-0.07,-0.77,-0.14
80,-15,-1005,-0.07,-0.77,-0.07
80,-15,-1005,-0.14,-0.77,-0.14
81,-14,-1005,-0.07,-0.77,-0.07
81,-15,-1006,-0.07,-0.77,-0.07
80,-14,-1006,0.07,-0.7,-0.07
81,-16,-1005,0.07,-0.7,-0.07
80,-15,-1004,0.14,-0.7,-0.07
80,-15,-1005,0.07,-0.7,-0.07
81,-13,-1005,0.07,-0.77,-0.07
80,-14,-1006,0.07,-0.77,-0.07
80,-14,-1004,0.14,-0.7,-0.07
81,-14,-1004,0.21,-0.7,-0.07
80,-15,-1005,0.21,-0.63,-0.07
81,-15,-1005,0.28,-0.63,0.0
81,-16,-1004,0.28,-0.56,0.0
80,-15,-1005,0.28,-0.63,-0.07
81,-15,-1005,0.28,-0.63,-0.07
81,-16,-1005,0.28,-0.63,-0.07
81,-16,-1004,0.28,-0.7,-0.07
80,-15,-1005,0.21,-0.7,-0.07
80,-15,-1005,0.21,-0.7,-0.07
81,-15,-1006,0.14,-0.77,-0.07
80,-16,-1005,0.14,-0.77,-0.07
81,-15,-1006,0.14,-0.7,-0.07
81,-15,-1004,0.07,-0.7,-0.07
80,-15,-1005,0.0,-0.77,-0.07
81,-16,-1006,-0.07,-0.84,-0.14
81,-16,-1005,-0.07,-0.84,-0.14
81,-15,-1005,-0.07,-0.84,-0.14
80,-16,-1005,-0.07,-0.84,-0.14
81,-16,-1005,-0.07,-0.91,-0.14
80,-15,-1005,-0.07,-0.91,-0.07
80,-15,-1005,-0.07,-0.84,-0.14
80,-15,-1006,-0.07,-0.91,-0.14
80,-15,-1005,0.0,-0.84,-0.07
81,-16,-1006,0.0,-0.77,-0.07
81,-15,-1005,0.0,-0.77,-0.07
80,-14,-1005,0.0,-0.77,-0.07
81,-15,-1005,0.0,-0.77,-0.07
80,-16,-1005,0.07,-0.7,-0.07
81,-15,-1006,0.07,-0.7,0.0
81,-16,-1005,0.14,-0.63,-0.07
79,-16,-1004,0.14,-0.63,-0.07
80,-15,-1005,0.14,-0.63,-0.07
81,-15,-1005,0.14,-0.56,0.0
81,-15,-1005,0.28,-0.56,0.0
81,-15,-1006,0.28,-0.56,0.0
81,-16,-1006,0.28,-0.63,0.0
80,-14,-1005,0.21,-0.63,0.0
80,-16,-1005,0.21,-0.7,-0.07
80,-16,-1006,0.21,-0.7,-0.07
80,-15,-1004,0.21,-0.7,-0.07
82,-16,-1004,0.14,-0.77,-0.14
80,-16,-1005,0.14,-0.77,-0.07
81,-15,-1006,0.07,-0.77,-0.07
81,-15,-1004,0.0,-0.77,-0.07
80,-16,-1007,0.0,-0.84,-0.07
80,-16,-1005,0.07,-0.77,-0.07
81,-15,-1006,0.07,-0.77,-0.07
81,-17,-1004,0.07,-0.84,-0.07
81,-16,-1006,0.07,-0.77,-0.07
80,-16,-1006,0.0,-0.77,-0.07
80,-16,-1006,0.0,-0.77,-0.07
80,-15,-1005,0.0,-0.77,-0.07
81,-16,-1005,-0.14,-0.77,-0.07
81,-15,-1005,-0.21,-0.84,-0.07
81,-15,-1006,-0.14,-0.77,-0.07
81,-15,-1005,-0.07,-0.77,-0.07
79,-15,-1005,0.0,-0.7,-0.07
80,-16,-1006,0.0,-0.7,-0.07
80,-15,-1005,0.0,-0.7,0.0
81,-16,-1005,0.0,-0.7,-0.07
81,-16,-1005,0.0,-0.7,-0.07
81,-17,-1006,0.0,-0.7,0.0
81,-15,-1005,0.0,-0.63,-0.07
80,-15,-1006,0.0,-0.63,-0.07
80,-16,-1005,0.07,-0.63,-0.07
80,-15,-1005,0.07,-0.63,-0.14
81,-16,-1005,0.07,-0.7,-0.07
81,-16,-1005,0.07,-0.63,-0.07
81,-16,-1005,0.07,-0.7,-0.07
80,-16,-1006,0.07,-0.7,-0.07
81,-16,-1006,0.07,-0.7,-0.07
80,-16,-1006,0.07,-0.7,-0.07
80,-15,-1005,0.07,-0.7,-0.07
81,-15,-1005,0.07,-0.7,-0.07
80,-16,-1005,0.0,-0.7,-0.07
80,-16,-1006,0.07,-0.7,-0.07
81,-16,-1004,0.0,-0.7,-0.07
81,-16,-1006,0.0,-0.77,-0.07
81,-17,-1005,0.07,-0.77,-0.07
81,-17,-1004,0.0,-0.7,-0.07
81,-16,-1006,0.0,-0.77,-0.07
80,-15,-1006,-0.14,-0.84,-0.14
81,-15,-1006,-0.14,-0.84,-0.07
81,-15,-1005,-0.07,-0.77,-0.07
80,-16,-1005,-0.14,-0.84,-0.14
81,-16,-1005,-0.07,-0.84,-0.07
81,-16,-1005,0.0,-0.77,-0.07
80,-15,-1005,0.0,-0.77,0.0
81,-15,-1006,0.07,-0.77,-0.07
81,-15,-1005,0.14,-0.77,-0.07
80,-16,-1005,0.07,-0.7,-0.14
80,-15,-1005,0.07,-0.7,-0.14
81,-15,-1006,0.07,-0.77,-0.07
80,-17,-1006,0.14,-0.7,-0.07
81,-15,-1005,0.21,-0.7,-0.07
81,-15,-1005,0.14,-0.7,0.0
81,-15,-1006,0.21,-0.77,-0.07
80,-16,-1005,0.21,-0.7,-0.07
81,-16,-1005,0.21,-0.7,-0.07
81,-16,-1005,0.21,-0.7,-0.07
80,-17,-1005,0.14,-0.7,-0.14
80,-16,-1005,0.14,-0.7,-0.14
81,-16,-1005,0.14,-0.77,-0.07
80,-15,-1005,0.14,-0.7,-0.07
81,-17,-1005,0.07,-0.84,-0.07
81,-16,-1005,0.07,-0.77,-0.07
80,-17,-1005,0.07,-0.77,-0.07
80,-17,-1005,0.0,-0.77,-0.07
80,-16,-1005,0.0,-0.77,-0.07
80,-16,-1004,0.07,-0.77,-0.07
80,-16,-1003,0.07,-0.77,-0.07
80,-16,-1005,0.0,-0.7,-0.07
80,-16,-1006,0.0,-0.77,-0.07
81,-16,-1004,0.0,-0.77,-0.07
81,-16,-1005,0.07,-0.7,-0.07
80,-16,-1005,0.0,-0.7,-0.07
80,-16,-1005,0.0,-0.7,-0.07
80,-17,-1005,-0.07,-0.77,-0.07
81,-17,-1005,-0.07,-0.84,0.0
80,-17,-1005,-0.07,-0.77,-0.07
80,-17,-1005,-0.07,-0.77,-0.07
80,-15,-1005,-0.07,-0.77,-0.07
81,-15,-1006,-0.07,-0.77,-0.07
81,-16,-1006,-0.07,-0.77,-0.07
80,-17,-1005,-0.07,-0.77,-0.07
80,-17,-1005,-0.07,-0.77,-0.07
81,-17,-1005,-0.07,-0.77,-0.14
80,-17,-1006,-0.07,-0.77,-0.07
80,-16,-1006,-0.07,-0.77,-0.07
81,-16,-1005,-0.07,-0.77,-0.07
81,-16,-1005,-0.07,-0.77,-0.14
80,-16,-1005,-0.14,-0.77,-0.07
80,-15,-1005,-0.07,-0.77,-0.07
79,-16,-1005,0.0,-0.7,-0.14
81,-16,-1005,0.0,-0.7,-0.07
80,-17,-1004,0.0,-0.7,-0.07
81,-16,-1005,0.0,-0.77,-0.07
80,-16,-1006,0.0,-0.77,-0.07
80,-16,-1005,0.0,-0.7,-0.07
80,-16,-1005,0.0,-0.77,-0.07
80,-16,-1005,0.0,-0.77,-0.07
80,-16,-1005,-0.07,-0.77,-0.07
81,-16,-1005,0.0,-0.77,-0.07
81,-15,-1005,0.0,-0.77,0.0
81,-15,-1005,0.0,-0.7,0.0
80,-16,-1005,0.0,-0.7,-0.07
81,-16,-1006,0.07,-0.7,-0.07
79,-16,-1006,0.14,-0.7,-0.07
81,-17,-1005,0.14,-0.7,-0.07
80,-17,-1005,0.14,-0.7,-0.07
81,-16,-1005,0.07,-0.7,-0.07
80,-16,-1005,0.07,-0.7,-0.07
80,-17,-1005,0.07,-0.77,-0.07
80,-16,-1007,0.14,-0.7,0.0
80,-16,-1006,0.28,-0.63,0.0
81,-17,-1005,0.35,-0.63,0.07
81,-16,-1005,0.28,-0.77,0.0
80,-17,-1005,0.28,-0.77,0.0
80,-17,-1006,0.07,-0.77,0.0
80,-16,-1006,0.07,-0.77,0.0
80,-16,-1005,0.07,-0.7,-0.07
80,-17,-1005,0.07,-0.7,0.0
80,-17,-1004,0.14,-0.63,-0.07
80,-17,-1006,0.07,-0.7,0.0
81,-17,-1005,0.07,-0.7,0.0
80,-17,-1005,0.07,-0.7,-0.07
81,-17,-1005,0.14,-0.77,0.0
81,-16,-1005,0.14,-0.77,-0.07
81,-16,-1005,0.07,-0.7,-0.07
80,-16,-1004,0.07,-0.7,-0.07
81,-16,-1005,0.07,-0.77,-0.07
79,-16,-1006,0.0,-0.77,-0.07
80,-17,-1005,0.0,-0.77,-0.14
80,-17,-1005,-0.07,-0.77,-0.07
79,-16,-1005,-0.07,-0.77,-0.14
80,-16,-1006,-0.07,-0.77,-0.07
80,-17,-1005,0.0,-0.77,-0.07
80,-17,-1005,0.0,-0.77,-0.07
81,-16,-1006,0.07,-0.7,-0.07
81,-17,-1005,0.14,-0.7,-0.07
79,-17,-1005,0.07,-0.7,-0.07
80,-16,-1005,0.14,-0.7,-0.07
79,-17,-1004,0.14,-0.7,-0.07
80,-16,-1005,0.21,-0.7,-0.07
80,-17,-1004,0.21,-0.63,0.0
80,-16,-1005,0.21,-0.63,0.0
81,-17,-1005,0.21,-0.63,-0.07
79,-18,-1004,0.21,-0.63,-0.07
81,-17,-1005,0.07,-0.7,-0.07
80,-17,-1006,0.07,-0.7,-0.07
80,-15,-1005,0.07,-0.7,-0.07
80,-17,-1006,0.07,-0.77,-0.07
80,-16,-1005,0.07,-0.7,-0.07
80,-17,-1005,0.07,-0.7,-0.07
81,-17,-1006,0.0,-0.77,-0.07
81,-17,-1005,-0.07,-0.84,-0.07
80,-16,-1005,-0.07,-0.77,-0.07
80,-16,-1006,-0.14,-0.77,-0.07
79,-16,-1005,-0.14,-0.77,-0.07
80,-17,-1006,-0.21,-0.77,0.0
81,-16,-1005,-0.21,-0.77,-0.07
80,-16,-1006,-0.28,-0.77,-0.07
80,-16,-1005,-0.28,-0.77,-0.07
80,-16,-1004,-0.42,-0.91,-0.14
81,-17,-1006,-0.63,-1.05,-0.07
79,-16,-1007,-0.7,-0.98,-0.07
80,-16,-1006,-0.77,-0.98,-0.21
80,-16,-1005,-0.63,-0.98,-0.14
80,-15,-1005,-0.56,-0.98,-0.14
79,-15,-1006,-0.56,-0.98,-0.14
80,-15,-1005,-0.49,-0.98,-0.14
80,-15,-1005,-0.49,-0.98,-0.21
79,-15,-1007,-0.42,-0.91,-0.07
79,-15,-1006,-0.28,-0.84,-0.14
81,-14,-1006,-0.14,-0.77,-0.07
79,-15,-1006,0.0,-0.7,-0.14
79,-15,-1006,0.0,-0.7,-0.07
80,-14,-1005,0.07,-0.7,-0.07
80,-15,-1005,0.07,-0.7,-0.07
80,-16,-1004,0.07,-0.7,-0.07
80,-17,-1005,0.07,-0.63,-0.07
81,-15,-1005,0.14,-0.63,-0.07
80,-15,-1005,0.21,-0.63,-0.07
79,-15,-1004,0.21,-0.63,-0.07
80,-16,-1006,0.21,-0.63,-0.07
80,-15,-1006,0.21,-0.63,-0.07
80,-16,-1005,0.21,-0.63,-0.07
79,-16,-1005,0.21,-0.63,-0.07
80,-16,-1006,0.21,-0.56,-0.07
80,-16,-1005,0.07,-0.63,-0.07
80,-16,-1005,0.07,-0.7,-0.07
80,-16,-1004,0.07,-0.7,-0.07
80,-16,-1004,-0.07,-0.77,-0.07
80,-17,-1005,-0.07,-0.77,-0.07
81,-16,-1005,-0.14,-0.77,-0.14
80,-16,-1005,-0.21,-0.77,-0.14
79,-16,-1005,-0.35,-0.84,-0.07
79,-16,-1005,-0.35,-0.84,-0.07
80,-15,-1005,-0.42,-0.91,-0.07
79,-16,-1006,-0.35,-0.91,-0.14
81,-15,-1006,-0.28,-0.98,-0.14
79,-15,-1005,-0.21,-0.98,-0.21
78,-15,-1006,-0.21,-0.91,-0.14
79,-15,-1006,-0.28,-0.98,-0.21
80,-15,-1006,-0.21,-0.91,-0.21
80,-15,-1006,-0.21,-0.91,-0.14
80,-15,-1006,-0.14,-0.91,-0.14
78,-15,-1004,-0.14,-0.84,-0.14
79,-14,-1005,-0.21,-0.84,-0.21
79,-14,-1005,-0.14,-0.84,-0.21
79,-14,-1006,0.0,-0.84,-0.21
80,-14,-1006,0.14,-0.7,-0.21
79,-14,-1004,0.14,-0.7,-0.21
79,-15,-1005,0.0,-0.77,-0.21
79,-16,-1005,-0.07,-0.77,-0.21
79,-15,-1005,0.0,-0.7,-0.21
79,-15,-1005,0.14,-0.7,-0.21
79,-15,-1006,0.28,-0.63,-0.14
78,-16,-1006,0.28,-0.63,-0.14
80,-14,-1004,0.28,-0.63,-0.14
80,-15,-1005,0.21,-0.7,-0.14
79,-15,-1004,0.07,-0.7,-0.14
80,-15,-1006,0.07,-0.7,-0.14
80,-14,-1006,0.14,-0.7,-0.07
79,-14,-1005,0.21,-0.7,-0.14
79,-15,-1005,0.21,-0.7,-0.14
80,-15,-1005,0.07,-0.77,-0.14
80,-15,-1005,0.07,-0.77,-0.14
79,-16,-1005,0.14,-0.77,-0.14
78,-16,-1005,0.14,-0.7,-0.14
79,-15,-1004,0.14,-0.7,-0.07
78,-14,-1005,0.07,-0.7,-0.07
79,-15,-1005,0.07,-0.7,-0.07
78,-16,-1005,0.07,-0.7,0.0
80,-16,-1006,0.14,-0.63,-0.07
79,-15,-1006,0.21,-0.63,-0.07
80,-16,-1005,0.21,-0.63,-0.07
80,-14,-1005,0.14,-0.7,-0.07
79,-15,-1006,0.21,-0.7,-0.07
80,-15,-1005,0.28,-0.63,-0.07
79,-15,-1006,0.28,-0.63,0.0
80,-16,-1005,0.28,-0.63,-0.07
79,-15,-1006,0.28,-0.63,-0.07
79,-16,-1005,0.28,-0.63,0.0
80,-16,-1006,0.21,-0.63,-0.07
79,-16,-1005,0.21,-0.63,0.0
79,-15,-1005,0.28,-0.63,0.0
79,-17,-1004,0.28,-0.63,0.0
81,-15,-1005,0.21,-0.63,-0.07
80,-17,-1006,0.21,-0.63,-0.07
80,-16,-1005,0.21,-0.63,-0.07
78,-15,-1005,0.14,-0.63,0.0
79,-16,-1006,0.14,-0.63,-0.07
80,-16,-1006,0.07,-0.7,-0.14
80,-16,-1005,0.14,-0.63,-0.07
80,-16,-1005,0.07,-0.7,-0.07
79,-16,-1005,0.07,-0.7,-0.07
80,-15,-1005,0.14,-0.63,-0.14
80,-16,-1005,0.07,-0.7,-0.07
80,-16,-1005,0.0,-0.77,-0.14
80,-15,-1005,0.0,-0.77,-0.07
80,-16,-1006,0.0,-0.7,-0.07
79,-15,-1006,-0.07,-0.7,-0.14
80,-16,-1005,-0.07,-0.7,-0.14
80,-16,-1005,0.0,-0.7,0.0
79,-15,-1005,0.0,-0.7,-0.07
80,-16,-1005,0.07,-0.7,-0.07
79,-17,-1005,0.07,-0.77,-0.07
80,-16,-1005,0.0,-0.7,-0.07
81,-16,-1005,0.0,-0.77,-0.14
79,-17,-1005,0.07,-0.7,-0.07
80,-16,-1005,0.07,-0.63,-0.07
79,-16,-1006,0.07,-0.7,-0.07
79,-15,-1005,0.14,-0.63,-0.14
79,-15,-1005,0.21,-0.63,-0.07
80,-15,-1005,0.21,-0.63,-0.07
81,-15,-1006,0.21,-0.63,-0.07
80,-17,-1005,0.28,-0.63,-0.07
79,-15,-1004,0.28,-0.56,-0.07
80,-16,-1005,0.21,-0.63,0.0
80,-16,-1004,0.21,-0.63,-0.07
80,-16,-1005,0.21,-0.63,-0.07
81,-16,-1005,0.14,-0.63,-0.07
80,-16,-1005,0.07,-0.7,-0.07
80,-17,-1004,0.07,-0.7,-0.07
80,-16,-1006,0.07,-0.7,-0.07
79,-17,-1005,0.07,-0.7,-0.07
79,-16,-1005,0.07,-0.77,-0.07
80,-16,-1006,0.07,-0.84,-0.07
79,-15,-1006,0.07,-0.84,-0.07
79,-15,-1006,0.14,-0.84,-0.07
80,-17,-1007,0.56,-0.63,0.0
80,-17,-1004,0.63,-0.49,0.0
79,-17,-1005,0.35,-0.63,0.0
79,-17,-1006,0.21,-0.77,-0.07
80,-16,-1005,0.0,-0.84,-0.14
79,-16,-1005,-0.14,-0.84,-0.14
80,-16,-1005,-0.14,-0.84,-0.07
79,-17,-1005,-0.14,-0.84,-0.14
80,-17,-1004,-0.14,-0.84,-0.07
80,-17,-1006,-0.21,-0.84,-0.07
81,-17,-1005,-0.28,-0.84,-0.07
81,-16,-1006,-0.28,-0.84,-0.14
80,-16,-1006,-0.21,-0.77,-0.14
80,-17,-1005,-0.14,-0.77,-0.14
79,-16,-1006,-0.07,-0.7,-0.07
79,-16,-1005,-0.07,-0.7,-0.07
78,-16,-1005,0.0,-0.7,-0.14
79,-16,-1006,0.0,-0.7,-0.07
79,-17,-1006,0.0,-0.7,-0.07
80,-16,-1006,0.07,-0.7,-0.07
80,-17,-1005,0.14,-0.63,-0.07
80,-16,-1005,0.14,-0.63,-0.14
79,-17,-1005,0.21,-0.63,-0.07
80,-16,-1005,0.21,-0.63,-0.07
79,-17,-1005,0.28,-0.63,-0.14
80,-16,-1006,0.28,-0.63,-0.07
79,-16,-1005,0.28,-0.63,-0.07
79,-18,-1004,0.28,-0.63,-0.07
79,-17,-1004,0.21,-0.63,-0.07
80,-16,-1005,0.14,-0.63,-0.07
80,-17,-1005,0.14,-0.7,-0.07
79,-16,-1005,0.14,-0.63,-0.07
80,-17,-1005,0.14,-0.7,-0.07
79,-16,-1006,0.07,-0.7,-0.07
80,-16,-1005,0.07,-0.77,-0.07
81,-17,-1005,0.07,-0.77,-0.07
80,-17,-1005,-0.07,-0.84,-0.07
79,-16,-1005,0.0,-0.84,-0.14
79,-17,-1005,0.0,-0.84,-0.07
80,-17,-1005,-0.07,-0.84,-0.07
79,-17,-1005,-0.07,-0.84,-0.07
80,-17,-1006,-0.07,-0.84,-0.07
79,-17,-1005,-0.07,-0.77,-0.07
80,-16,-1006,0.0,-0.77,-0.07
80,-17,-1005,0.07,-0.77,-0.07
81,-17,-1005,0.07,-0.77,-0.07
79,-17,-1005,0.0,-0.77,-0.07
79,-17,-1005,0.0,-0.77,-0.07
80,-17,-1005,0.07,-0.77,-0.07
78,-16,-1005,0.07,-0.84,-0.07
80,-16,-1006,0.07,-0.77,-0.07
79,-16,-1006,0.07,-0.77,-0.14
80,-16,-1006,0.0,-0.77,-0.07
81,-17,-1004,0.07,-0.7,-0.14
79,-17,-1005,0.14,-0.7,-0.07
81,-17,-1005,0.14,-0.7,-0.07
80,-17,-1006,0.14,-0.7,-0.07
80,-17,-1005,0.07,-0.7,-0.07
79,-17,-1006,0.07,-0.7,-0.07
80,-17,-1005,0.07,-0.7,-0.07
80,-17,-1005,0.0,-0.7,-0.07
80,-17,-1005,0.0,-0.7,-0.07
80,-16,-1005,-0.07,-0.77,-0.07
79,-17,-1006,0.0,-0.77,-0.07
80,-17,-1005,0.07,-0.77,-0.07
80,-17,-1006,0.0,-0.77,-0.07
80,-17,-1006,0.0,-0.77,-0.14
79,-17,-1005,0.0,-0.77,-0.14
80,-16,-1005,0.0,-0.77,-0.07
79,-17,-1006,0.0,-0.7,-0.07
79,-17,-1005,0.07,-0.7,-0.07
79,-17,-1005,0.07,-0.7,-0.07
80,-17,-1006,0.07,-0.7,-0.07
80,-16,-1005,0.0,-0.77,-0.07
80,-17,-1006,0.0,-0.7,-0.14
81,-17,-1005,0.07,-0.7,-0.07
79,-16,-1005,0.14,-0.7,-0.07
79,-17,-1005,0.07,-0.7,-0.07
79,-18,-1006,0.07,-0.77,-0.07
79,-17,-1006,0.07,-0.7,-0.07
79,-18,-1005,0.14,-0.7,-0.14
79,-16,-1006,0.07,-0.7,-0.14
79,-17,-1005,0.14,-0.7,-0.07
79,-18,-1005,0.14,-0.7,-0.07
79,-16,-1005,0.07,-0.7,-0.07
80,-18,-1006,0.07,-0.7,0.0
80,-17,-1005,0.07,-0.63,0.0
80,-18,-1005,0.14,-0.7,-0.07
80,-17,-1005,0.14,-0.63,-0.07
79,-17,-1005,0.14,-0.63,0.0
79,-17,-1005,0.07,-0.7,-0.07
79,-17,-1005,0.14,-0.7,-0.07
79,-17,-1006,0.21,-0.63,0.0
79,-17,-1005,0.21,-0.63,-0.07
80,-17,-1006,0.21,-0.63,-0.07
80,-17,-1005,0.21,-0.63,-0.07
80,-17,-1005,0.21,-0.63,-0.07
79,-17,-1005,0.14,-0.63,-0.07
80,-17,-1006,0.14,-0.63,0.0
80,-17,-1006,0.14,-0.7,0.0
79,-18,-1005,0.14,-0.7,-0.07
80,-17,-1004,0.07,-0.7,-0.07
79,-17,-1006,0.07,-0.7,-0.07
80,-17,-1006,0.07,-0.77,-0.14
79,-17,-1005,0.07,-0.7,-0.14
80,-17,-1005,0.07,-0.77,-0.07
79,-18,-1005,0.0,-0.7,-0.07
80,-17,-1006,0.07,-0.7,-0.07
79,-18,-1005,0.07,-0.63,-0.07
80,-17,-1005,0.07,-0.7,-0.07
79,-17,-1006,0.07,-0.7,-0.07
80,-18,-1006,0.0,-0.7,-0.07
80,-18,-1005,-0.07,-0.77,-0.07
80,-17,-1005,-0.07,-0.77,-0.07
79,-17,-1006,-0.07,-0.7,-0.07
80,-17,-1005,0.0,-0.7,0.0
80,-17,-1005,0.07,-0.7,-0.07
80,-17,-1006,0.14,-0.63,-0.07
80,-17,-1005,0.21,-0.56,-0.07
80,-17,-1005,0.21,-0.63,-0.07
80,-17,-1006,0.21,-0.63,-0.07
80,-17,-1005,0.21,-0.63,0.0
80,-17,-1005,0.14,-0.7,0.0
80,-17,-1005,0.07,-0.77,0.0
80,-17,-1005,0.07,-0.7,-0.07
80,-18,-1004,0.07,-0.7,-0.07
80,-18,-1005,0.07,-0.7,-0.07
80,-18,-1006,0.07,-0.77,-0.07
79,-18,-1005,0.0,-0.77,-0.07
80,-18,-1006,0.07,-0.7,0.0
80,-17,-1005,0.07,-0.7,0.0
79,-17,-1005,0.07,-0.7,0.0
80,-18,-1005,0.0,-0.77,0.0
80,-17,-1004,0.0,-0.77,-0.07
79,-17,-1006,0.07,-0.7,0.0
81,-17,-1006,0.14,-0.77,0.0
79,-17,-1006,0.21,-0.7,0.0
80,-17,-1006,0.21,-0.63,0.0
79,-17,-1005,0.28,-0.63,0.0
81,-17,-1005,0.28,-0.56,0.0
79,-17,-1006,0.28,-0.63,0.0
79,-18,-1006,0.28,-0.63,0.0
79,-18,-1005,0.28,-0.56,-0.07
80,-18,-1006,0.21,-0.56,-0.07
80,-18,-1006,0.28,-0.56,0.0
81,-18,-1005,0.21,-0.56,0.0
81,-18,-1005,0.21,-0.56,0.0
79,-18,-1005,0.21,-0.56,0.0
80,-18,-1005,0.21,-0.56,0.0
81,-18,-1005,0.21,-0.56,-0.07
81,-18,-1004,0.14,-0.56,0.0
80,-17,-1006,0.14,-0.56,0.0
80,-18,-1006,0.14,-0.56,0.0
80,-19,-1004,0.21,-0.56,0.0
80,-19,-1005,0.21,-0.56,0.0
81,-18,-1004,0.07,-0.56,0.0
81,-18,-1006,0.0,-0.7,0.0
80,-18,-1006,0.0,-0.7,-0.07
80,-17,-1004,0.0,-0.63,-0.07
80,-19,-1009,0.07,-0.56,0.0
81,-18,-1004,0.21,-0.49,0.0
81,-18,-1005,0.14,-0.63,0.0
81,-19,-1005,0.07,-0.63,-0.07
80,-17,-1006,0.0,-0.63,-0.07
81,-18,-1006,0.14,-0.63,-0.07
81,-17,-1006,0.14,-0.56,-0.07
80,-18,-1006,0.21,-0.56,0.0
81,-18,-1004,0.28,-0.49,-0.07
80,-19,-1006,0.21,-0.56,0.0
81,-18,-1005,0.14,-0.63,0.0
81,-18,-1006,0.21,-0.63,0.0
81,-18,-1005,0.28,-0.49,0.0
81,-18,-1005,0.35,-0.49,0.0
80,-18,-1005,0.28,-0.56,0.0
80,-19,-1004,0.21,-0.56,0.07
80,-19,-1005,0.21,-0.56,0.0
81,-19,-1005,0.14,-0.63,0.0
81,-18,-1006,0.14,-0.56,0.0
81,-19,-1005,0.28,-0.63,0.0
81,-19,-1005,0.28,-0.63,0.07
80,-18,-1006,0.28,-0.63,0.07
80,-18,-1006,0.35,-0.56,0.0
80,-18,-1005,0.28,-0.56,0.0
80,-19,-1008,0.28,-0.49,0.0
80,-19,-1003,0.28,-0.56,0.0
81,-19,-1006,0.21,-0.63,0.0
81,-20,-1005,0.28,-0.56,0.07
81,-18,-1007,0.42,-0.42,0.07
80,-20,-1003,0.56,-0.42,0.14
82,-20,-1006,0.63,-0.42,0.14
81,-20,-1005,0.7,-0.35,0.21
81,-19,-1008,0.91,-0.35,0.21
81,-21,-1004,1.12,-0.14,0.28
81,-20,-1007,1.12,-0.21,0.28
81,-21,-1005,1.19,-0.21,0.28
82,-20,-1005,1.05,-0.28,0.21
81,-20,-1005,0.91,-0.35,0.21
83,-21,-1007,0.84,-0.42,0.21
83,-21,-1003,0.84,-0.35,0.14
81,-21,-1006,0.84,-0.42,0.14
81,-22,-1004,0.91,-0.35,0.21
82,-21,-1005,0.84,-0.49,0.14
81,-21,-1005,0.84,-0.49,0.14
81,-21,-1005,0.91,-0.42,0.07
82,-21,-1004,1.05,-0.28,0.21
82,-21,-1005,1.26,-0.28,0.35
83,-21,-1006,1.54,-0.21,0.49
83,-21,-1006,1.96,-0.14,0.63
82,-23,-1004,2.38,-0.07,0.84
82,-24,-1006,2.59,-0.14,0.91
82,-24,-1005,2.73,-0.14,0.98
83,-24,-1005,2.73,-0.14,0.91
83,-25,-1005,2.66,-0.21,0.91
84,-25,-1006,2.8,-0.21,0.84
84,-26,-1006,2.8,-0.14,0.91
84,-26,-1004,2.66,-0.14,0.84
84,-27,-1004,2.45,-0.14,0.7
84,-28,-1005,2.24,-0.14,0.63
84,-28,-1005,1.89,-0.14,0.63
84,-29,-1004,1.68,-0.21,0.49
84,-29,-1004,1.4,-0.21,0.35
83,-28,-1005,1.12,-0.28,0.21
83,-28,-1003,0.98,-0.21,0.21
84,-29,-1006,0.91,-0.28,0.21
85,-28,-1004,1.12,-0.21,0.21
84,-28,-1005,1.26,-0.21,0.28
85,-29,-1006,1.4,-0.14,0.35
84,-29,-1005,1.47,-0.28,0.35
85,-29,-1006,1.54,-0.21,0.42
84,-30,-1003,1.47,-0.21,0.49
85,-30,-1004,1.33,-0.28,0.49
84,-30,-1006,1.12,-0.35,0.42
86,-31,-1003,1.19,-0.35,0.28
85,-31,-1006,1.26,-0.42,0.28
85,-30,-1005,1.33,-0.35,0.35
85,-31,-1003,1.33,-0.35,0.35
85,-31,-1004,1.12,-0.42,0.28
86,-32,-1004,0.98,-0.42,0.28
84,-32,-1004,0.84,-0.56,0.28
85,-32,-1006,0.84,-0.56,0.28
85,-31,-1008,1.05,-0.42,0.28
86,-32,-1004,1.33,-0.28,0.35
84,-33,-1004,1.33,-0.35,0.35
86,-35,-1002,1.12,-0.49,0.28
86,-33,-1003,0.7,-0.7,0.14
86,-32,-1005,0.56,-0.77,0.14
85,-32,-1008,0.77,-0.63,0.14
86,-32,-1005,1.05,-0.49,0.21
84,-33,-1004,1.05,-0.49,0.28
86,-32,-1005,1.05,-0.56,0.35
87,-33,-1004,1.05,-0.63,0.35
86,-33,-1005,0.98,-0.63,0.42
85,-33,-1003,0.91,-0.56,0.49
86,-33,-1005,0.84,-0.63,0.63
86,-34,-1003,0.77,-0.63,0.63
86,-33,-1005,0.63,-0.7,0.77
85,-35,-1006,0.56,-0.77,0.77
85,-35,-1004,0.7,-0.63,0.7
85,-35,-1005,0.7,-0.56,0.7
86,-36,-1004,0.63,-0.56,0.56
86,-36,-1004,0.42,-0.63,0.42
86,-36,-1004,0.21,-0.7,0.21
86,-35,-1005,0.07,-0.84,0.14
86,-35,-1005,0.07,-0.77,0.07
87,-35,-1004,0.07,-0.7,0.07
86,-36,-1004,0.0,-0.77,0.07
86,-36,-1004,-0.14,-0.84,0.07
86,-35,-1004,-0.35,-0.84,0.0
86,-36,-1006,-0.42,-0.91,0.0
86,-34,-1006,-0.35,-0.91,-0.07
86,-35,-1006,-0.28,-0.84,0.0
86,-35,-1003,-0.28,-0.77,-0.07
85,-33,-1004,-0.28,-0.84,-0.07
84,-34,-1005,-0.28,-0.84,-0.07
86,-34,-1004,-0.21,-0.77,0.0
85,-34,-1004,-0.21,-0.7,0.0
86,-35,-1005,-0.28,-0.7,-0.07
85,-34,-1004,-0.35,-0.77,-0.14
85,-34,-1005,-0.56,-0.84,-0.14
85,-35,-1005,-0.63,-0.84,-0.14
84,-34,-1004,-0.7,-0.98,-0.21
85,-34,-1006,-0.63,-0.98,-0.28
84,-34,-1007,-0.49,-0.98,-0.28
85,-33,-1004,-0.35,-0.98,-0.28
85,-34,-1004,-0.49,-0.98,-0.28
84,-33,-1004,-0.56,-1.05,-0.35
85,-33,-1006,-0.49,-1.05,-0.28
85,-33,-1004,-0.28,-0.91,-0.21
84,-33,-1004,-0.21,-0.91,-0.21
85,-33,-1004,-0.28,-0.98,-0.21
85,-34,-1003,-0.42,-1.05,-0.21
85,-34,-1004,-0.63,-1.19,-0.21
85,-33,-1004,-0.84,-1.26,-0.28
86,-32,-1005,-0.91,-1.33,-0.28
84,-31,-1003,-1.05,-1.33,-0.28
84,-32,-1006,-1.19,-1.47,-0.35
85,-32,-1007,-0.91,-1.4,-0.28
84,-31,-1005,-0.63,-1.19,-0.28
84,-33,-1001,-0.56,-1.12,-0.21
83,-33,-1004,-0.84,-1.33,-0.21
83,-32,-1006,-0.91,-1.33,-0.28
84,-32,-1004,-0.84,-1.19,-0.21
84,-30,-1006,-0.98,-1.33,-0.21
85,-33,-1004,-0.91,-1.33,-0.21
84,-30,-1006,-1.05,-1.33,-0.28
83,-30,-1003,-1.05,-1.26,-0.21
83,-30,-1005,-1.26,-1.33,-0.28
84,-30,-1006,-1.26,-1.33,-0.28
84,-29,-1007,-1.12,-1.19,-0.28
82,-30,-1005,-0.84,-1.12,-0.21
83,-30,-1006,-0.84,-1.05,-0.21
82,-29,-1005,-0.63,-0.98,-0.14
82,-30,-1004,-0.49,-0.91,-0.14
83,-29,-1003,-0.56,-0.98,-0.07
82,-30,-1003,-0.7,-1.05,-0.14
83,-28,-1007,-0.84,-1.05,-0.21
83,-29,-1006,-0.7,-0.91,-0.14
83,-30,-1003,-0.56,-0.84,-0.14
82,-29,-1006,-0.56,-0.84,-0.07
83,-28,-1006,-0.56,-0.77,-0.14
83,-28,-1007,-0.49,-0.77,-0.14
82,-29,-1003,-0.42,-0.84,-0.14
82,-30,-1005,-0.35,-0.84,-0.14
84,-28,-1004,-0.28,-0.77,-0.14
82,-29,-1004,-0.28,-0.84,-0.07
83,-29,-1006,-0.35,-0.84,-0.07
82,-28,-1005,-0.49,-0.98,-0.14
83,-29,-1006,-0.42,-0.84,-0.07
82,-29,-1002,-0.49,-0.98,-0.07
83,-28,-1007,-0.56,-0.98,-0.14
83,-28,-1004,-0.49,-0.91,-0.07
83,-27,-1008,-0.42,-0.91,-0.14
83,-28,-1006,-0.21,-0.91,-0.14
81,-28,-1006,-0.14,-0.84,-0.14
81,-28,-1005,-0.07,-0.84,-0.14
83,-28,-1006,-0.07,-0.84,-0.14
82,-28,-1005,-0.07,-0.84,-0.07
82,-29,-1005,0.0,-0.84,-0.07
83,-27,-1005,0.0,-0.77,-0.07
82,-28,-1005,-0.14,-0.84,-0.07
82,-28,-1005,-0.14,-0.84,-0.07
82,-28,-1005,-0.14,-0.77,-0.07
82,-28,-1005,-0.21,-0.77,-0.14
81,-28,-1005,-0.21,-0.77,-0.14
82,-28,-1005,-0.14,-0.77,-0.07
82,-27,-1005,-0.07,-0.77,-0.07
81,-27,-1005,-0.07,-0.77,-0.07
82,-28,-1004,-0.07,-0.77,-0.07
82,-28,-1004,-0.07,-0.77,-0.07
82,-27,-1004,-0.14,-0.84,-0.07
81,-28,-1004,-0.14,-0.84,-0.07
83,-28,-1005,-0.21,-0.91,-0.07
82,-27,-1005,-0.21,-0.91,-0.07
81,-28,-1005,-0.14,-0.84,-0.07
82,-27,-1005,-0.14,-0.84,-0.07
83,-28,-1005,-0.07,-0.84,-0.07
81,-28,-1006,-0.07,-0.77,-0.07
82,-27,-1006,-0.07,-0.77,-0.07
81,-28,-1004,0.07,-0.77,-0.07
82,-27,-1004,0.07,-0.77,-0.07
82,-27,-1005,0.07,-0.77,-0.07
81,-27,-1005,0.0,-0.77,0.0
81,-27,-1005,-0.07,-0.84,0.0
81,-27,-1005,-0.14,-0.84,-0.07
82,-27,-1006,-0.14,-0.91,-0.07
82,-27,-1005,-0.14,-0.98,-0.07
82,-29,-1001,-0.21,-0.98,-0.07
80,-27,-1009,-0.49,-1.19,-0.07
81,-26,-1006,-0.28,-0.91,-0.14
82,-26,-1006,-0.14,-0.91,-0.07
81,-28,-1002,0.0,-0.84,-0.07
81,-25,-1007,0.07,-0.91,0.0
82,-27,-1006,0.21,-0.77,-0.07
81,-27,-1006,0.14,-0.77,-0.07
81,-27,-1003,0.21,-0.84,-0.07
81,-26,-1007,-0.07,-0.91,-0.07
81,-27,-1005,0.0,-0.91,-0.07
81,-26,-1005,0.0,-0.77,-0.07
81,-27,-1005,0.07,-0.77,-0.07
81,-27,-1003,0.07,-0.7,-0.07
82,-27,-1004,0.0,-0.77,-0.07
82,-27,-1005,0.0,-0.77,-0.07
81,-26,-1005,-0.07,-0.77,-0.14
81,-27,-1006,-0.07,-0.84,-0.07
83,-28,-1006,-0.14,-0.84,-0.07
82,-27,-1005,-0.21,-0.91,-0.14
82,-27,-1006,-0.28,-0.98,-0.14
82,-26,-1006,-0.35,-0.91,-0.14
81,-27,-1005,-0.28,-0.91,-0.14
81,-26,-1005,-0.21,-0.91,-0.07
82,-27,-1005,-0.21,-0.91,-0.14
80,-27,-1005,-0.21,-0.91,-0.14
81,-28,-1005,-0.28,-0.84,-0.07
81,-27,-1005,-0.35,-0.84,-0.14
81,-26,-1005,-0.35,-0.84,-0.07
80,-27,-1005,-0.35,-0.84,-0.07
80,-28,-1004,-0.35,-0.84,-0.07
81,-27,-1005,-0.28,-0.84,-0.07
81,-26,-1006,-0.28,-0.84,-0.07
80,-27,-1005,-0.21,-0.77,-0.07
81,-26,-1005,-0.21,-0.84,-0.07
80,-27,-1005,-0.21,-0.84,-0.07
81,-27,-1005,-0.28,-0.77,-0.07
80,-26,-1005,-0.21,-0.84,-0.14
82,-26,-1005,-0.14,-0.77,-0.07
80,-26,-1005,-0.21,-0.77,-0.14
80,-25,-1005,-0.21,-0.77,-0.07
81,-25,-1005,-0.28,-0.84,-0.14
80,-26,-1005,-0.28,-0.77,-0.14
81,-26,-1005,-0.28,-0.77,-0.14
81,-26,-1006,-0.35,-0.77,-0.14
81,-26,-1005,-0.35,-0.77,-0.21
80,-26,-1005,-0.42,-0.84,-0.21
81,-27,-1002,-0.77,-1.12,-0.21
80,-27,-1009,-0.91,-1.05,-0.21
80,-25,-1004,-0.7,-0.91,-0.21
82,-25,-1005,-0.7,-1.05,-0.28
82,-25,-1003,-0.63,-1.05,-0.28
81,-24,-1009,-0.63,-1.05,-0.21
80,-25,-1006,-0.49,-0.91,-0.21
79,-24,-1005,-0.42,-0.98,-0.14
80,-25,-1004,-0.28,-0.91,-0.14
81,-25,-1005,-0.35,-0.91,-0.14
80,-24,-1005,-0.35,-0.91,-0.14
80,-24,-1006,-0.28,-0.84,-0.14
81,-25,-1006,-0.21,-0.84,-0.07
80,-24,-1005,-0.14,-0.84,-0.07
80,-25,-1005,-0.14,-0.84,-0.07
79,-25,-1006,-0.21,-0.84,-0.14
80,-24,-1005,-0.21,-0.84,-0.14
80,-25,-1005,-0.28,-0.77,-0.14
79,-25,-1005,-0.28,-0.84,-0.14
80,-25,-1006,-0.28,-0.84,-0.14
80,-24,-1005,-0.14,-0.77,-0.14
80,-24,-1005,-0.14,-0.77,-0.07
80,-24,-1006,-0.14,-0.77,-0.14
80,-24,-1005,-0.14,-0.77,-0.07
80,-24,-1005,-0.14,-0.7,-0.07
80,-24,-1005,-0.14,-0.77,-0.07
79,-24,-1005,-0.14,-0.7,-0.07
80,-24,-1006,-0.14,-0.77,-0.07
79,-24,-1005,-0.14,-0.77,-0.14
80,-25,-1005,-0.14,-0.77,-0.14
79,-24,-1005,-0.21,-0.77,-0.07
80,-24,-1006,-0.28,-0.77,-0.07
81,-24,-1006,-0.28,-0.77,-0.14
79,-23,-1005,-0.28,-0.77,-0.14
80,-23,-1005,-0.35,-0.77,-0.07
79,-24,-1006,-0.28,-0.84,-0.14
79,-24,-1004,-0.28,-0.84,-0.07
80,-24,-1005,-0.35,-0.84,-0.07
80,-24,-1006,-0.28,-0.84,-0.14
79,-23,-1005,-0.21,-0.84,-0.07
79,-24,-1005,-0.14,-0.84,-0.07
80,-24,-1005,-0.14,-0.84,-0.07
80,-23,-1005,-0.21,-0.84,-0.07
79,-23,-1005,-0.21,-0.84,-0.14
80,-23,-1006,-0.21,-0.84,-0.07
79,-23,-1005,-0.14,-0.77,-0.07
79,-23,-1005,-0.14,-0.77,-0.07
79,-23,-1005,-0.14,-0.84,-0.07
79,-23,-1006,-0.14,-0.84,-0.07
79,-24,-1005,0.0,-0.77,-0.07
80,-23,-1005,0.0,-0.77,-0.07
79,-23,-1005,0.0,-0.7,-0.07
79,-24,-1005,-0.07,-0.77,-0.07
79,-24,-1004,-0.07,-0.77,-0.07
79,-24,-1005,-0.07,-0.77,-0.07
79,-23,-1004,-0.14,-0.77,-0.07
80,-23,-1005,-0.07,-0.77,-0.07
79,-23,-1006,0.0,-0.7,0.0
79,-23,-1008,-0.07,-0.7,-0.07
79,-24,-999,-0.07,-0.84,-0.07
79,-24,-1008,-0.21,-0.84,-0.07
79,-23,-1005,-0.14,-0.77,-0.07
80,-24,-1005,0.0,-0.7,-0.14
79,-24,-1003,-0.07,-0.77,-0.07
80,-23,-1006,-0.14,-0.84,-0.14
79,-23,-1005,-0.14,-0.77,-0.07
80,-23,-1006,-0.14,-0.84,-0.14
79,-23,-1004,-0.14,-0.77,-0.14
79,-22,-1006,-0.07,-0.84,-0.07
81,-23,-1006,-0.07,-0.84,-0.07
79,-23,-1005,-0.07,-0.77,-0.07
78,-22,-1005,0.0,-0.77,-0.07
79,-22,-1005,0.0,-0.77,-0.07
79,-22,-1005,-0.07,-0.77,-0.07
79,-24,-1005,0.0,-0.7,-0.07
78,-22,-1005,0.07,-0.7,-0.07
80,-23,-1005,0.0,-0.77,-0.07
79,-24,-1006,0.07,-0.7,-0.07
79,-22,-1006,0.07,-0.7,-0.07
78,-23,-1004,0.14,-0.7,-0.07
79,-23,-1006,0.14,-0.7,-0.07
79,-24,-1005,0.14,-0.7,-0.07
79,-23,-1005,0.07,-0.7,-0.07
81,-23,-1005,0.07,-0.77,-0.14
79,-23,-1005,0.07,-0.77,-0.07
79,-24,-1005,0.0,-0.77,-0.07
79,-23,-1005,0.0,-0.7,-0.07
79,-23,-1006,0.07,-0.7,-0.07
78,-23,-1005,0.07,-0.7,-0.14
79,-23,-1005,0.07,-0.7,-0.07
78,-23,-1005,0.14,-0.7,-0.07
79,-24,-1004,0.14,-0.7,-0.07
79,-23,-1005,0.14,-0.7,-0.07
79,-23,-1006,0.07,-0.7,-0.07
79,-23,-1005,0.07,-0.7,-0.14
80,-25,-1005,0.07,-0.77,-0.07
79,-23,-1005,0.07,-0.77,-0.07
79,-22,-1005,0.0,-0.77,0.0
79,-24,-1006,0.0,-0.77,-0.07
79,-23,-1005,0.0,-0.77,-0.14
79,-24,-1005,0.0,-0.77,-0.07
79,-23,-1005,0.0,-0.77,-0.07
80,-23,-1006,0.0,-0.84,-0.07
79,-23,-1005,0.07,-0.77,-0.07
80,-23,-1005,0.07,-0.77,-0.07
78,-23,-1005,0.14,-0.77,-0.07
78,-23,-1005,0.14,-0.7,-0.07
79,-24,-1004,0.07,-0.7,-0.07
79,-23,-1007,0.07,-0.7,-0.07
79,-24,-1005,0.07,-0.7,-0.07
80,-23,-1006,0.07,-0.7,-0.07
78,-24,-1006,0.07,-0.7,-0.07
79,-23,-1005,0.07,-0.7,-0.07
79,-23,-1005,0.14,-0.63,0.0
80,-24,-1005,0.14,-0.7,-0.07
80,-23,-1006,0.14,-0.63,-0.07
80,-23,-1006,0.07,-0.7,-0.07
79,-24,-1005,0.0,-0.7,-0.07
79,-23,-1004,0.0,-0.7,-0.07
78,-24,-1005,0.0,-0.7,-0.07
80,-23,-1005,0.0,-0.7,0.0
80,-23,-1005,-0.07,-0.7,-0.07
79,-23,-1005,-0.07,-0.7,-0.07
79,-24,-1005,-0.07,-0.7,-0.07
80,-23,-1006,-0.14,-0.7,-0.07
79,-24,-1005,-0.14,-0.77,-0.07
79,-23,-1005,-0.14,-0.77,-0.07
80,-23,-1005,-0.14,-0.77,-0.07
80,-24,-1004,-0.21,-0.84,-0.07
78,-24,-1006,-0.14,-0.84,-0.07
79,-23,-1006,-0.14,-0.84,-0.14
78,-24,-1005,-0.07,-0.77,-0.07
80,-24,-1004,-0.07,-0.77,-0.07
79,-23,-1006,-0.07,-0.77,-0.14
79,-23,-1005,0.07,-0.7,-0.07
79,-23,-1004,0.07,-0.63,-0.07
80,-24,-1005,0.14,-0.7,-0.07
80,-23,-1006,0.14,-0.7,-0.07
80,-23,-1006,0.14,-0.7,-0.07
79,-24,-1005,0.14,-0.7,-0.07
79,-23,-1004,0.14,-0.7,-0.07
79,-23,-1004,0.07,-0.7,-0.07
79,-23,-1006,0.07,-0.7,-0.07
80,-24,-1005,0.14,-0.7,-0.07
80,-23,-1005,0.07,-0.7,-0.07
79,-22,-1006,0.07,-0.7,-0.07
80,-23,-1005,0.07,-0.7,-0.07
79,-24,-1004,0.14,-0.63,0.0
80,-24,-1005,0.14,-0.7,-0.07
79,-24,-1005,0.21,-0.63,0.0
79,-23,-1006,0.21,-0.63,-0.07
78,-24,-1005,0.14,-0.63,-0.07
79,-23,-1006,0.21,-0.63,-0.07
80,-23,-1006,0.21,-0.63,-0.07
80,-24,-1006,0.21,-0.63,0.0
80,-24,-1005,0.07,-0.63,-0.07
79,-22,-1005,0.0,-0.7,-0.07
80,-23,-1005,0.0,-0.77,-0.07
79,-23,-1005,0.0,-0.7,-0.07
80,-23,-1006,0.0,-0.77,-0.07
79,-23,-1005,0.0,-0.77,-0.07
79,-23,-1004,0.0,-0.77,-0.14
80,-24,-1005,-0.07,-0.77,-0.07
78,-25,-1005,-0.07,-0.84,-0.07
79,-23,-1006,-0.14,-0.84,-0.14
79,-24,-1005,-0.07,-0.77,-0.07
79,-24,-1005,0.0,-0.77,-0.07
79,-23,-1006,0.07,-0.77,-0.07
79,-23,-1005,0.07,-0.7,-0.07
79,-23,-1006,0.07,-0.7,-0.07
80,-24,-1006,0.07,-0.7,-0.07
79,-23,-1006,0.07,-0.77,-0.14
80,-24,-1005,0.07,-0.77,-0.14
79,-23,-1005,0.14,-0.77,-0.07
79,-22,-1006,0.28,-0.7,-0.07
80,-24,-1004,0.35,-0.7,0.0
78,-24,-1006,0.28,-0.7,-0.07
79,-25,-1005,0.35,-0.7,-0.07
80,-24,-1005,0.28,-0.77,-0.07
79,-24,-1006,0.28,-0.77,-0.14
79,-24,-1006,0.28,-0.77,-0.14
79,-23,-1005,0.28,-0.84,-0.14
79,-24,-1005,0.28,-0.84,-0.14
79,-24,-1005,0.35,-0.77,-0.14
79,-24,-1005,0.28,-0.84,-0.07
79,-25,-1005,0.21,-0.84,-0.07
79,-25,-1005,0.21,-0.91,-0.14
79,-24,-1006,0.14,-0.91,-0.14
80,-24,-1003,0.21,-0.84,-0.07
78,-23,-1006,0.14,-0.84,-0.07
80,-24,-1005,0.14,-0.77,-0.07
78,-24,-1005,0.14,-0.77,-0.07
78,-24,-1005,0.14,-0.77,-0.07
79,-24,-1005,0.0,-0.77,-0.14
79,-23,-1006,0.0,-0.77,-0.07
79,-24,-1005,0.0,-0.77,0.0
79,-24,-1006,0.07,-0.77,-0.07
78,-24,-1006,0.07,-0.7,-0.07
80,-24,-1005,0.07,-0.7,-0.07
79,-24,-1005,0.0,-0.77,-0.07
78,-25,-1006,0.0,-0.77,-0.07
79,-25,-1005,0.0,-0.77,-0.07
79,-24,-1005,-0.07,-0.77,-0.07
79,-25,-1006,-0.07,-0.77,0.0
78,-24,-1005,-0.07,-0.77,-0.07
80,-24,-1005,0.0,-0.7,-0.07
79,-24,-1005,-0.07,-0.77,-0.07
79,-24,-1005,0.0,-0.77,-0.07
80,-25,-1005,0.0,-0.7,0.0
79,-25,-1005,0.0,-0.7,-0.07
78,-26,-1006,0.0,-0.7,-0.07
79,-25,-1005,0.0,-0.7,-0.07
79,-24,-1005,0.0,-0.7,-0.07
79,-24,-1006,0.0,-0.7,0.0
77,-24,-1005,0.0,-0.7,0.0
79,-25,-1005,-0.07,-0.77,-0.07
79,-24,-1004,0.0,-0.7,-0.07
78,-25,-1005,0.0,-0.63,0.0
79,-24,-1005,0.0,-0.63,0.0
79,-24,-1005,0.0,-0.7,0.0
80,-24,-1006,0.07,-0.7,0.0
79,-23,-1005,0.07,-0.7,0.0
78,-24,-1005,0.0,-0.7,-0.07
79,-24,-1006,0.0,-0.7,0.0
79,-24,-1005,0.0,-0.7,0.0
79,-24,-1005,0.0,-0.7,0.0
79,-24,-1005,0.0,-0.7,0.0
78,-25,-1006,0.0,-0.77,0.0
78,-24,-1004,0.0,-0.77,0.0
78,-24,-1005,0.0,-0.77,-0.07
79,-23,-1006,0.0,-0.77,0.0
77,-24,-1005,0.07,-0.77,-0.07
79,-24,-1006,0.07,-0.7,-0.07
79,-24,-1006,0.07,-0.77,0.0
79,-24,-1004,0.21,-0.7,0.0
80,-24,-1006,0.21,-0.63,0.0
80,-25,-1005,0.21,-0.63,0.0
79,-25,-1005,0.21,-0.63,0.0
80,-25,-1007,0.07,-0.77,0.0
79,-24,-1005,0.07,-0.7,0.0
79,-25,-1006,0.0,-0.77,-0.07
78,-24,-1005,-0.07,-0.77,0.0
78,-24,-1005,0.0,-0.7,-0.07
78,-24,-1005,0.0,-0.77,-0.07
78,-25,-1005,0.0,-0.7,-0.07
79,-24,-1006,0.0,-0.77,-0.07
78,-24,-1006,0.0,-0.77,-0.07
79,-24,-1005,0.07,-0.7,-0.07
78,-25,-1005,0.07,-0.7,0.0
79,-25,-1005,0.07,-0.7,-0.07
79,-25,-1005,0.0,-0.77,-0.07
78,-24,-1005,0.0,-0.77,-0.07
79,-24,-1005,0.0,-0.7,-0.07
78,-25,-1005,0.0,-0.7,-0.07
79,-24,-1006,0.0,-0.7,-0.07
78,-24,-1005,0.0,-0.77,-0.07
80,-24,-1006,0.0,-0.77,-0.07
79,-25,-1005,-0.07,-0.84,-0.07
80,-25,-1006,-0.07,-0.84,-0.07
78,-24,-1004,-0.07,-0.77,-0.07
79,-24,-1006,-0.07,-0.84,-0.07
79,-24,-1007,0.07,-0.77,-0.07
79,-25,-1004,0.0,-0.77,-0.07
79,-25,-1006,0.07,-0.77,-0.07
79,-25,-1005,0.0,-0.7,-0.07
79,-25,-1006,0.07,-0.7,0.0
79,-25,-1006,0.0,-0.7,0.0
79,-24,-1006,0.07,-0.7,0.0
