acc_x[mg],acc_y[mg],acc_z[mg],gyro_x[dps],gyro_y[dps],gyro_z[dps]
-70,92,-994,3.29,0.28,1.33
-71,86,-989,3.15,0.63,1.47
-72,76,-988,3.22,0.77,1.89
-71,62,-991,3.92,0.63,2.17
-69,57,-1002,5.04,0.63,2.17
-73,46,-1008,5.81,0.77,2.1
-71,50,-1003,6.23,0.77,1.82
-71,54,-997,5.95,0.63,1.54
-68,54,-1000,4.9,0.21,1.47
-64,51,-1007,3.92,-0.21,1.4
-64,53,-1011,3.01,-0.49,1.33
-68,58,-1012,1.96,-0.49,1.26
-68,57,-1013,1.4,-0.28,1.12
-65,52,-1017,0.91,-0.07,0.84
-63,57,-1011,0.63,0.07,0.7
-63,62,-1001,0.63,0.14,0.7
-63,67,-990,1.05,-0.07,0.56
-66,72,-981,0.91,-0.42,0.56
-72,80,-984,0.42,-0.84,0.42
-70,84,-992,-0.14,-1.12,0.42
-66,74,-997,-1.4,-0.91,0.84
-69,70,-998,-2.1,-0.49,0.84
-68,65,-1001,-1.68,-0.21,0.91
-64,59,-1008,-1.4,0.28,0.98
-69,65,-997,-1.12,0.56,0.91
-74,72,-991,-0.98,0.49,0.77
-76,71,-996,-0.91,-0.07,0.77
-77,68,-1005,-0.77,-0.56,0.84
-81,68,-1011,-0.42,-0.84,0.84
-82,72,-1018,-0.07,-0.84,0.91
-80,61,-1035,0.28,-0.49,0.84
-78,43,-1040,0.49,0.35,0.56
-85,47,-1022,1.19,0.91,0.21
-89,54,-1001,2.03,0.77,0.14
-78,53,-1000,2.38,0.28,-0.07
-69,46,-1008,2.52,-0.07,-0.21
-67,52,-1017,2.38,-0.07,-0.56
-65,64,-1020,1.4,0.21,-0.77
-66,62,-1014,-0.63,0.49,-0.7
-73,64,-1001,-2.73,0.42,-0.77
-75,64,-990,-3.99,0.07,-0.7
-70,60,-992,-4.41,-0.49,-0.84
-66,56,-1003,-3.85,-0.84,-1.12
-64,61,-1012,-3.22,-0.98,-1.26
-61,71,-1009,-3.43,-0.84,-1.4
-67,75,-998,-4.62,-0.56,-1.33
-72,72,-989,-5.18,-0.42,-1.4
-68,72,-989,-4.48,-0.63,-1.47
-68,78,-994,-3.71,-0.91,-1.26
-67,87,-997,-3.29,-1.05,-1.05
-63,93,-1000,-3.57,-0.98,-0.98
-62,93,-995,-4.13,-0.91,-0.84
-63,91,-994,-3.64,-0.84,-0.63
-66,91,-1004,-1.54,-0.98,-0.42
-60,89,-1013,0.77,-1.05,-0.14
-65,91,-1013,1.82,-0.84,0.35
-71,89,-1003,2.31,-0.77,0.49
-70,89,-994,2.38,-0.84,0.49
-71,84,-993,2.59,-1.33,0.49
-69,79,-1002,2.94,-1.68,0.63
-70,79,-1006,3.22,-1.61,0.84
-72,77,-1003,3.01,-1.33,1.05
-73,73,-995,2.52,-1.12,1.19
-70,63,-996,2.17,-0.84,0.98
-70,54,-989,1.96,-0.42,0.84
-76,54,-976,2.24,-0.35,0.91
-75,57,-980,3.15,-0.7,0.98
-68,55,-994,3.99,-0.77,0.91
-71,47,-1013,3.57,-0.56,0.84
-70,47,-1023,2.8,-0.21,0.77
-71,50,-1017,1.82,0.21,0.84
-73,47,-1000,1.12,0.63,0.7
-72,48,-988,1.4,0.42,0.28
-72,54,-997,2.24,-0.28,0.0
-71,62,-1013,2.73,-0.84,0.0
-70,72,-1020,1.96,-0.84,0.07
-73,75,-1012,0.35,-0.56,0.21
-71,73,-1006,-0.98,-0.35,0.14
-68,67,-1008,-1.12,-0.42,0.0
-70,57,-1008,-0.56,-0.49,0.07
-74,53,-1005,0.77,-0.63,0.14
-70,56,-1004,1.82,-0.63,-0.07
-69,60,-998,2.17,-0.49,-0.07
-67,65,-992,1.82,-0.21,-0.21
-66,69,-990,1.54,-0.21,-0.21
-63,70,-997,1.26,-0.35,-0.07
-64,76,-996,0.91,-0.35,0.07
-71,73,-997,0.35,-0.56,0.35
-71,73,-999,0.14,-0.7,0.42
-68,71,-1000,0.14,-0.7,0.56
-69,63,-999,0.42,-0.56,0.7
-68,58,-1001,1.68,-0.42,0.63
-65,62,-1011,3.15,-0.28,0.56
-63,57,-1022,3.78,-0.14,0.63
-62,60,-1025,3.43,-0.07,0.63
-63,62,-1017,2.52,-0.28,0.77
-62,59,-1015,1.68,-0.56,0.77
-59,57,-1018,1.12,-0.84,0.56
-60,51,-1013,0.63,-0.77,0.35
-60,54,-1002,0.91,-0.7,0.35
-59,58,-997,1.19,-0.84,0.42
-63,60,-994,0.98,-0.84,0.42
-63,56,-987,0.63,-0.77,0.56
-66,53,-979,0.42,-0.77,0.7
-67,51,-982,1.26,-0.7,0.7
-62,47,-994,1.82,-0.56,0.63
-59,42,-1005,1.75,-0.42,0.7
-62,44,-1008,1.96,-0.42,0.77
-64,50,-1009,1.96,-0.42,0.7
-63,50,-1011,1.54,-0.49,0.56
-64,51,-1011,0.98,-0.56,0.28
-63,57,-1013,0.56,-0.7,0.0
-65,58,-1014,-0.21,-0.77,-0.07
-67,55,-1012,-0.98,-0.91,-0.07
-68,54,-1007,-1.33,-0.77,-0.14
-68,59,-994,-1.05,-0.63,-0.14
-64,65,-989,-0.49,-0.77,-0.14
-60,64,-994,-0.28,-0.91,-0.21
-63,61,-1002,-0.28,-1.05,-0.14
-65,60,-1020,0.0,-1.4,-0.07
-63,63,-1030,0.28,-1.33,0.07
-67,60,-1027,-0.49,-0.91,0.14
-66,52,-1011,-1.47,-0.28,-0.14
-67,49,-987,-1.4,0.07,-0.49
-70,52,-978,-0.49,-0.35,-0.56
-66,61,-990,0.35,-1.05,-0.63
-64,62,-1002,0.14,-1.19,-0.42
-70,62,-1003,-1.12,-0.98,-0.28
-72,66,-998,-2.45,-0.77,-0.28
-73,67,-996,-3.64,-0.7,-0.49
-73,58,-995,-4.34,-0.56,-0.77
-76,52,-995,-3.92,-0.42,-1.05
-78,59,-999,-2.52,-0.56,-1.12
-77,73,-1010,-1.33,-0.91,-1.19
-74,79,-1018,-1.96,-1.05,-1.05
-79,71,-1028,-3.15,-1.19,-0.98
-76,67,-1030,-4.06,-1.19,-0.98
-75,64,-1021,-4.2,-1.12,-1.05
-75,57,-1012,-3.64,-1.19,-1.05
-71,54,-1006,-2.38,-1.4,-1.12
-66,63,-1003,-0.63,-1.61,-0.98
-63,69,-997,0.42,-1.75,-0.77
-65,72,-989,0.14,-1.68,-0.63
-68,70,-984,-0.14,-1.54,-0.49
-68,68,-982,-0.35,-1.54,-0.35
-64,61,-984,-0.28,-1.26,-0.28
-66,50,-988,0.28,-0.91,-0.21
-65,53,-995,1.12,-0.63,-0.28
-63,63,-1000,1.68,-0.56,-0.28
-66,64,-1002,0.98,-0.28,-0.28
-79,58,-997,0.21,-0.07,-0.42
-85,58,-991,0.35,0.0,-0.49
-84,62,-991,1.12,-0.14,-0.35
-80,63,-998,1.61,-0.35,-0.35
-78,69,-1003,1.75,-0.42,-0.42
-78,71,-1006,1.54,-0.35,-0.35
-73,76,-1012,0.84,-0.28,-0.49
-72,66,-1016,-0.28,-0.21,-0.35
-73,60,-1015,-0.63,-0.14,-0.42
-76,58,-1006,-0.42,-0.14,-0.42
-74,53,-997,0.07,-0.14,-0.42
-70,56,-990,1.05,-0.28,-0.49
-70,70,-989,1.61,-0.56,-0.56
-72,71,-993,1.19,-0.77,-0.35
-66,73,-997,0.35,-0.63,-0.35
-70,71,-990,-0.77,-0.42,-0.07
-72,64,-987,-1.12,-0.14,0.0
-65,63,-990,-0.42,0.0,0.14
-62,55,-1001,0.84,-0.14,0.35
-65,59,-1009,1.89,-0.35,0.49
-71,63,-1014,2.38,-0.49,0.7
-66,69,-1015,2.31,-0.42,0.7
-62,65,-1010,2.1,-0.42,0.7
-61,63,-1007,2.17,-0.28,0.7
-64,61,-1005,2.59,-0.35,0.7
-64,52,-1004,2.8,-0.35,0.77
-64,51,-1001,3.15,-0.28,0.7
-65,51,-1004,3.64,-0.56,0.7
-67,57,-1007,3.71,-0.84,0.63
-66,59,-1005,2.87,-0.77,0.56
-69,53,-1005,2.1,-0.77,0.56
-66,44,-1007,2.17,-0.63,0.42
-68,38,-1008,3.15,-0.56,0.35
-68,48,-1014,4.69,-0.7,0.28
-63,49,-1022,5.32,-0.77,0.42
-65,50,-1023,4.83,-0.49,0.28
-65,55,-1015,4.2,-0.28,0.14
-63,53,-1006,3.29,-0.28,0.07
-64,45,-998,2.52,-0.28,0.07
-64,41,-988,2.52,-0.28,0.0
-66,47,-983,2.94,-0.7,0.07
-67,48,-996,3.22,-1.26,0.21
-63,48,-1017,3.08,-1.26,0.14
-67,49,-1023,1.68,-0.7,0.07
-68,45,-1015,0.07,-0.14,-0.14
-68,38,-990,-0.84,0.42,-0.42
-70,38,-976,-1.19,0.14,-0.56
-70,42,-987,-0.28,-0.91,-0.56
-65,43,-1013,0.35,-1.82,-0.35
-63,48,-1032,-0.84,-2.1,-0.14
-64,60,-1028,-3.01,-1.68,-0.35
-63,66,-998,-5.74,-0.98,-0.49
-69,55,-976,-7.84,-0.77,-0.77
-69,45,-983,-7.21,-1.33,-0.84
-63,44,-1006,-5.04,-1.89,-0.56
-70,50,-1015,-3.57,-2.03,-0.07
-74,63,-1009,-3.43,-1.96,0.14
-69,69,-1000,-4.48,-1.4,-0.14
-69,60,-985,-5.67,-0.7,-0.42
-73,48,-975,-4.97,-0.49,-0.56
-70,46,-983,-2.03,-0.84,-0.35
-69,54,-1003,0.7,-1.12,0.0
-68,65,-1015,1.33,-0.98,0.28
-72,69,-1011,0.0,-0.56,0.49
-75,63,-997,-1.47,-0.07,0.42
-74,58,-986,-1.68,0.21,0.21
-71,50,-981,-0.21,0.28,0.21
-72,45,-985,2.38,0.0,0.35
-72,56,-1000,4.9,-0.35,0.56
-68,67,-1014,5.53,-0.21,0.84
-68,67,-1016,4.13,0.21,0.84
-70,67,-1001,2.38,0.84,0.49
-70,64,-987,1.75,0.98,0.35
-69,54,-986,2.8,0.56,0.49
-66,55,-1002,4.69,-0.21,0.7
-64,59,-1023,6.37,-0.7,1.05
-62,64,-1038,6.51,-0.84,1.19
-65,63,-1039,5.11,-0.77,1.05
-68,56,-1029,3.01,-0.56,0.84
-67,46,-1012,1.75,-0.56,0.56
-60,39,-1001,1.68,-0.98,0.42
-59,36,-1004,2.45,-1.68,0.28
-57,40,-1015,2.59,-2.1,0.14
-55,44,-1018,1.05,-1.82,0.07
-51,43,-1008,-1.61,-1.33,-0.07
-54,37,-991,-3.92,-0.77,-0.35
-57,26,-979,-4.69,-0.7,-0.56
-58,26,-980,-4.2,-1.05,-0.63
-57,27,-991,-3.08,-1.54,-0.42
-55,35,-1008,-2.59,-1.61,-0.42
-61,48,-1011,-3.5,-1.47,-0.35
-65,54,-1008,-5.53,-1.12,-0.63
-65,52,-1003,-7.28,-0.77,-0.77
-67,41,-1001,-7.98,-0.63,-0.84
-69,45,-996,-7.0,-0.7,-0.98
-65,51,-997,-5.6,-0.98,-0.84
-67,55,-1006,-5.53,-1.19,-0.77
-72,59,-1010,-5.81,-1.26,-0.84
-72,63,-1005,-6.72,-1.05,-0.7
-75,62,-994,-7.7,-0.91,-0.84
-77,62,-982,-7.63,-0.77,-1.05
-76,64,-979,-7.0,-0.77,-1.12
-74,65,-981,-6.16,-0.91,-0.91
-76,76,-989,-5.74,-1.12,-0.77
-78,88,-998,-6.3,-1.33,-0.77
-76,101,-1004,-7.77,-1.33,-0.77
-78,95,-1012,-9.73,-1.33,-0.7
-78,82,-1022,-10.64,-1.19,-0.63
-78,73,-1015,-10.01,-0.77,-0.63
-78,69,-1006,-8.4,-0.7,-0.28
-75,67,-1007,-5.74,-0.98,-0.07
-71,70,-1010,-3.08,-1.26,0.0
-67,75,-1016,-1.12,-1.54,0.0
-63,82,-1023,-0.14,-1.68,0.07
-62,84,-1022,-0.07,-1.54,0.14
-66,74,-1012,-0.28,-1.19,0.28
-71,68,-995,-0.28,-0.91,0.21
-77,64,-986,0.49,-1.05,0.14
-78,62,-987,1.4,-1.26,0.07
-77,68,-982,1.75,-1.12,0.0
-83,78,-976,1.05,-0.98,-0.14
-84,86,-979,-0.42,-0.98,-0.28
-79,83,-988,-2.24,-0.84,-0.35
-78,71,-994,-3.64,-0.42,-0.14
-79,67,-991,-4.13,0.0,-0.21
-90,66,-981,-3.92,0.21,-0.14
-92,73,-978,-3.08,0.0,-0.35
-87,80,-990,-2.03,-0.56,-0.49
-83,85,-1012,-1.47,-0.84,-0.49
-81,92,-1021,-1.82,-0.42,-0.49
-80,94,-1012,-2.59,0.14,-0.35
-79,92,-1000,-3.15,0.42,-0.35
-77,80,-1000,-2.59,0.21,-0.35
-75,76,-1003,-1.54,0.0,-0.28
-75,79,-1005,-0.35,-0.28,-0.35
-74,86,-1007,0.0,-0.49,-0.28
-73,89,-1010,-0.7,-0.49,-0.28
-70,87,-1011,-1.68,-0.35,-0.42
-70,79,-1011,-2.24,-0.21,-0.28
-72,72,-1003,-2.31,0.07,-0.28
-73,70,-987,-2.03,0.28,-0.28
-71,71,-980,-1.33,0.28,-0.28
-71,74,-979,-0.35,0.0,-0.28
-72,85,-988,0.35,-0.28,-0.28
-68,92,-997,0.63,-0.14,-0.14
-69,88,-1002,0.07,0.35,0.07
-71,90,-997,-0.14,0.77,-0.14
-68,98,-989,0.42,0.98,-0.07
-68,93,-991,1.19,0.84,0.14
-72,85,-1002,1.75,0.7,0.07
-70,97,-1005,2.1,0.63,0.07
-70,103,-1010,1.75,0.35,0.42
-67,90,-1020,0.98,0.07,0.56
-66,81,-1025,1.05,-0.14,0.63
-64,77,-1031,2.1,-0.63,0.7
-57,77,-1035,3.01,-0.77,0.77
-60,67,-1033,2.94,-0.84,0.63
-63,68,-1026,2.59,-0.84,0.21
-62,74,-1011,2.03,-1.05,0.0
-62,68,-1002,1.19,-1.26,0.07
-58,62,-998,0.7,-1.4,0.07
-57,60,-996,0.49,-1.47,0.07
-56,64,-992,0.42,-1.61,0.0
-58,60,-993,-0.07,-1.75,-0.07
-56,55,-998,-0.56,-1.75,-0.28
-56,57,-1000,-1.12,-1.4,-0.63
-57,62,-993,-1.33,-1.05,-0.84
-62,67,-985,-1.68,-1.19,-0.91
-66,71,-989,-1.82,-1.68,-0.98
-62,78,-1005,-2.03,-1.96,-0.98
-63,77,-1012,-2.66,-1.75,-0.77
-68,79,-1003,-3.36,-1.26,-0.91
-73,83,-986,-3.85,-0.98,-1.12
-74,85,-985,-3.78,-1.19,-1.19
-72,87,-989,-2.94,-1.4,-1.05
-69,91,-997,-2.1,-1.68,-0.77
-69,94,-1002,-1.12,-1.75,-0.56
-70,102,-1003,-0.63,-1.54,-0.49
-69,106,-996,-0.91,-1.33,-0.42
-68,102,-994,-1.12,-1.19,-0.42
-67,94,-992,-0.7,-1.12,-0.35
-68,96,-989,0.56,-1.26,-0.14
-70,102,-988,1.68,-1.33,0.0
-73,102,-987,1.96,-1.33,0.21
-75,104,-988,1.68,-1.19,0.35
-75,100,-999,1.19,-1.26,0.56
-70,89,-1011,0.56,-0.91,0.84
-69,69,-1009,0.07,-0.42,1.05
-69,60,-1000,0.35,0.07,0.84
-69,53,-995,1.4,0.35,0.56
-63,45,-1005,3.01,0.42,0.21
-60,45,-1021,3.99,0.63,-0.14
-67,52,-1028,3.5,0.84,-0.35
-72,57,-1022,1.54,0.98,-0.56
-71,55,-1008,-1.26,1.12,-0.91
-72,50,-999,-3.5,0.98,-1.4
-72,49,-991,-4.27,0.56,-1.75
-72,61,-997,-4.13,-0.14,-2.03
-72,69,-1007,-4.34,-0.77,-1.96
-71,80,-1016,-5.18,-0.84,-2.1
-72,87,-1011,-6.65,-0.49,-2.17
-74,86,-993,-7.7,0.07,-2.38
-80,84,-979,-7.0,0.07,-2.59
-81,86,-979,-4.76,-0.28,-2.52
-75,98,-990,-2.38,-0.63,-2.17
-71,111,-1000,-0.63,-0.84,-1.68
-69,123,-1009,-0.28,-0.91,-1.4
-65,127,-1012,-0.84,-0.7,-1.19
-64,126,-1006,-1.96,-0.49,-0.98
-69,109,-998,-2.1,-0.42,-0.56
-70,93,-1000,-0.42,-0.56,-0.42
-68,87,-1006,2.1,-0.84,-0.14
-71,87,-1008,3.71,-0.84,0.0
-73,90,-1004,4.34,-0.7,0.0
-67,92,-995,3.5,-0.49,-0.14
-68,87,-987,2.66,-0.49,-0.28
-67,80,-992,2.45,-0.7,-0.07
-65,75,-1004,2.45,-0.98,0.07
-66,73,-1006,2.17,-0.98,0.21
-76,72,-1000,1.19,-0.84,0.21
-80,70,-995,0.42,-0.98,-0.14
-73,71,-996,0.42,-1.12,-0.42
-75,69,-997,0.77,-1.26,-0.49
-74,74,-1001,1.82,-1.68,-0.7
-66,92,-1007,2.31,-2.1,-0.63
-67,90,-1003,1.68,-2.24,-0.56
-72,87,-1003,0.84,-2.59,-0.7
-72,85,-1006,0.91,-3.08,-0.7
-72,81,-1018,2.17,-3.57,-0.63
-72,82,-1035,4.13,-4.13,-0.63
-70,92,-1048,5.95,-4.55,-0.56
-63,92,-1055,6.16,-4.48,-0.7
-55,91,-1041,5.32,-4.06,-0.91
-57,85,-1015,4.55,-3.92,-0.91
-52,76,-1003,4.9,-4.2,-1.05
-45,71,-1002,6.16,-4.62,-0.91
-47,62,-1007,7.14,-4.97,-0.56
-51,64,-1010,7.42,-4.69,-0.42
-55,66,-994,6.44,-3.85,-0.49
-57,59,-977,4.9,-2.8,-0.84
-63,52,-964,4.41,-2.24,-1.26
-66,53,-964,5.46,-2.38,-1.26
-66,61,-976,6.65,-2.73,-0.98
-75,69,-983,6.3,-2.66,-0.77
-90,72,-980,4.2,-2.24,-0.63
-97,72,-977,2.31,-1.89,-0.77
-98,70,-986,1.47,-1.89,-0.91
-96,65,-1000,1.4,-1.89,-0.84
-96,70,-1007,1.96,-1.68,-0.84
-96,73,-1005,1.75,-1.54,-0.7
-95,78,-1001,1.26,-1.33,-0.7
-95,69,-1003,0.77,-1.4,-0.7
-95,58,-1006,0.42,-1.26,-0.84
-94,50,-1002,0.98,-0.77,-0.84
-98,54,-992,1.68,-0.49,-0.91
-98,62,-984,1.75,-0.56,-0.98
-95,61,-982,0.7,-0.56,-0.91
-99,54,-982,-0.7,-0.35,-0.91
-100,49,-983,-0.98,-0.07,-0.84
-94,48,-979,-1.12,0.49,-0.84
-97,48,-968,-0.98,1.12,-0.84
-98,57,-959,-0.84,1.26,-0.98
-96,67,-973,-0.49,0.63,-0.98
-91,78,-998,-0.77,-0.14,-0.7
-92,87,-1016,-2.45,-0.14,-0.49
-94,79,-1019,-4.97,0.42,-0.49
-94,71,-1012,-6.58,0.98,-0.63
-91,64,-1003,-6.23,1.12,-0.63
-88,58,-1000,-4.69,1.12,-0.63
-89,58,-992,-2.73,1.05,-0.56
-90,70,-994,-0.91,0.77,-0.56
-81,81,-1007,-0.14,0.35,-0.28
-74,78,-1021,-0.49,0.28,-0.14
-79,68,-1019,-0.84,0.63,0.07
-77,70,-1010,-0.42,0.98,0.0
-72,72,-1003,0.42,0.98,0.0
-69,68,-1010,1.12,0.56,0.07
-67,68,-1015,1.82,0.28,0.07
-66,63,-1015,1.82,0.14,0.28
-66,63,-1011,1.82,0.14,0.28
-63,64,-998,1.61,0.28,0.28
-62,58,-985,1.33,0.28,0.21
-61,55,-985,1.68,-0.21,0.28
-59,56,-997,2.87,-0.77,0.42
-57,57,-1014,3.64,-1.05,0.63
-60,55,-1025,3.36,-0.98,0.63
-63,59,-1024,3.01,-0.77,0.35
-66,61,-1018,2.45,-0.42,0.21
-68,54,-1004,1.96,-0.14,0.07
-69,54,-992,2.17,-0.28,0.0
-70,63,-993,2.8,-0.91,0.07
-67,71,-1004,3.15,-1.54,0.35
-65,72,-1012,2.31,-1.75,0.63
-69,70,-1015,0.77,-1.75,0.7
-64,63,-1022,-0.42,-1.54,0.56
-62,53,-1021,-0.63,-1.12,0.35
-70,44,-1011,0.0,-0.91,0.28
-72,51,-998,0.98,-0.91,0.07
-69,52,-991,1.54,-0.98,0.07
-69,47,-995,2.17,-1.26,0.07
-67,51,-1008,2.87,-1.33,0.07
-68,54,-1011,3.08,-0.91,0.14
-73,57,-996,2.24,-0.21,0.14
-79,56,-972,1.89,0.49,-0.21
-79,55,-960,2.45,0.7,-0.28
-80,52,-962,3.99,0.49,-0.07
-79,55,-972,6.16,0.21,0.21
-82,60,-987,7.77,0.35,0.49
-83,56,-994,8.75,1.12,0.7
-84,61,-992,9.94,2.03,0.63
-86,67,-978,10.57,2.66,0.56
-87,69,-975,11.27,2.73,0.49
-81,68,-989,12.04,2.31,0.7
-78,75,-1012,12.46,1.68,0.98
-74,78,-1036,11.9,1.54,1.33
-71,78,-1038,9.73,1.75,1.26
-76,65,-1024,7.0,2.17,1.12
-75,51,-1009,5.46,2.17,0.77
-73,37,-1006,5.46,1.68,0.56
-74,31,-1019,6.51,0.42,0.63
-70,33,-1036,6.65,-0.56,0.77
-69,34,-1040,4.9,-0.98,0.84
-72,23,-1032,1.33,-0.98,0.35
-70,18,-1021,-1.47,-0.7,-0.42
-65,8,-1004,-2.94,-0.56,-0.77
-68,0,-985,-3.78,-0.42,-0.98
-69,1,-977,-3.15,-0.77,-1.26
-65,12,-981,-2.73,-1.26,-1.19
-66,21,-990,-3.36,-1.47,-1.12
-67,22,-1006,-4.55,-1.54,-1.05
-64,27,-1009,-5.6,-1.12,-1.19
-66,28,-998,-6.44,-0.56,-1.19
-71,28,-990,-6.79,-0.63,-1.47
-71,32,-997,-5.95,-0.84,-1.68
-65,35,-1010,-5.53,-1.05,-1.61
-63,43,-1010,-5.88,-0.84,-1.47
-71,48,-999,-6.44,-0.56,-1.26
-73,52,-996,-6.93,-0.63,-1.33
-72,53,-999,-6.51,-0.84,-1.26
-68,45,-1014,-5.11,-1.05,-0.98
-68,43,-1026,-4.06,-0.98,-0.77
-70,48,-1023,-3.01,-0.56,-0.7
-72,54,-1014,-2.59,-0.28,-0.63
-72,53,-1007,-2.52,0.0,-0.56
-68,45,-997,-1.96,0.28,-0.49
-71,49,-989,-0.98,0.21,-0.49
-74,58,-987,0.07,0.07,-0.21
-70,55,-990,0.21,0.0,-0.07
-64,53,-990,-0.14,0.42,-0.14
-67,52,-983,-0.14,0.7,-0.14
-68,52,-986,-0.28,0.49,-0.28
-66,54,-992,-0.14,0.42,-0.21
-68,50,-1005,-0.42,0.14,-0.07
-70,54,-1019,-0.77,-0.07,-0.07
-69,56,-1022,-1.4,-0.14,-0.07
-70,58,-1024,-2.31,-0.21,-0.28
-68,58,-1018,-3.22,-0.28,-0.56
-68,59,-1014,-3.78,-0.42,-0.84
-64,53,-1013,-3.85,-0.7,-0.84
-66,48,-1013,-3.57,-0.77,-0.84
-66,51,-1011,-2.73,-0.84,-0.77
-64,54,-1008,-2.52,-0.77,-0.77
-66,55,-1005,-2.66,-0.7,-0.77
-67,50,-1003,-3.15,-0.63,-0.84
-65,52,-994,-3.5,-0.28,-1.05
-68,50,-979,-3.71,-0.07,-0.98
-70,52,-977,-3.29,-0.21,-0.98
-68,53,-981,-2.31,-0.35,-0.77
-66,56,-985,-1.75,-0.35,-0.56
-67,67,-983,-1.4,-0.28,-0.56
-68,75,-985,-1.61,-0.28,-0.35
-66,72,-993,-1.82,-0.14,-0.21
-69,65,-998,-1.89,0.07,0.0
-74,63,-1001,-0.84,0.28,0.42
-73,65,-1007,0.98,0.14,0.91
-71,62,-1019,2.45,-0.21,1.19
-70,61,-1031,3.08,-0.42,1.19
-72,59,-1036,3.22,-0.49,1.05
-74,52,-1029,2.8,-0.28,1.05
-70,47,-1018,2.73,-0.07,0.84
-69,41,-1015,3.15,-0.28,0.7
-68,37,-1012,3.36,-0.63,0.7
-72,30,-1010,3.22,-0.91,0.63
-73,34,-1009,2.8,-1.12,0.56
-72,35,-1005,1.75,-1.05,0.42
-70,33,-998,0.42,-0.84,0.14
-71,28,-986,-0.42,-0.56,0.0
-74,31,-987,-0.21,-0.84,-0.07
-75,37,-999,0.21,-1.4,0.07
-74,40,-1013,-0.07,-1.68,0.14
-76,49,-1020,-0.91,-1.75,0.0
-72,64,-1020,-2.38,-1.68,-0.14
-71,68,-1015,-4.34,-1.54,-0.28
-68,62,-1009,-5.53,-1.54,-0.49
-67,59,-998,-5.81,-1.47,-0.42
-72,53,-990,-5.18,-1.47,-0.21
-71,54,-995,-3.64,-1.61,-0.14
-70,55,-1002,-2.31,-1.54,0.14
-77,57,-1004,-1.33,-1.4,0.28
-77,65,-993,-1.19,-0.91,0.28
-79,66,-976,-1.89,-0.56,0.14
-81,61,-973,-2.03,-0.63,0.07
-78,61,-981,-1.05,-0.91,0.21
-75,67,-991,-0.21,-1.05,0.49
-77,76,-993,-0.14,-0.98,0.7
-78,78,-999,-0.84,-0.84,0.84
-75,75,-1003,-1.82,-0.63,0.7
-70,63,-1004,-2.17,-0.42,0.7
-71,56,-1001,-1.33,-0.35,0.77
-71,52,-1001,0.63,-0.28,0.91
-67,58,-999,2.38,-0.35,0.98
-67,66,-1001,3.29,-0.49,1.19
-67,68,-1006,3.01,-0.56,1.26
-67,68,-1007,2.03,-0.49,1.26
-68,63,-1006,0.84,-0.21,1.26
-63,53,-1004,0.49,0.07,1.12
-63,46,-999,0.77,0.21,1.05
-64,43,-999,1.89,0.28,0.98
-63,48,-1000,2.8,0.49,0.84
-64,54,-998,2.73,0.63,0.84
-70,58,-997,2.03,0.56,0.91
-67,66,-1000,0.91,0.42,0.77
-60,69,-1002,-0.56,0.42,0.7
-63,70,-997,-2.1,0.56,0.77
-63,74,-995,-3.01,0.28,0.77
-59,72,-1001,-3.64,0.0,0.91
-57,64,-1004,-4.06,0.0,0.98
-62,57,-1002,-4.13,0.28,1.12
-68,53,-1003,-3.22,0.49,1.05
-63,55,-1008,-2.1,0.42,0.98
-64,52,-1008,-1.26,0.49,1.12
-69,36,-1008,-1.05,0.7,1.19
-70,37,-996,-0.56,1.05,1.12
-72,30,-987,-0.14,1.19,1.33
-71,24,-991,0.98,1.12,1.05
-65,27,-993,1.82,1.12,0.7
-66,40,-999,1.82,0.84,0.42
-61,54,-1008,1.19,0.49,0.21
-60,65,-1018,-0.42,0.28,0.07
-58,67,-1027,-2.17,0.07,-0.21
-56,70,-1022,-3.71,0.21,-0.49
-63,68,-1007,-4.48,0.21,-0.77
-64,75,-1002,-3.92,-0.35,-1.05
-58,83,-1010,-3.22,-0.98,-1.05
-57,83,-1022,-2.94,-1.33,-0.91
-60,87,-1030,-2.94,-1.4,-0.91
-60,88,-1025,-3.43,-1.12,-0.77
-58,83,-1016,-3.78,-0.91,-0.98
-57,75,-1006,-3.43,-0.84,-0.98
-59,69,-996,-2.52,-0.91,-1.05
-62,69,-996,-1.12,-1.47,-0.98
-58,74,-1005,0.28,-1.82,-0.77
-59,78,-1009,0.21,-1.82,-0.63
-63,79,-1005,-0.56,-1.54,-0.7
-64,83,-1001,-1.68,-1.19,-0.7
-65,70,-992,-2.59,-0.7,-0.63
-69,63,-980,-2.73,-0.35,-0.56
-73,60,-976,-1.82,-0.42,-0.35
-73,61,-976,-0.98,-0.42,-0.07
-69,67,-985,0.0,-0.49,0.21
-63,79,-1000,0.28,-0.56,0.35
-62,84,-1008,-0.49,-0.35,0.63
-64,78,-1008,-1.61,0.0,0.91
-63,73,-1006,-2.03,0.14,1.05
-64,58,-1002,-1.61,0.07,1.26
-69,46,-1006,-0.35,-0.14,1.4
-68,35,-1010,0.84,-0.07,1.54
-74,22,-1001,1.33,0.63,1.4
-74,21,-983,2.1,1.12,0.77
-71,28,-968,2.66,1.61,0.35
-64,31,-968,2.73,1.61,0.14
-59,35,-980,2.73,1.47,0.14
-61,39,-998,2.1,1.47,0.21
-60,48,-1010,1.19,1.61,0.14
-63,57,-1006,-0.42,1.82,-0.07
-72,59,-1004,-2.03,1.68,-0.49
-67,65,-1013,-2.1,1.19,-0.91
-63,74,-1022,-1.61,0.7,-1.05
-64,84,-1023,-1.75,0.35,-1.12
-63,92,-1026,-2.38,0.0,-1.12
-61,97,-1024,-3.22,-0.21,-0.98
-62,95,-1016,-4.13,-0.42,-0.77
-58,87,-1014,-4.06,-0.84,-0.63
-52,86,-1021,-2.94,-1.26,-0.56
-51,86,-1027,-1.82,-1.47,-0.35
-52,82,-1020,-1.26,-1.4,-0.28
-56,80,-1005,-0.98,-1.19,-0.35
-60,76,-994,-0.84,-1.12,-0.35
-61,71,-984,-0.35,-1.05,-0.21
-65,67,-979,0.28,-1.33,0.14
-66,68,-988,1.12,-1.82,0.28
-64,76,-1002,1.12,-2.1,0.28
-67,72,-1008,-0.28,-2.17,0.35
-69,63,-1010,-2.17,-1.75,-0.07
-72,65,-1001,-3.57,-1.54,-0.49
-74,66,-997,-3.85,-1.68,-0.7
-68,73,-1004,-3.78,-2.1,-0.77
-64,76,-1020,-3.57,-2.52,-0.42
-56,81,-1029,-4.13,-2.45,-0.28
-52,84,-1023,-5.04,-2.17,-0.07
-48,72,-1012,-6.02,-1.75,0.14
-45,54,-998,-5.95,-1.33,0.07
-50,40,-985,-4.06,-1.19,0.35
-55,40,-979,-1.05,-1.47,0.63
-56,47,-984,1.33,-1.68,0.91
-60,50,-994,2.17,-1.68,1.05
-68,54,-997,1.12,-1.19,0.91
-71,57,-983,-0.84,-0.42,0.77
-72,52,-964,-2.17,0.21,0.56
-75,52,-958,-2.24,0.35,0.28
-73,55,-974,-0.84,0.14,0.35
-67,71,-991,0.49,-0.07,0.49
-68,86,-1003,0.35,0.07,0.56
-68,91,-1011,-0.7,0.35,0.56
-65,89,-1014,-1.61,0.77,0.35
-65,85,-1011,-1.4,1.05,0.14
-68,84,-1011,0.56,0.84,0.14
-65,93,-1021,3.15,0.14,0.14
-60,108,-1034,4.2,-0.49,0.35
-57,117,-1042,3.15,-0.77,0.35
-52,114,-1033,0.77,-0.7,0.21
-55,104,-1011,-1.33,-0.63,0.14
-51,84,-997,-1.89,-0.77,0.14
-52,71,-996,-0.21,-1.12,0.07
-52,66,-997,2.03,-1.26,0.21
-57,73,-996,2.94,-1.26,0.28
-56,85,-993,2.24,-1.33,0.21
-55,84,-988,-0.14,-0.98,0.07
-59,69,-986,-2.52,-0.91,0.0
-60,54,-991,-2.66,-0.91,0.0
-59,49,-997,-1.33,-0.98,0.07
-62,57,-1001,-0.07,-1.05,0.0
-65,65,-1002,0.21,-0.91,-0.28
-65,73,-1003,-0.84,-0.56,-0.63
-65,72,-1000,-1.82,-0.21,-0.84
-67,76,-995,-1.96,-0.07,-0.98
-68,82,-988,-1.89,-0.07,-0.7
-66,78,-995,-1.4,-0.49,-0.49
-65,80,-1010,-0.91,-0.84,-0.28
-63,83,-1013,-0.77,-0.77,-0.07
-63,84,-1007,-0.98,-0.56,-0.14
-63,79,-1009,-0.98,-0.56,-0.28
-61,71,-1011,-0.35,-0.28,-0.35
-63,64,-1003,0.63,0.0,-0.21
-69,66,-990,1.61,0.14,-0.14
-68,69,-985,2.31,0.0,-0.07
-59,73,-991,2.73,-0.07,-0.07
-60,75,-1002,2.8,0.0,-0.07
-57,70,-1017,2.66,0.49,-0.21
-52,64,-1023,2.66,1.33,-0.28
-55,58,-1010,3.01,2.24,-0.42
-62,54,-984,3.5,2.59,-0.56
-60,61,-975,4.97,2.03,-0.63
-48,70,-989,6.23,1.12,-0.63
-44,79,-1006,6.23,0.7,-0.56
-47,86,-1013,5.32,0.63,-0.63
-54,87,-1002,3.64,1.05,-0.56
-59,77,-989,2.31,1.33,-0.49
-65,71,-988,2.94,0.98,-0.63
-65,78,-1004,4.76,-0.07,-0.63
-60,89,-1033,5.11,-0.77,-0.28
-59,89,-1044,3.43,-0.98,-0.28
-61,85,-1037,1.05,-0.63,-0.42
-60,76,-1020,-0.42,-0.42,-0.7
-62,55,-1006,-0.07,-0.7,-0.84
-65,45,-1004,2.03,-1.26,-0.84
-64,52,-1006,4.55,-1.61,-0.77
-66,63,-1007,5.53,-1.96,-0.63
-70,69,-1010,4.2,-1.96,-0.77
-70,67,-1009,2.24,-1.54,-1.12
-68,58,-998,0.35,-1.12,-1.33
-77,49,-985,0.07,-1.05,-1.4
-79,51,-983,1.47,-1.61,-1.4
-73,61,-998,2.94,-2.52,-1.19
-68,66,-1018,2.94,-3.08,-0.91
-65,70,-1033,1.82,-3.29,-0.91
-56,70,-1030,0.21,-2.8,-0.91
-55,58,-1009,-1.26,-2.03,-0.91
-62,48,-988,-1.26,-1.82,-1.05
-64,41,-977,-0.14,-2.17,-0.91
-65,37,-980,1.47,-2.73,-0.63
-61,48,-996,2.59,-3.22,-0.63
-61,61,-1003,1.47,-3.01,-0.49
-66,63,-996,-1.26,-2.31,-0.63
-67,60,-976,-3.64,-1.54,-0.77
-70,51,-955,-3.99,-1.05,-0.77
-70,47,-951,-1.96,-1.33,-0.56
-67,54,-968,0.91,-1.54,-0.21
-63,65,-987,3.08,-1.33,0.14
-60,68,-999,3.78,-0.56,0.35
-62,75,-999,3.64,0.28,0.28
-58,75,-995,3.64,1.05,0.21
-56,76,-991,4.62,1.26,0.35
-55,62,-1007,6.44,1.05,0.63
-50,55,-1028,8.61,0.84,0.7
-47,60,-1035,10.36,0.84,0.98
-46,61,-1033,11.13,0.77,1.05
-47,67,-1027,10.99,0.63,0.77
-48,59,-1030,10.43,0.28,0.63
-54,53,-1038,9.94,-0.14,0.49
-54,44,-1030,9.38,-0.21,0.63
-59,35,-1016,9.17,-0.35,0.84
-58,32,-1012,9.38,-0.91,0.7
-56,27,-1017,9.1,-1.33,0.63
-59,18,-1023,7.84,-1.47,0.49
-64,16,-1014,6.51,-1.33,0.07
-67,16,-1001,4.48,-1.19,-0.21
-67,8,-994,2.66,-1.12,-0.56
-62,4,-990,1.82,-1.19,-0.91
-61,7,-991,1.4,-1.4,-1.05
-58,20,-992,0.63,-1.75,-1.12
-60,36,-995,-1.54,-2.1,-1.19
-58,42,-1002,-4.2,-2.38,-1.33
-59,40,-1012,-6.44,-2.45,-1.33
-64,29,-1019,-7.7,-2.59,-1.19
-65,29,-1018,-7.42,-2.59,-0.98
-61,35,-1012,-6.09,-2.66,-0.84
-56,41,-1004,-5.74,-2.52,-0.77
-55,41,-991,-5.53,-1.96,-0.84
-55,40,-975,-5.25,-1.26,-0.91
-61,44,-960,-4.55,-0.7,-0.77
-66,38,-956,-3.36,0.0,-0.28
-63,30,-952,-1.19,0.91,0.14
-66,32,-943,0.91,1.82,0.49
-73,39,-946,2.66,2.38,0.7
-71,47,-963,4.83,2.66,0.63
-76,54,-985,6.09,2.94,0.91
-83,60,-1004,6.72,3.15,1.12
-82,69,-1014,7.21,3.43,1.47
-79,61,-1019,7.56,3.78,1.89
-73,53,-1022,8.61,3.85,2.1
-67,50,-1024,10.43,3.5,2.38
-63,45,-1026,12.18,2.8,2.52
-62,41,-1042,13.58,1.68,2.59
-57,39,-1060,14.63,0.7,2.66
-54,34,-1066,14.49,0.35,2.59
-55,20,-1056,13.23,0.42,2.31
-57,18,-1034,12.11,0.35,1.75
-56,20,-1019,11.06,-0.21,1.4
-50,22,-1017,8.96,-0.98,1.12
-45,16,-1023,6.23,-1.75,0.84
-45,5,-1027,2.66,-2.17,0.7
-45,2,-1022,-0.91,-2.38,0.28
-43,0,-1010,-3.92,-2.52,-0.07
-43,-11,-999,-6.3,-2.66,-0.42
-48,-17,-994,-7.28,-2.94,-0.84
-49,-17,-993,-7.07,-3.15,-0.98
-51,-10,-990,-7.0,-3.01,-1.12
-52,4,-988,-7.35,-3.01,-1.26
-52,20,-991,-8.47,-3.01,-1.47
-53,23,-1000,-10.29,-3.01,-1.4
-52,20,-1004,-11.69,-2.8,-1.26
-53,26,-999,-11.76,-2.45,-1.33
-53,31,-995,-11.06,-2.24,-1.26
-53,31,-994,-10.15,-2.03,-1.33
-57,35,-994,-8.75,-1.75,-1.54
-60,44,-995,-7.07,-1.68,-1.47
-66,54,-1002,-5.81,-1.89,-1.12
-69,55,-1011,-5.04,-2.03,-0.7
-63,60,-1016,-4.48,-1.82,-0.63
-60,60,-1011,-4.34,-1.4,-0.49
-60,57,-1000,-4.06,-1.19,-0.56
-61,61,-992,-3.22,-1.19,-0.63
-62,58,-993,-2.31,-1.4,-0.35
-70,57,-998,-1.4,-1.68,-0.21
-71,63,-1011,-0.63,-1.96,-0.07
-69,65,-1015,-0.84,-1.68,0.07
-72,60,-1001,-1.89,-1.12,0.07
-69,59,-983,-2.8,-0.84,-0.14
-66,49,-980,-2.8,-1.12,-0.21
-63,35,-991,-1.89,-1.4,-0.07
-63,32,-1006,-0.28,-1.4,-0.07
-65,35,-1014,0.49,-1.26,0.0
-65,41,-1017,0.07,-0.91,-0.28
-67,45,-1007,-1.47,-0.49,-0.49
-67,36,-993,-3.29,-0.28,-0.84
-65,30,-991,-3.78,-0.56,-1.19
-61,32,-1004,-3.08,-1.12,-1.05
-57,36,-1017,-2.66,-1.47,-0.98
-61,40,-1018,-3.64,-1.19,-1.05
-70,42,-1009,-5.32,-0.84,-1.26
-70,43,-998,-6.51,-0.84,-1.47
-69,45,-995,-6.44,-1.12,-1.82
-69,46,-1000,-5.74,-1.33,-1.82
-70,50,-1009,-4.69,-1.68,-1.75
-69,65,-1015,-4.2,-1.82,-1.54
-64,72,-1012,-5.11,-1.54,-1.47
-66,70,-995,-6.44,-1.05,-1.61
-67,54,-983,-6.51,-0.63,-1.61
-64,49,-982,-4.27,-0.56,-1.54
-59,54,-989,-1.05,-0.7,-1.12
-59,59,-997,1.96,-0.7,-0.63
-61,64,-1000,3.22,-0.35,-0.35
-68,65,-989,3.22,0.14,-0.35
-73,62,-983,2.94,0.35,-0.42
-65,51,-999,3.71,0.14,-0.35
-58,44,-1019,5.11,-0.07,-0.07
-64,51,-1022,5.88,-0.14,0.14
-66,63,-1019,5.11,-0.35,0.14
-60,60,-1021,3.15,-0.49,-0.07
-60,45,-1023,1.33,-0.42,-0.35
-60,33,-1021,0.63,-0.42,-0.56
-57,32,-1013,1.05,-0.49,-0.56
-59,33,-1004,1.61,-0.77,-0.42
-60,32,-1006,1.4,-1.12,-0.49
-59,35,-1011,0.7,-1.26,-0.63
-64,34,-1004,-1.05,-1.12,-0.7
-67,34,-992,-2.73,-0.77,-0.91
-66,36,-988,-3.71,-0.77,-1.19
-66,38,-987,-4.34,-0.98,-1.4
-72,40,-990,-4.41,-1.26,-1.4
-74,51,-1000,-4.27,-1.4,-1.4
-75,59,-1012,-4.62,-1.4,-1.33
-73,55,-1014,-5.39,-0.98,-1.33
-72,53,-1005,-5.88,-0.49,-1.47
-71,51,-990,-5.39,-0.21,-1.61
-74,56,-986,-3.43,-0.63,-1.54
-76,61,-996,-1.89,-1.19,-1.26
-81,58,-1014,-0.84,-1.47,-1.05
-78,62,-1026,-0.07,-1.12,-1.12
-80,65,-1026,-0.28,-0.63,-1.12
-83,56,-1012,-0.35,0.0,-1.19
-80,48,-991,0.49,0.49,-1.47
-78,53,-978,2.52,0.49,-1.75
-70,56,-980,4.55,0.28,-1.47
-65,68,-988,6.23,0.14,-1.26
-63,75,-993,6.72,0.21,-0.84
-63,83,-995,5.53,0.49,-0.56
-61,73,-988,4.13,1.05,-0.42
-61,65,-986,3.85,1.26,-0.56
-61,65,-983,4.34,1.19,-0.42
-63,62,-986,5.04,0.84,-0.28
-61,65,-995,5.53,0.35,-0.14
-56,72,-1007,5.32,0.14,0.35
-55,61,-1017,4.69,0.14,0.63
-51,51,-1023,4.06,0.28,0.49
-52,44,-1021,3.99,0.49,0.63
-49,32,-1019,4.69,0.56,0.63
-43,27,-1009,5.18,0.49,0.7
-49,28,-1005,5.18,0.28,0.77
-47,24,-1011,5.39,-0.49,0.56
-39,27,-1029,4.83,-0.98,0.56
-41,25,-1036,3.08,-1.12,0.63
-50,22,-1026,0.63,-1.12,0.35
-51,21,-1012,-1.75,-1.05,0.07
-51,3,-1007,-3.36,-1.12,-0.21
-53,-9,-1011,-3.5,-1.26,-0.63
-54,-2,-1014,-2.52,-1.26,-0.63
-58,0,-1011,-2.52,-0.98,-0.56
-62,9,-1001,-3.22,-0.63,-0.84
-68,18,-989,-4.2,-0.28,-1.12
-67,23,-981,-4.83,-0.21,-1.4
-65,30,-978,-4.83,-0.14,-1.33
-72,34,-976,-4.62,-0.07,-1.12
-73,45,-987,-3.92,-0.21,-1.19
-70,58,-996,-3.92,-0.21,-0.91
-76,61,-992,-4.9,0.07,-0.7
-81,66,-997,-5.18,-0.21,-0.84
-74,73,-1009,-4.62,-0.42,-0.63
-73,73,-1017,-3.92,-0.42,-0.28
-74,71,-1017,-3.36,-0.35,0.0
-70,73,-1011,-2.24,-0.07,0.21
-65,70,-998,-1.26,0.0,0.49
-64,71,-989,-0.21,0.07,0.63
-60,65,-991,1.05,-0.28,0.84
-58,62,-1002,1.89,-0.7,1.19
-61,55,-1017,2.17,-0.91,1.54
-60,46,-1024,2.17,-0.77,1.68
-58,37,-1020,1.75,-0.35,1.47
-55,28,-1012,1.26,0.07,1.05
-52,25,-1000,1.33,0.35,0.63
-47,32,-995,1.82,-0.07,0.42
-42,39,-999,1.4,-0.56,0.35
-44,40,-1009,-0.07,-0.84,0.14
-49,39,-1026,-1.33,-1.19,0.07
-50,47,-1031,-2.59,-1.05,0.0
-55,41,-1020,-3.92,-0.7,-0.21
-61,37,-1004,-4.55,-0.56,-0.63
-70,37,-1001,-3.85,-0.98,-0.91
-71,37,-1008,-2.38,-1.47,-0.84
-73,51,-1013,-1.26,-1.82,-0.77
-78,62,-1016,-1.12,-2.1,-0.63
-76,71,-1014,-1.68,-2.1,-0.84
-70,70,-999,-3.01,-1.75,-0.84
-65,59,-982,-3.92,-1.33,-0.91
-56,53,-971,-2.94,-1.26,-0.91
-50,55,-976,-0.84,-1.54,-0.7
-47,63,-991,0.98,-1.68,-0.42
-45,68,-1000,1.12,-1.26,-0.07
-52,76,-990,-0.28,-0.63,-0.07
-60,75,-982,-1.68,-0.56,-0.14
-54,65,-988,-2.17,-0.63,-0.21
-54,53,-1001,-1.54,-0.77,-0.14
-58,48,-1014,-0.07,-0.98,0.07
-66,51,-1023,0.98,-0.98,0.21
-68,55,-1021,0.77,-0.84,0.14
-69,54,-1017,-0.35,-0.77,-0.21
-69,46,-1016,-1.33,-0.7,-0.42
-63,39,-1009,-1.61,-0.49,-0.49
-62,34,-998,-1.61,-0.35,-0.49
-59,40,-992,-1.12,-0.56,-0.49
-55,45,-992,-1.33,-0.84,-0.49
-60,49,-997,-2.66,-1.05,-0.63
-69,46,-1002,-4.34,-0.98,-0.63
-73,45,-1000,-5.67,-0.7,-0.77
-74,42,-994,-6.37,-0.49,-0.84
-73,42,-993,-6.16,-0.42,-1.05
-73,41,-1002,-4.97,-0.63,-1.19
-66,52,-1017,-3.29,-0.84,-1.33
-58,63,-1025,-3.01,-0.7,-1.4
-64,74,-1019,-3.43,-0.28,-1.54
-66,75,-1014,-4.34,-0.14,-1.61
-65,74,-1006,-5.04,-0.14,-1.75
-70,80,-998,-4.69,-0.42,-1.61
-71,84,-1007,-3.99,-1.19,-1.4
-66,94,-1021,-3.57,-1.68,-1.19
-65,97,-1022,-4.41,-1.75,-0.84
-62,91,-1013,-6.09,-1.47,-0.84
-57,71,-998,-6.65,-0.84,-1.05
-56,55,-979,-4.9,-0.35,-1.12
-59,57,-964,-1.82,-0.28,-1.05
-67,61,-971,1.75,-0.7,-0.98
-73,68,-993,3.92,-1.05,-0.7
-75,83,-1011,4.41,-1.19,-0.35
-74,82,-1019,2.87,-0.7,0.0
-68,70,-1009,0.77,0.14,-0.07
-70,50,-990,0.77,0.7,-0.14
-70,37,-981,2.73,0.63,-0.07
-64,38,-984,6.23,0.28,0.0
-58,47,-994,8.89,0.0,0.42
-60,65,-999,9.17,-0.07,0.63
-60,78,-998,7.14,0.0,0.56
-57,77,-1001,4.2,0.0,0.49
-52,61,-1013,1.82,0.07,0.56
-51,37,-1017,0.77,0.28,0.56
-59,32,-1007,1.05,0.42,0.49
-62,34,-998,1.75,0.21,0.35
-59,41,-1003,2.17,-0.28,0.07
-58,47,-1013,1.61,-0.63,-0.14
-60,51,-1018,0.28,-0.63,-0.28
-65,59,-1011,-1.68,-0.49,-0.35
-67,56,-998,-3.78,-0.35,-0.42
-61,50,-991,-5.18,-0.49,-0.63
-58,50,-989,-5.95,-0.84,-0.7
-61,52,-994,-6.16,-1.26,-0.7
-59,61,-1006,-6.23,-1.54,-0.63
-56,68,-1007,-7.0,-1.33,-0.56
-59,69,-1001,-7.77,-1.12,-0.63
-60,76,-998,-7.7,-1.4,-0.63
-59,72,-1002,-7.63,-1.82,-0.35
-57,67,-1014,-6.79,-2.17,-0.35
-55,71,-1022,-5.6,-2.38,-0.28
-59,75,-1021,-5.39,-2.24,-0.21
-66,73,-1015,-5.39,-2.1,-0.35
-59,81,-1010,-5.53,-2.03,-0.63
-57,86,-1001,-5.53,-1.89,-0.84
-65,90,-993,-5.6,-2.03,-0.91
-70,98,-991,-5.46,-2.38,-0.84
-69,104,-992,-5.88,-2.73,-0.7
-70,103,-995,-6.72,-2.94,-0.49
-74,99,-998,-7.35,-3.08,-0.49
-72,93,-1001,-7.56,-3.08,-0.28
-64,84,-1012,-7.0,-3.22,-0.21
-54,83,-1023,-5.6,-3.15,-0.21
-46,84,-1023,-4.55,-2.8,-0.07
-47,73,-1014,-4.06,-2.31,0.14
-53,66,-1003,-3.08,-1.82,0.0
-60,64,-992,-1.75,-1.61,0.14
-59,60,-985,-0.63,-1.4,0.35
-65,54,-974,-0.35,-1.05,0.42
-73,52,-965,0.0,-0.7,0.42
-73,53,-964,0.35,-0.42,0.35
-68,59,-972,0.84,-0.07,0.28
-70,63,-977,0.84,0.35,0.28
-75,65,-975,0.28,1.05,0.21
-78,69,-973,0.42,1.47,0.21
-78,69,-982,1.26,1.4,0.42
-82,74,-998,2.38,1.12,0.42
-82,79,-1015,3.15,0.91,0.42
-79,84,-1029,2.8,1.05,0.28
-81,90,-1027,1.96,1.19,0.0
-82,102,-1016,1.19,0.91,-0.35
-74,112,-1015,0.63,0.28,-0.56
-70,112,-1018,-0.14,-0.42,-0.63
-71,115,-1024,-0.77,-1.12,-0.56
-69,115,-1028,-1.47,-1.82,-0.21
-71,107,-1027,-2.45,-1.96,-0.07
-71,93,-1023,-3.08,-2.03,-0.28
-65,86,-1018,-2.73,-2.03,-0.56
-63,85,-1005,-2.1,-1.82,-0.63
-60,86,-987,-2.17,-1.61,-0.63
-58,82,-977,-2.59,-1.61,-0.7
-56,77,-974,-2.31,-1.75,-0.49
-58,68,-981,-2.45,-1.75,-0.14
-61,63,-991,-2.52,-1.61,-0.21
-62,72,-992,-2.87,-1.33,-0.42
-67,68,-988,-4.13,-0.98,-0.35
-72,57,-996,-4.27,-0.98,-0.35
-64,64,-1011,-2.52,-1.05,-0.49
-62,73,-1015,-0.84,-0.77,-0.35
-68,78,-1003,-0.28,-0.35,-0.21
-71,86,-988,0.28,0.0,-0.21
-74,85,-978,1.26,0.28,0.0
-75,78,-984,2.73,0.21,0.14
-77,83,-998,4.9,0.14,0.35
-81,90,-1007,6.09,0.21,0.56
-82,99,-1010,5.74,0.35,0.49
-79,101,-1002,4.06,0.7,0.42
-76,89,-982,2.24,1.19,0.14
-78,87,-969,2.38,0.77,-0.07
-67,96,-988,4.34,-0.42,0.07
-58,98,-1022,5.18,-1.19,0.42
-59,96,-1039,4.41,-1.19,0.63
-66,96,-1036,2.59,-0.77,0.63
-63,83,-1026,0.7,-0.42,0.28
-61,59,-1015,0.14,-0.21,-0.21
-62,56,-1007,1.89,-0.49,-0.63
-65,67,-1008,3.71,-1.12,-0.56
-63,81,-1011,3.92,-1.54,-0.49
-61,87,-1012,2.1,-1.54,-0.49
-62,86,-1007,-0.49,-1.4,-0.63
-61,82,-996,-2.52,-1.19,-0.84
-60,69,-986,-3.43,-1.05,-0.91
-58,64,-981,-3.08,-1.12,-1.05
-50,66,-981,-1.75,-1.19,-0.98
-51,70,-990,-0.42,-1.47,-0.7
-54,73,-1005,0.49,-1.54,-0.42
-50,83,-1011,0.7,-1.26,-0.42
-51,86,-1009,0.21,-0.84,-0.42
-57,82,-1002,-0.28,-0.7,-0.42
-66,74,-1002,-0.14,-0.77,-0.49
-68,68,-1003,0.7,-0.91,-0.35
-70,68,-1003,1.4,-0.98,-0.14
-75,72,-1005,2.1,-1.19,0.07
-73,77,-1013,2.38,-1.47,-0.07
-72,75,-1018,1.68,-1.4,-0.21
-78,76,-1007,0.56,-1.12,-0.35
-78,76,-991,-0.28,-1.19,-0.28
-72,76,-995,-0.21,-1.61,-0.28
-71,75,-1008,0.14,-2.1,-0.21
-74,71,-1016,-0.14,-2.1,-0.07
-72,75,-1013,-0.49,-1.75,-0.14
-72,76,-997,-1.33,-1.4,-0.14
-74,69,-982,-2.03,-1.05,-0.42
-73,61,-977,-1.47,-0.84,-0.56
-71,59,-982,0.07,-0.7,-0.49
-71,72,-986,1.89,-0.77,-0.35
-70,91,-989,2.17,-0.77,-0.21
-71,96,-998,0.42,-0.84,-0.21
-65,92,-1009,-1.54,-0.63,-0.42
-65,81,-1002,-2.94,-0.14,-0.49
-72,71,-989,-2.66,0.0,-0.49
-72,72,-993,-0.84,-0.35,-0.49
-65,75,-1005,1.12,-0.56,-0.35
-65,83,-1007,1.61,-0.28,-0.28
-70,89,-998,0.91,0.0,-0.28
-71,87,-986,-0.21,0.35,-0.21
-73,78,-975,-0.77,0.56,-0.21
-74,70,-971,-0.07,0.49,-0.14
-78,68,-979,1.05,0.21,-0.07
-75,74,-992,2.59,-0.21,0.0
-68,89,-1007,2.52,-0.42,0.21
-70,88,-1013,0.49,-0.14,0.07
-68,76,-1011,-1.61,0.28,-0.21
-63,62,-999,-2.45,0.63,-0.49
-58,44,-996,-1.33,0.56,-0.56
-51,42,-1009,1.61,0.0,-0.77
-43,62,-1028,3.99,-0.63,-0.98
-44,78,-1046,3.43,-1.05,-1.12
-46,98,-1051,0.91,-1.19,-1.54
-47,103,-1043,-3.08,-1.33,-2.03
-51,96,-1039,-6.16,-1.61,-2.38
-53,86,-1036,-7.07,-1.96,-2.52
-56,83,-1028,-6.16,-2.17,-2.38
-61,86,-1013,-4.62,-2.24,-2.1
-65,92,-995,-3.29,-2.31,-1.89
-65,98,-983,-2.66,-2.31,-1.89
-67,96,-972,-2.31,-2.17,-1.68
-75,88,-968,-1.82,-1.75,-1.26
-78,78,-968,-0.49,-1.12,-0.84
-80,78,-962,1.19,-0.49,-0.35
-86,77,-954,1.89,-0.14,0.21
-84,74,-954,1.82,0.07,0.28
-79,75,-966,1.61,-0.07,0.28
-82,72,-986,1.33,-0.28,0.42
-84,69,-1006,1.26,-0.28,0.56
-78,67,-1017,1.26,0.28,0.7
-75,63,-1014,1.12,0.77,0.84
-77,52,-1011,1.68,0.77,0.84
-76,47,-1016,2.94,0.35,0.77
-75,43,-1021,3.92,0.0,0.77
-71,48,-1022,4.34,0.14,0.42
-67,57,-1010,3.99,0.49,0.14
-70,61,-985,3.08,0.91,0.0
-71,57,-969,2.59,0.98,-0.14
-64,54,-970,3.08,1.05,-0.21
-64,55,-986,4.69,0.7,-0.07
-63,68,-1010,6.3,0.42,0.07
-66,89,-1019,5.88,0.49,0.14
-78,100,-1010,3.22,0.7,-0.07
-81,102,-1009,0.84,0.49,-0.42
-72,98,-1013,0.14,0.14,-0.49
-72,92,-1017,0.84,-0.21,-0.14
-71,94,-1025,2.31,-0.77,0.28
-66,99,-1029,2.94,-0.91,0.56
-66,93,-1018,2.52,-0.77,0.77
-73,83,-1008,1.47,-0.91,0.7
-73,70,-1002,1.47,-1.05,0.42
-68,60,-1001,2.24,-1.12,0.42
-65,57,-998,2.94,-1.33,0.49
-62,57,-996,3.57,-1.54,0.42
-56,60,-1001,3.29,-1.68,0.28
-53,61,-1005,2.1,-1.61,0.07
-52,63,-1004,0.28,-1.54,-0.28
-51,64,-1001,-1.61,-1.54,-0.56
-53,61,-1000,-3.08,-1.4,-0.77
-51,58,-997,-3.85,-1.26,-1.05
-50,66,-999,-3.64,-1.54,-1.26
-48,71,-1010,-3.78,-2.03,-1.26
-49,77,-1022,-4.2,-2.24,-1.33
-52,80,-1027,-5.18,-2.03,-1.33
-54,79,-1019,-6.3,-1.54,-1.33
-58,71,-996,-6.65,-0.98,-1.33
-68,65,-973,-5.6,-0.63,-1.4
-72,74,-963,-3.29,-0.84,-1.4
-74,85,-970,-1.26,-1.4,-1.05
-77,90,-991,-0.49,-1.75,-0.56
-76,96,-1008,-0.84,-1.68,-0.35
-71,99,-1007,-1.96,-0.84,-0.28
-72,91,-987,-3.22,0.0,-0.42
-73,80,-969,-2.94,0.35,-0.63
-72,77,-969,-0.49,-0.07,-0.49
-68,78,-991,2.45,-0.77,0.0
-68,88,-1015,4.2,-1.19,0.56
-69,95,-1028,4.06,-1.12,0.77
-69,88,-1026,2.1,-0.56,0.63
-70,72,-1010,0.14,0.07,0.28
-68,55,-987,-0.42,0.42,-0.07
-71,47,-984,1.12,0.0,-0.28
-66,51,-1013,3.71,-1.12,0.0
-62,61,-1037,4.48,-1.33,0.35
-66,73,-1031,2.31,-1.12,0.42
-70,72,-1004,-2.31,-0.63,0.07
-74,48,-986,-6.09,-0.49,-0.56
-62,29,-988,-6.58,-0.77,-1.12
-54,30,-1001,-4.69,-1.26,-1.33
-56,45,-1010,-2.94,-1.47,-1.05
-59,75,-1006,-3.29,-1.54,-1.12
-63,90,-1000,-6.3,-1.47,-1.26
-63,79,-993,-10.01,-1.19,-1.47
-63,68,-989,-11.27,-1.19,-1.68
-62,62,-999,-9.59,-1.47,-1.68
-65,66,-1010,-7.14,-1.61,-1.54
-69,78,-1018,-5.04,-1.75,-1.4
-69,96,-1019,-4.48,-1.61,-1.61
-69,101,-1015,-5.18,-1.05,-1.75
-68,104,-999,-5.95,-0.35,-2.1
-73,107,-982,-5.74,-0.21,-2.24
-74,109,-977,-4.69,-0.63,-2.03
-73,114,-981,-3.36,-0.98,-1.61
-75,113,-989,-2.38,-1.19,-0.98
-77,112,-997,-1.89,-1.19,-0.63
-78,111,-996,-1.33,-0.7,-0.56
-81,98,-994,-0.77,-0.35,-0.42
-81,91,-994,0.77,-0.28,-0.63
-78,95,-999,3.01,-0.49,-0.35
-75,93,-1012,4.34,-0.77,0.07
-73,97,-1020,4.48,-0.84,0.21
-75,90,-1016,3.57,-0.56,0.35
-75,82,-1005,2.17,-0.28,0.14
-75,72,-992,1.68,-0.28,-0.07
-76,63,-987,2.17,-0.42,-0.28
-73,64,-983,3.15,-0.49,-0.35
-71,70,-984,3.85,-0.63,-0.21
-71,78,-993,3.92,-0.84,-0.07
-72,81,-1003,2.87,-0.7,-0.07
-72,79,-1007,1.68,-0.42,-0.21
-77,80,-1002,0.42,-0.28,-0.35
-81,79,-1001,-0.35,-0.35,-0.49
-75,80,-1009,-0.49,-0.7,-0.56
-71,80,-1020,-0.63,-0.98,-0.49
-71,77,-1022,-0.63,-0.91,-0.28
-70,81,-1015,-0.63,-0.84,-0.21
-67,81,-1001,-0.84,-0.49,-0.28
-66,76,-982,-0.98,-0.35,-0.35
-65,74,-979,-0.49,-0.63,-0.35
-62,73,-989,0.63,-1.12,-0.07
-63,76,-1002,1.47,-1.26,0.28
-65,82,-1008,1.05,-1.05,0.49
-61,83,-1003,-0.42,-0.42,0.42
-59,79,-987,-1.82,0.14,0.14
-61,75,-979,-2.31,0.07,-0.07
-59,73,-987,-1.26,-0.21,-0.07
-63,79,-1007,0.14,-0.63,0.21
-71,85,-1016,0.7,-0.84,0.63
-73,93,-1016,0.35,-0.63,0.7
-67,88,-1014,-0.77,-0.35,0.42
-66,76,-1009,-1.12,0.07,0.14
-66,70,-1002,-0.07,0.14,0.07
-62,77,-1000,1.68,-0.21,0.07
-64,86,-1009,2.8,-0.84,0.21
-67,89,-1016,2.45,-1.05,0.21
-68,92,-1008,1.05,-0.7,0.21
-70,90,-991,-0.42,-0.42,0.14
-71,87,-980,-0.84,-0.49,-0.07
-70,83,-989,-0.14,-0.84,-0.14
-70,85,-998,0.77,-0.84,0.0
-77,91,-995,0.98,-0.63,0.21
-78,94,-991,0.21,-0.49,0.21
-71,93,-999,-0.28,-0.49,0.07
-64,85,-1009,-0.63,-0.49,-0.07
-68,78,-1006,-0.63,-0.28,-0.14
-72,79,-1000,-0.14,-0.35,-0.07
-66,88,-1004,0.28,-0.63,0.07
-63,85,-1009,-0.28,-0.98,0.14
-70,78,-1012,-0.7,-1.05,0.07
-73,77,-1016,-0.84,-1.19,0.21
-72,73,-1014,-1.12,-1.12,0.21
-71,64,-1003,-1.05,-0.91,0.07
-75,62,-994,-0.42,-0.98,-0.07
-70,69,-990,0.77,-0.91,-0.28
-69,80,-988,1.4,-0.77,-0.07
-71,87,-986,0.84,-0.56,0.07
-69,89,-984,-0.07,-0.42,0.21
-66,87,-987,-1.26,-0.35,0.28
-63,82,-995,-1.75,-0.49,0.42
-63,77,-1001,-1.54,-0.56,0.49
-64,72,-1009,-0.84,-0.56,0.42
-63,78,-1014,-0.14,-0.28,0.42
-68,76,-1004,-0.14,0.07,0.35
-74,77,-989,-0.35,0.28,0.14
-70,79,-984,-0.07,0.21,0.14
-66,84,-987,0.14,0.07,0.21
-65,86,-995,0.42,-0.07,0.35
-64,92,-1004,0.28,-0.21,0.49
-67,100,-1008,-0.07,-0.21,0.49
-68,98,-1007,-0.98,-0.14,0.42
-71,94,-1010,-1.47,-0.14,0.21
-70,90,-1009,-1.12,-0.14,0.21
-71,89,-1004,-0.63,-0.07,0.28
-72,91,-993,-0.14,0.07,0.21
-66,92,-984,0.42,0.14,0.14
-64,91,-982,0.7,0.07,0.21
-67,90,-989,0.91,-0.14,0.28
-68,94,-1001,1.4,-0.42,0.42
-68,96,-1016,0.98,-0.63,0.56
-67,87,-1024,0.21,-0.49,0.77
-67,75,-1016,-0.56,-0.07,0.49
-65,70,-1001,-0.42,0.0,0.21
-58,66,-996,0.77,-0.28,-0.21
-58,68,-1006,1.96,-0.77,-0.42
-63,78,-1018,2.45,-1.12,-0.42
-62,87,-1018,1.33,-1.05,-0.35
-65,90,-1010,-1.05,-0.84,-0.42
-65,85,-999,-3.01,-0.7,-0.77
-63,77,-990,-4.13,-0.77,-1.12
-63,73,-989,-3.71,-1.05,-1.12
-65,83,-998,-2.17,-1.54,-1.05
-65,99,-1008,-1.26,-1.89,-0.84
-67,104,-1012,-1.96,-1.82,-0.77
-68,102,-1006,-3.29,-1.47,-0.84
-71,93,-996,-3.78,-1.12,-0.84
-71,87,-987,-3.36,-1.05,-1.05
-73,85,-985,-2.31,-1.26,-1.26
-74,94,-989,-2.03,-1.47,-1.4
-78,103,-995,-2.87,-1.61,-1.4
-80,108,-1001,-4.83,-1.75,-1.33
-73,104,-1008,-6.65,-1.96,-1.26
-66,95,-1013,-7.42,-2.03,-1.33
-66,82,-1021,-6.79,-2.1,-1.33
-66,78,-1027,-5.39,-2.24,-1.47
-62,78,-1025,-3.78,-2.24,-1.4
-63,85,-1016,-3.01,-2.31,-1.4
-64,92,-1008,-2.87,-2.59,-1.47
-60,94,-1008,-3.08,-2.87,-1.33
-60,89,-1007,-3.78,-3.01,-0.98
-62,86,-1003,-4.55,-2.8,-0.91
-66,77,-992,-5.32,-2.38,-0.77
-69,65,-974,-5.53,-1.82,-0.84
-74,60,-958,-4.48,-1.4,-0.98
-78,63,-955,-2.31,-1.26,-0.84
-82,69,-967,0.28,-1.05,-0.63
-82,87,-980,2.31,-0.56,-0.49
-89,107,-978,2.17,0.14,-0.35
-97,116,-972,0.7,0.63,-0.42
-96,113,-974,-0.84,0.77,-0.56
-91,116,-980,-0.98,0.84,-0.7
-88,120,-989,-0.07,0.49,-0.49
-84,124,-1010,1.33,0.0,-0.07
-79,123,-1029,2.24,-0.14,0.21
-77,118,-1034,2.87,0.14,0.35
-79,117,-1022,3.36,0.56,0.28
-79,113,-1008,4.27,0.56,0.14
-73,113,-1006,5.04,0.28,0.07
-71,108,-1006,5.04,-0.07,0.28
-73,102,-1001,4.62,-0.28,0.63
-73,99,-999,3.71,-0.49,0.84
-72,87,-996,2.73,-0.42,0.98
-71,76,-987,2.03,-0.28,0.84
-67,70,-983,1.75,-0.21,0.63
-66,66,-985,2.03,-0.35,0.49
-62,65,-999,2.87,-0.63,0.42
-63,65,-1014,3.5,-0.49,0.49
-72,71,-1010,3.08,-0.07,0.35
-72,81,-1001,2.03,0.28,0.0
-68,83,-995,0.98,0.56,-0.14
-67,77,-989,0.49,0.77,-0.35
-69,84,-980,1.19,0.77,-0.42
-65,95,-980,2.31,0.49,0.0
-57,103,-997,3.43,0.21,0.35
-48,109,-1023,3.85,-0.21,0.84
-52,111,-1035,2.59,0.0,1.05
-59,106,-1023,0.56,0.35,1.05
-58,90,-1008,-0.63,0.49,0.98
-59,75,-994,0.07,0.56,0.98
-58,75,-982,2.66,0.49,1.05
-51,87,-981,5.18,0.07,1.26
-52,91,-991,5.81,-0.14,1.68
-56,101,-999,4.62,-0.21,1.89
-64,103,-1000,2.1,-0.28,2.17
-65,92,-1005,-0.84,-0.35,2.24
-60,83,-1007,-2.94,-0.42,2.1
-58,80,-1009,-4.27,-0.56,2.03
-57,79,-1007,-5.46,-0.7,1.75
-57,75,-1007,-6.86,-0.91,1.54
-64,69,-1011,-8.12,-1.19,1.47
-64,62,-1014,-8.54,-1.4,1.33
-65,68,-1019,-8.33,-1.89,1.19
-71,64,-1031,-8.68,-2.52,1.26
-70,58,-1030,-10.01,-2.45,0.98
-70,55,-1012,-11.27,-2.1,0.56
-65,52,-998,-11.41,-2.17,0.28
-50,61,-998,-9.52,-2.24,-0.07
-43,71,-998,-7.35,-2.1,0.0
-45,86,-993,-6.02,-1.75,0.07
-51,101,-978,-5.81,-1.12,0.14
-63,101,-962,-6.09,-0.49,0.07
-76,93,-953,-5.67,-0.21,-0.07
-79,104,-968,-2.8,-0.49,-0.07
-74,122,-993,0.07,-0.98,0.35
-81,134,-1014,0.49,-1.05,0.63
-89,148,-1020,-0.84,-0.91,0.56
-85,152,-1020,-3.15,-0.77,0.42
-83,136,-1017,-4.83,-0.56,0.28
-83,124,-1008,-4.13,-0.56,0.14
-82,126,-997,-1.54,-0.91,0.21
-80,125,-1000,1.05,-1.54,0.49
-75,129,-1013,2.59,-1.89,0.63
-71,131,-1015,2.73,-1.75,0.63
-78,125,-999,1.47,-1.33,0.56
-83,120,-983,0.42,-1.12,0.28
-81,113,-977,0.14,-1.19,0.07
-83,102,-980,0.56,-1.4,0.21
-81,101,-989,1.19,-1.61,0.28
-77,111,-994,1.26,-1.61,0.21
-80,109,-996,-0.14,-1.47,0.14
-81,97,-998,-1.61,-1.26,-0.14
-80,90,-995,-1.96,-0.98,-0.35
-79,81,-993,-1.61,-0.84,-0.35
-72,78,-996,-0.21,-0.91,-0.42
-67,86,-1002,0.98,-0.98,-0.49
-69,96,-1001,0.63,-0.91,-0.42
-65,98,-994,-1.05,-0.84,-0.49
-63,97,-988,-3.08,-0.63,-0.63
-61,93,-983,-3.92,-0.49,-0.84
-62,88,-985,-3.78,-0.63,-0.84
-62,95,-997,-2.94,-0.84,-0.98
-62,105,-1008,-2.87,-0.7,-0.91
-68,105,-1004,-3.92,-0.14,-0.98
-71,104,-992,-5.04,0.42,-1.26
-72,106,-985,-4.69,0.56,-1.47
-66,111,-990,-3.36,0.35,-1.47
-66,122,-996,-2.24,0.07,-1.33
-70,132,-1001,-2.24,-0.28,-1.19
-69,138,-1001,-3.64,-0.28,-1.05
-67,137,-996,-5.32,-0.21,-1.12
-65,132,-991,-5.95,-0.07,-1.26
-65,126,-993,-5.25,-0.28,-1.19
-62,119,-998,-3.57,-0.35,-0.91
-58,122,-1003,-1.54,-0.42,-0.77
-61,127,-1001,-0.28,-0.56,-0.56
-70,130,-1002,0.28,-0.84,-0.56
-72,133,-1009,0.28,-1.19,-0.56
-69,127,-1014,-0.28,-1.12,-0.56
-73,119,-1010,-0.91,-0.98,-0.49
-70,115,-1001,-1.05,-0.84,-0.63
-63,113,-999,-0.77,-0.84,-0.77
-59,109,-998,-0.56,-0.84,-0.84
-66,108,-995,-0.56,-0.7,-0.91
-71,110,-992,-0.42,-0.84,-0.91
-67,116,-992,-0.56,-0.98,-0.91
-67,111,-993,-0.91,-0.91,-0.98
-68,106,-998,-1.05,-0.84,-1.05
-68,108,-1004,-0.98,-0.84,-1.05
-65,108,-1007,-0.84,-0.63,-0.98
-66,111,-998,-1.19,-0.28,-1.12
-70,114,-986,-1.54,-0.14,-1.19
-78,115,-979,-1.68,-0.28,-1.19
-81,116,-981,-1.26,-0.63,-1.05
-78,117,-990,-0.49,-0.77,-0.63
-78,120,-990,0.14,-0.49,-0.42
-82,125,-987,0.56,-0.28,-0.35
-78,126,-983,0.35,0.0,-0.28
-80,120,-978,0.35,0.21,-0.28
-78,114,-983,1.05,0.21,-0.07
-76,116,-989,2.24,0.21,0.07
-76,118,-993,2.59,0.21,0.28
-74,118,-996,2.31,0.35,0.35
-68,119,-997,1.96,0.28,0.21
-69,118,-1002,1.54,0.07,0.35
-68,112,-1012,1.61,-0.28,0.56
-66,102,-1025,1.89,-0.49,0.63
-67,100,-1029,2.17,-0.42,0.63
-68,98,-1025,1.82,-0.42,0.42
-69,98,-1009,1.26,-0.42,0.07
-71,96,-1002,0.7,-0.56,-0.28
-64,100,-1005,0.42,-0.98,-0.56
-63,110,-1007,0.14,-1.33,-0.63
-68,118,-1009,-0.77,-1.61,-0.42
-68,117,-1006,-2.45,-1.54,-0.35
-71,111,-995,-3.85,-1.33,-0.42
-71,105,-986,-3.78,-1.33,-0.56
-65,105,-983,-2.66,-1.26,-0.63
-69,111,-984,-1.26,-1.4,-0.63
-72,122,-990,0.0,-1.47,-0.49
-68,131,-998,0.49,-1.47,-0.14
-66,134,-1002,0.28,-1.12,0.14
-70,131,-998,-0.35,-0.63,0.21
-69,120,-993,-0.35,-0.49,0.21
-64,114,-987,0.49,-0.35,0.21
-65,115,-987,2.1,-0.56,0.28
-66,119,-995,3.36,-0.7,0.35
-68,128,-1001,3.85,-0.77,0.49
-72,129,-1003,3.01,-0.77,0.63
-72,134,-1001,2.03,-0.7,0.56
-73,129,-996,0.77,-0.63,0.49
-74,122,-989,-0.49,-0.56,0.49
-77,120,-985,-0.49,-0.77,0.42
-73,127,-992,0.07,-1.26,0.49
-71,143,-1004,0.14,-1.82,0.7
-69,153,-1022,-1.4,-2.31,0.98
-65,151,-1035,-4.55,-2.38,1.12
-68,129,-1030,-7.7,-2.17,1.4
-79,98,-1009,-9.94,-1.82,1.54
-84,70,-989,-9.52,-1.75,1.4
-81,47,-972,-7.28,-1.47,1.19
-75,43,-958,-4.41,-1.05,0.84
-68,55,-946,-2.31,-0.84,0.56
-62,72,-943,-2.03,-0.7,0.28
-56,82,-950,-3.5,-0.28,0.14
-61,80,-959,-5.81,0.56,0.14
-68,68,-962,-7.49,1.4,0.0
-73,68,-966,-7.42,1.89,-0.42
-75,81,-982,-5.74,2.03,-0.63
-71,96,-994,-3.99,2.03,-0.91
-73,124,-1013,-3.43,1.61,-1.12
-69,148,-1040,-4.27,1.12,-1.33
-62,162,-1060,-6.23,1.05,-1.54
-64,168,-1056,-8.82,1.19,-1.68
-69,164,-1032,-11.13,1.19,-1.82
-70,163,-1009,-11.48,0.7,-1.96
-58,164,-1002,-9.8,-0.28,-1.96
-49,174,-1009,-7.42,-1.12,-1.47
-46,181,-1015,-5.74,-1.82,-1.12
-47,185,-1011,-5.11,-1.75,-0.7
-57,174,-993,-5.11,-1.26,-0.42
-65,166,-975,-4.06,-0.98,-0.35
-69,161,-962,-1.47,-0.84,-0.14
-75,154,-963,1.33,-1.12,0.28
-75,158,-979,3.64,-1.54,0.49
-74,165,-995,4.34,-1.61,0.63
-75,168,-994,2.87,-1.26,0.63
-77,165,-983,0.42,-0.91,0.49
-76,154,-977,-1.12,-0.84,0.28
-72,136,-983,-0.84,-0.98,0.35
-75,127,-991,1.19,-1.05,0.56
-76,129,-1001,3.5,-1.19,0.84
-71,137,-1014,4.41,-1.33,0.84
-74,136,-1024,4.06,-1.33,0.7
-74,127,-1026,2.94,-1.12,0.42
-76,115,-1016,2.31,-0.77,0.07
-80,105,-1001,2.8,-0.7,-0.21
-78,108,-991,3.99,-0.98,-0.49
-77,117,-988,4.97,-1.61,-0.49
-79,127,-992,4.55,-2.1,-0.42
-79,135,-996,2.66,-2.24,-0.49
-77,139,-998,-0.14,-2.17,-0.7
-78,132,-995,-2.87,-1.89,-0.84
-77,121,-987,-4.13,-1.4,-0.98
-75,113,-973,-4.06,-0.98,-1.12
-74,116,-969,-2.31,-1.19,-1.12
-71,124,-983,-0.14,-1.68,-0.91
-70,136,-1005,1.26,-2.17,-0.84
-74,150,-1019,0.77,-2.24,-0.77
-76,153,-1022,-0.63,-2.1,-0.84
-77,147,-1014,-1.96,-1.89,-0.84
-78,136,-1005,-2.1,-2.03,-0.91
-76,129,-1000,-0.98,-2.31,-1.05
-74,137,-1002,0.77,-3.01,-0.98
-70,144,-1008,1.4,-3.29,-0.77
-69,150,-1007,0.49,-3.15,-0.77
-74,150,-995,-1.26,-2.87,-0.77
-75,142,-975,-2.8,-2.52,-0.84
-75,127,-961,-2.94,-2.38,-0.77
-73,119,-963,-0.7,-2.87,-0.56
-69,130,-976,2.45,-3.29,-0.35
-75,141,-992,4.06,-3.5,0.07
-75,145,-1007,3.92,-3.36,0.14
-77,152,-1008,2.8,-2.59,0.07
-83,141,-992,1.54,-1.96,0.14
-78,127,-976,1.33,-1.61,0.0
-76,119,-966,3.15,-1.47,0.14
-76,122,-970,5.95,-2.17,0.21
-72,138,-995,7.91,-3.15,0.35
-66,151,-1021,7.28,-3.36,0.49
-68,144,-1027,3.85,-2.45,0.56
-71,123,-1009,0.42,-1.33,0.07
-68,116,-992,0.35,-0.91,-0.49
-64,115,-994,2.52,-1.4,-0.56
-62,117,-1001,4.34,-1.75,-0.49
-74,121,-1007,4.48,-2.03,-0.42
-84,124,-1010,2.8,-1.96,-0.35
-82,128,-997,0.35,-1.4,-0.63
-86,116,-970,-1.89,-0.98,-0.7
-88,101,-960,-2.52,-1.05,-1.05
-76,106,-968,-0.28,-1.68,-1.12
-62,122,-984,1.33,-1.96,-0.63
-63,134,-996,0.77,-1.89,-0.21
-68,140,-991,-1.61,-1.4,-0.14
-71,130,-983,-4.62,-0.84,-0.07
-75,110,-980,-5.67,-0.56,-0.14
-74,97,-980,-3.85,-0.21,-0.14
-80,94,-983,-0.77,0.0,-0.07
-83,107,-994,1.96,-0.14,0.07
-80,129,-993,2.8,0.07,0.07
-85,135,-989,1.54,0.14,0.07
-88,133,-994,-0.14,-0.14,-0.21
-87,130,-1003,-0.77,-0.28,-0.42
-85,133,-1014,-0.98,-0.77,-0.28
-84,130,-1030,-1.05,-1.19,-0.14
-87,128,-1033,-1.19,-1.33,0.0
-89,127,-1025,-1.33,-1.26,-0.07
-86,124,-1017,-0.84,-1.12,-0.28
-86,120,-1007,0.35,-1.05,-0.42
-87,123,-989,1.05,-0.98,-0.7
-91,125,-969,0.84,-0.77,-0.77
-94,129,-952,0.42,-0.63,-0.98
-94,136,-946,0.56,-0.77,-0.91
-88,144,-959,0.77,-1.05,-0.35
-88,145,-973,0.42,-0.98,0.14
-91,142,-979,-0.14,-0.63,0.49
-88,136,-990,-0.07,-0.21,0.49
-82,129,-999,0.77,0.07,0.35
-83,130,-1001,2.1,0.21,0.14
-81,139,-999,3.15,0.14,0.0
-74,145,-1001,3.29,-0.07,0.07
-73,147,-1009,2.66,-0.35,0.28
-74,135,-1015,1.19,-0.49,0.35
-76,120,-1011,-0.21,-0.21,0.35
-76,106,-1000,-1.26,0.14,0.21
-78,95,-991,-0.98,0.14,0.0
-76,95,-990,0.7,0.07,-0.21
-71,107,-985,2.24,0.07,-0.35
-75,124,-982,2.66,-0.07,-0.21
-80,138,-986,1.75,-0.28,-0.28
-80,145,-994,0.0,-0.35,-0.14
-81,134,-996,-2.17,0.0,0.14
-85,124,-993,-2.8,0.35,0.0
-80,120,-984,-2.03,0.77,-0.07
-81,119,-976,-0.77,0.91,-0.07
-80,115,-975,0.84,0.77,-0.07
-81,123,-984,2.73,0.49,0.07
-76,131,-1000,4.06,0.07,0.42
-73,141,-1012,3.92,-0.07,0.77
-77,140,-1008,2.38,0.14,0.84
-80,130,-1000,0.49,0.28,0.7
-79,120,-995,-0.14,0.21,0.49
-72,117,-1000,0.98,-0.07,0.63
-65,116,-1007,2.31,-0.21,0.7
-67,119,-1008,3.08,-0.21,0.63
-70,125,-1002,2.52,0.07,0.63
-66,121,-996,1.05,0.28,0.49
-66,111,-991,-0.07,0.28,0.28
-69,104,-988,-0.07,0.14,0.07
-68,102,-992,-0.07,-0.14,0.07
-70,107,-998,0.21,-0.35,-0.14
