acc_x[mg],acc_y[mg],acc_z[mg],gyro_x[dps],gyro_y[dps],gyro_z[dps]
-59,-131,-1000,-5.67,-0.42,-2.66
-70,-125,-1005,-4.9,-0.49,-2.59
-73,-120,-1013,-4.06,-1.05,-2.59
-77,-112,-1020,-3.78,-1.68,-2.45
-84,-119,-1020,-4.62,-2.1,-2.17
-82,-129,-1011,-5.04,-2.24,-2.1
-76,-142,-993,-4.27,-2.1,-1.96
-69,-152,-984,-2.38,-1.61,-1.96
-57,-151,-976,0.42,-1.19,-1.68
-54,-145,-984,2.87,-0.77,-1.33
-55,-139,-992,4.55,-0.42,-1.05
-69,-134,-1001,4.55,-0.42,-0.84
-81,-135,-1006,3.57,-0.56,-0.84
-82,-134,-1001,1.96,-0.35,-0.91
-78,-140,-990,0.7,-0.07,-0.63
-66,-153,-983,0.77,0.35,-0.35
-53,-166,-968,2.1,0.91,0.28
-59,-177,-965,4.2,1.68,0.77
-65,-174,-973,7.49,2.31,0.84
-60,-159,-979,9.59,3.01,1.26
-61,-147,-971,9.24,4.13,1.47
-65,-150,-968,7.49,4.62,1.54
-62,-158,-985,5.67,4.55,1.61
-59,-161,-1000,3.57,4.62,1.4
-53,-171,-1010,1.47,4.62,1.26
-45,-187,-1013,0.28,4.48,1.26
-42,-198,-1006,0.56,4.27,1.26
-40,-194,-995,2.24,4.06,1.33
-44,-190,-992,3.64,3.57,1.54
-56,-185,-990,4.06,3.29,1.61
-60,-181,-988,3.71,3.29,1.4
-53,-165,-987,2.87,3.22,1.05
-42,-152,-977,0.84,3.36,0.91
-38,-151,-968,-2.38,3.36,0.77
-45,-158,-977,-5.32,3.22,0.35
-45,-158,-994,-7.07,3.08,-0.07
-35,-155,-1007,-8.33,2.8,-0.28
-39,-160,-1016,-9.8,2.17,-0.35
-61,-167,-1020,-9.94,1.33,-0.49
-72,-162,-1027,-8.61,0.49,-0.7
-52,-146,-1020,-7.0,0.21,-0.91
-35,-143,-1007,-6.37,-0.21,-0.63
-42,-150,-1001,-5.6,-1.05,-0.49
-50,-137,-1008,-3.5,-1.75,-0.7
-42,-116,-1018,-2.31,-2.38,-0.7
-35,-111,-1026,-3.22,-2.8,-0.56
-44,-121,-1019,-4.83,-3.36,-0.63
-65,-130,-1007,-5.74,-3.99,-0.84
-70,-141,-1004,-5.18,-4.48,-1.05
-59,-145,-998,-3.85,-4.55,-1.12
-56,-148,-988,-2.31,-4.41,-0.98
-60,-141,-983,-0.7,-4.2,-0.77
-54,-128,-978,1.19,-3.78,-0.56
-53,-113,-982,2.1,-3.57,-0.35
-65,-108,-987,1.82,-3.29,-0.14
-80,-111,-997,0.91,-3.01,-0.07
-77,-121,-998,0.0,-2.59,-0.07
-71,-134,-990,-0.28,-2.03,-0.14
-63,-146,-987,0.7,-1.68,-0.07
-52,-151,-983,2.59,-1.4,0.21
-55,-150,-982,4.55,-1.19,0.63
-71,-150,-983,5.32,-0.98,1.05
-82,-144,-992,5.53,-0.63,1.26
-62,-135,-998,4.76,-0.14,1.47
-44,-147,-989,1.96,0.49,1.89
-43,-169,-984,0.21,0.84,1.75
-39,-181,-992,0.56,0.49,1.54
-40,-180,-1004,1.12,0.42,1.47
-47,-184,-998,1.12,0.56,1.47
-59,-187,-996,1.05,0.21,1.4
-71,-175,-993,1.61,0.0,1.26
-68,-146,-988,1.68,0.28,1.12
-46,-130,-978,-0.21,0.84,1.47
-35,-140,-974,-2.59,1.61,1.89
-24,-156,-981,-2.94,2.38,2.03
-21,-161,-986,-1.33,3.08,2.1
-41,-163,-984,-0.07,3.57,2.45
-69,-165,-975,0.21,3.92,2.59
-74,-159,-985,0.42,4.2,2.17
-63,-153,-988,-0.49,4.41,1.96
-70,-153,-980,-2.45,5.18,2.1
-57,-151,-979,-3.29,5.81,2.1
-28,-145,-986,-3.22,6.23,2.17
-26,-143,-982,-3.78,6.51,2.31
-42,-150,-989,-4.97,6.44,2.45
-37,-156,-1003,-5.32,6.16,1.89
-36,-153,-1010,-5.6,5.81,1.05
-50,-156,-1003,-6.65,5.18,0.77
-69,-163,-1001,-7.28,4.13,0.49
-56,-153,-1011,-6.44,3.29,-0.07
-24,-138,-1026,-6.02,2.66,-0.63
-8,-130,-1034,-6.72,1.89,-0.84
-13,-127,-1036,-7.28,0.84,-1.19
-32,-122,-1029,-7.56,-0.21,-1.4
-53,-114,-1025,-7.7,-1.19,-1.68
-57,-111,-1021,-7.77,-1.75,-1.89
-56,-113,-1004,-7.77,-1.82,-2.03
-58,-123,-980,-6.72,-1.61,-1.96
-66,-131,-968,-4.62,-1.54,-1.61
-62,-116,-968,-1.19,-1.05,-1.54
-33,-91,-968,0.98,-0.07,-1.33
-9,-74,-991,0.98,0.63,-0.98
-2,-79,-1007,0.14,0.56,-0.84
-25,-88,-1017,-0.91,0.14,-0.77
-45,-95,-1034,-1.05,-0.63,-0.91
-51,-113,-1042,-1.26,-1.68,-0.91
-68,-135,-1037,-1.26,-2.38,-0.84
-63,-152,-1015,0.35,-2.45,-1.05
-36,-152,-995,4.06,-2.45,-0.98
-18,-147,-982,8.33,-2.59,-0.28
-9,-139,-997,11.97,-2.73,0.21
-10,-122,-1009,13.86,-2.73,0.49
-21,-116,-1010,12.88,-2.45,0.7
-42,-133,-998,10.01,-2.24,0.63
-62,-150,-981,7.7,-1.96,0.07
-63,-160,-966,6.79,-1.68,-0.49
-58,-162,-965,6.09,-1.47,-0.7
-48,-163,-977,5.81,-1.33,-0.63
-37,-167,-989,5.39,-1.19,-0.35
-32,-163,-994,4.83,-0.98,-0.28
-38,-159,-990,4.06,-0.84,-0.35
-45,-155,-994,3.01,-0.91,-0.56
-55,-152,-993,1.47,-0.91,-0.77
-69,-150,-992,-0.42,-0.84,-0.84
-69,-161,-988,-1.89,-0.63,-0.84
-57,-165,-988,-2.1,-0.35,-0.98
-41,-158,-985,-0.84,0.07,-0.98
-21,-141,-983,0.42,0.35,-0.77
-15,-132,-986,0.42,0.56,-0.49
-27,-133,-1002,-0.42,0.42,-0.35
-42,-138,-1010,-1.33,0.21,-0.28
-58,-140,-1012,-2.24,0.14,-0.35
-57,-144,-1011,-2.73,-0.14,-0.42
-44,-149,-1004,-2.8,-0.14,-0.42
-46,-161,-986,-2.66,-0.14,-0.28
-55,-166,-976,-1.26,0.14,-0.28
-47,-158,-976,1.19,0.56,-0.14
-34,-147,-978,2.52,1.33,0.28
-28,-147,-987,2.8,1.82,0.56
-27,-143,-993,2.59,2.17,0.56
-39,-139,-986,1.19,2.24,0.49
-52,-147,-992,-1.4,1.89,0.21
-54,-152,-1001,-3.43,1.68,-0.28
-48,-157,-998,-5.18,1.61,-0.42
-41,-166,-993,-6.16,1.68,-0.49
-22,-164,-995,-5.18,1.54,-0.56
-6,-160,-1009,-3.78,1.05,-0.35
-8,-152,-1017,-2.73,0.7,-0.35
-27,-142,-1023,-2.45,0.0,-0.28
-47,-140,-1022,-3.15,-0.7,-0.21
-62,-140,-1015,-4.27,-1.4,-0.49
-67,-139,-1005,-4.9,-1.89,-0.84
-58,-136,-996,-5.11,-1.96,-1.05
-33,-128,-982,-4.13,-1.54,-0.98
-2,-119,-973,-2.38,-0.91,-0.63
8,-116,-986,-0.28,-0.49,-0.07
-7,-119,-1000,1.54,-0.49,0.42
-45,-115,-1007,2.31,-0.42,0.7
-69,-111,-1009,1.89,-0.56,0.56
-72,-116,-1008,0.56,-0.77,0.49
-65,-127,-999,-0.28,-0.77,0.35
-48,-138,-997,0.0,-0.77,0.49
-15,-154,-995,1.75,-0.49,0.91
-5,-167,-991,4.2,-0.35,1.33
-18,-169,-1002,7.07,-0.77,1.47
-24,-150,-1009,8.82,-1.12,1.33
-39,-134,-1007,7.0,-1.33,1.26
-49,-138,-1003,3.36,-1.54,0.91
-46,-149,-996,0.28,-1.89,0.49
-45,-161,-990,-1.61,-2.03,0.35
-44,-177,-986,-2.03,-2.03,0.21
-43,-182,-987,-0.84,-1.89,0.28
-38,-170,-981,0.98,-1.47,0.35
-28,-155,-985,2.17,-1.05,0.49
-18,-142,-987,2.17,-0.77,0.49
-24,-134,-991,1.05,-0.84,0.35
-43,-133,-1004,-0.77,-1.19,0.0
-55,-129,-1010,-2.38,-1.47,-0.42
-65,-131,-1002,-4.13,-1.47,-0.49
-73,-141,-996,-5.04,-1.33,-0.42
-60,-139,-989,-3.5,-0.98,-0.56
-30,-127,-993,-1.19,-0.7,-0.35
-16,-124,-997,0.35,-0.42,0.21
-26,-131,-991,1.54,-0.14,0.49
-45,-131,-995,2.8,-0.07,0.7
-54,-126,-999,3.71,0.21,0.63
-53,-124,-997,2.87,0.56,0.7
-54,-138,-987,0.77,1.05,0.77
-44,-152,-983,0.07,1.33,0.35
-23,-159,-981,0.63,1.54,0.21
-23,-169,-979,0.84,1.82,0.35
-33,-176,-983,1.82,2.38,0.21
-31,-161,-987,3.36,3.01,0.07
-41,-150,-986,3.08,3.57,0.21
-56,-146,-981,1.54,4.13,0.21
-53,-142,-988,0.42,4.27,-0.14
-45,-140,-990,-1.12,4.41,-0.35
-56,-151,-983,-2.87,4.55,-0.49
-72,-158,-980,-3.78,4.34,-0.63
-50,-145,-982,-3.5,4.48,-1.05
-15,-131,-978,-4.13,4.69,-1.26
-1,-131,-995,-5.39,4.48,-0.98
-6,-144,-1017,-5.67,3.78,-0.84
-25,-145,-1034,-5.18,3.01,-0.84
-44,-146,-1031,-5.67,2.24,-0.98
-48,-145,-1028,-6.79,1.61,-1.26
-20,-139,-1018,-6.93,1.33,-1.61
8,-137,-1020,-6.58,0.77,-1.4
17,-146,-1032,-5.32,0.0,-0.91
12,-155,-1037,-2.87,-0.77,-0.7
-7,-151,-1034,-0.28,-1.47,-0.56
-21,-144,-1024,1.75,-1.89,-0.56
-33,-146,-1013,2.1,-2.38,-0.49
-61,-152,-985,1.33,-2.45,-0.7
-73,-152,-953,0.56,-1.89,-0.84
-34,-142,-946,0.91,-1.05,-1.19
21,-131,-954,1.54,-0.21,-1.26
38,-123,-977,1.68,0.28,-0.91
15,-121,-1000,1.47,0.14,-0.49
-29,-117,-1017,0.56,-0.28,-0.49
-68,-109,-1022,-1.26,-0.49,-0.84
-89,-112,-1007,-3.64,-0.56,-0.98
-92,-127,-989,-5.11,-0.21,-0.98
-66,-137,-978,-3.5,0.98,-1.12
-19,-138,-966,0.56,2.1,-0.7
15,-142,-973,5.04,3.01,0.28
18,-141,-982,9.1,3.57,0.7
-3,-125,-995,11.55,3.57,0.98
-27,-113,-1011,10.36,3.57,0.91
-52,-114,-1010,6.16,3.78,0.35
-76,-130,-995,0.98,3.99,-0.28
-77,-149,-986,-1.89,4.48,-0.84
-44,-157,-974,-1.26,5.39,-1.05
1,-157,-964,1.54,6.23,-0.49
24,-156,-966,4.9,6.79,0.14
21,-148,-985,8.12,6.65,0.7
2,-134,-1004,9.31,6.58,0.84
-29,-120,-1014,7.28,6.58,0.56
-60,-125,-1013,2.66,6.16,0.21
-79,-136,-1003,-2.03,5.95,-0.28
-56,-141,-996,-4.76,6.09,-0.84
0,-140,-983,-5.95,6.44,-0.84
43,-151,-977,-6.02,6.86,-0.07
58,-173,-987,-3.85,7.0,0.7
53,-183,-1001,-0.07,6.65,0.84
22,-168,-1014,2.66,6.16,0.35
-12,-152,-1028,2.66,5.53,0.0
-31,-142,-1035,0.7,4.9,-0.49
-29,-139,-1030,-1.61,4.41,-0.91
-10,-140,-1023,-2.52,3.78,-1.12
10,-141,-1015,-1.75,3.22,-0.98
17,-144,-1006,0.14,2.66,-0.49
13,-144,-995,2.24,2.31,0.14
9,-142,-985,4.06,2.38,0.49
3,-139,-982,5.11,2.66,0.49
-3,-137,-981,5.25,2.8,0.49
-9,-138,-985,4.34,3.01,0.49
-7,-141,-988,2.94,3.36,0.35
-1,-141,-993,1.82,3.43,0.28
8,-140,-1002,0.98,3.22,0.35
15,-142,-1010,0.07,3.08,0.63
20,-147,-1014,-0.14,2.8,0.77
25,-152,-1012,0.07,2.31,0.91
15,-157,-1006,0.84,1.82,0.91
4,-153,-1005,2.24,1.33,0.77
-5,-148,-1001,2.73,0.77,0.91
-15,-143,-997,2.31,0.77,0.98
-6,-136,-983,1.61,1.26,1.05
10,-134,-977,0.28,1.89,1.19
27,-140,-979,-0.7,2.38,1.47
32,-153,-983,-1.05,3.08,1.75
25,-155,-986,-0.42,3.71,1.75
13,-159,-981,0.49,4.2,1.82
3,-165,-994,0.84,4.27,1.75
-5,-161,-1004,1.26,4.13,1.61
-19,-161,-1007,0.49,3.85,1.4
-20,-153,-1013,-0.35,3.36,1.05
-3,-141,-1019,-1.33,3.08,0.84
25,-134,-1011,-3.08,2.87,0.98
39,-143,-1003,-4.9,2.52,1.4
40,-165,-1000,-5.18,1.96,1.82
34,-180,-1006,-3.92,1.4,1.61
34,-182,-1010,-1.47,0.98,1.26
27,-181,-999,0.7,0.63,1.12
12,-179,-997,2.31,0.0,0.84
-1,-173,-998,3.57,-0.77,0.63
-3,-157,-1009,3.99,-1.26,0.35
9,-144,-1010,3.15,-1.19,0.21
24,-134,-1001,1.33,-1.05,0.14
30,-133,-991,-0.28,-1.05,0.28
32,-137,-987,-1.4,-1.05,0.35
29,-143,-988,-1.75,-0.98,0.35
26,-148,-994,-1.61,-0.84,0.42
23,-155,-997,-0.77,-0.49,0.35
21,-155,-997,0.56,-0.28,0.21
20,-157,-998,2.38,-0.21,0.21
17,-155,-1001,4.27,-0.21,0.28
7,-152,-1000,5.88,-0.07,0.42
0,-151,-1001,6.93,0.0,0.63
-3,-147,-997,7.28,0.07,0.63
-7,-142,-1000,6.72,-0.07,0.49
-2,-134,-1001,5.32,0.0,0.56
3,-134,-995,3.29,0.35,0.56
9,-138,-985,1.26,0.42,0.7
15,-146,-982,-0.07,0.42,1.05
17,-157,-984,-0.35,0.56,1.26
19,-167,-987,0.14,0.77,1.54
16,-182,-988,1.05,1.19,1.75
14,-190,-989,2.94,1.47,1.68
16,-191,-989,5.18,1.47,1.61
21,-186,-996,6.65,1.33,1.61
31,-184,-998,6.93,1.33,1.68
38,-186,-994,6.3,1.47,1.54
38,-190,-990,5.32,1.47,1.26
37,-190,-983,4.41,1.19,0.98
35,-191,-982,3.08,0.77,0.7
33,-190,-984,1.33,0.42,0.35
25,-188,-983,-0.91,0.21,-0.07
20,-187,-980,-3.29,0.0,-0.63
14,-185,-985,-5.67,-0.28,-0.91
19,-181,-992,-7.35,-0.49,-1.26
26,-175,-996,-8.68,-0.63,-1.47
33,-171,-1002,-9.87,-0.84,-1.61
40,-171,-1001,-10.71,-1.05,-1.68
42,-169,-999,-10.5,-1.33,-1.82
38,-165,-999,-9.73,-1.61,-1.82
31,-161,-996,-8.61,-1.68,-1.96
19,-155,-994,-7.42,-1.75,-1.89
8,-151,-994,-6.3,-1.82,-1.68
4,-146,-994,-5.11,-1.89,-1.61
-6,-143,-994,-4.34,-1.82,-1.61
-11,-134,-1000,-3.71,-1.75,-1.47
-5,-127,-999,-3.71,-1.47,-1.33
1,-127,-996,-4.34,-1.19,-1.19
7,-130,-997,-4.97,-1.12,-1.05
11,-132,-999,-4.9,-1.12,-0.98
18,-132,-998,-4.62,-1.05,-0.77
23,-135,-993,-4.2,-0.84,-0.49
27,-138,-992,-3.36,-0.91,-0.42
26,-139,-991,-2.17,-0.98,-0.42
23,-140,-998,-0.98,-1.05,-0.42
23,-139,-1004,0.14,-0.77,-0.35
23,-137,-998,1.4,-0.28,-0.21
21,-141,-990,2.66,0.07,0.07
23,-141,-988,3.85,0.07,0.14
26,-138,-989,4.69,0.07,0.14
29,-138,-991,4.97,0.07,0.0
27,-136,-994,4.76,0.07,-0.14
29,-139,-994,4.55,0.07,-0.28
31,-141,-995,4.62,0.0,-0.42
28,-140,-993,4.76,0.07,-0.35
19,-143,-992,4.9,0.21,-0.21
6,-145,-989,5.46,0.28,-0.28
-5,-139,-992,6.23,0.35,-0.07
0,-138,-998,7.07,0.35,0.14
11,-132,-1007,7.35,0.35,0.42
18,-135,-1008,6.86,0.56,0.98
24,-143,-1002,6.02,0.84,1.26
32,-151,-992,5.67,0.98,1.47
36,-162,-986,5.39,0.98,1.68
33,-174,-987,5.32,0.7,1.75
28,-180,-991,5.67,0.42,1.61
23,-185,-996,5.74,0.35,1.4
16,-187,-1000,5.53,0.35,1.12
11,-187,-1002,5.25,0.21,1.05
15,-186,-1002,4.41,0.35,0.84
20,-181,-993,3.36,0.28,0.77
22,-185,-987,1.89,0.21,0.7
24,-188,-988,0.63,-0.07,0.49
28,-189,-991,-0.21,-0.35,0.21
32,-184,-996,-0.84,-0.49,-0.21
32,-180,-995,-1.33,-0.56,-0.35
25,-176,-995,-1.54,-0.7,-0.56
19,-169,-997,-1.33,-0.77,-0.56
18,-161,-994,-1.05,-0.63,-0.49
21,-155,-990,-0.7,-0.49,-0.35
22,-151,-986,-0.28,-0.35,-0.07
22,-147,-988,0.35,-0.28,0.28
22,-147,-988,1.05,-0.14,0.56
20,-145,-992,1.61,-0.14,0.77
17,-141,-989,1.96,-0.21,1.05
17,-141,-995,1.61,-0.14,1.19
19,-141,-996,1.4,0.14,1.26
19,-142,-993,0.98,0.49,1.61
19,-149,-998,0.63,0.42,2.03
29,-149,-999,1.12,0.7,2.03
29,-153,-992,1.19,1.05,2.31
32,-151,-1000,1.33,0.84,2.45
37,-149,-996,2.1,0.84,2.38
36,-159,-994,1.75,0.98,2.45
36,-172,-992,1.61,1.19,2.24
31,-182,-995,2.8,1.26,2.1
29,-189,-991,4.62,1.19,2.1
20,-193,-987,6.3,1.19,1.89
16,-192,-990,7.63,0.77,1.68
12,-194,-998,8.12,0.77,1.4
6,-184,-999,7.77,0.84,0.98
4,-177,-996,6.58,1.05,0.98
12,-175,-993,4.69,0.98,0.98
27,-178,-987,2.8,0.98,0.98
37,-186,-989,1.12,0.98,0.98
43,-190,-986,0.21,0.7,0.91
40,-198,-989,-0.28,0.35,0.77
41,-200,-997,-0.49,-0.07,0.56
31,-200,-993,-0.7,-0.07,0.42
17,-195,-992,-0.84,-0.14,0.21
13,-188,-991,-0.98,-0.07,0.21
23,-186,-987,-2.31,0.14,0.28
32,-182,-987,-3.78,0.28,0.21
40,-178,-986,-5.18,0.28,0.42
45,-175,-990,-7.07,0.28,0.56
47,-172,-990,-9.52,0.28,0.7
47,-170,-988,-12.32,0.35,0.77
41,-171,-987,-15.4,0.14,0.77
29,-174,-991,-18.48,-0.07,0.84
25,-175,-995,-21.14,-0.14,0.7
19,-172,-997,-23.1,0.07,0.42
15,-170,-995,-24.43,0.0,0.07
20,-165,-1005,-24.99,-0.49,-0.14
33,-160,-1006,-25.13,-0.56,-0.35
38,-162,-1008,-25.69,-0.42,-0.49
42,-168,-1004,-25.06,-0.63,-0.56
40,-179,-1001,-23.17,-0.77,-0.91
36,-176,-1000,-20.51,-0.77,-1.26
32,-175,-996,-17.29,-0.7,-1.54
24,-165,-993,-14.14,-0.77,-1.96
10,-144,-998,-11.69,-1.05,-2.17
9,-119,-1005,-10.22,-1.12,-2.24
19,-105,-1008,-9.8,-0.98,-2.24
30,-95,-1006,-10.29,-0.84,-2.1
36,-90,-1001,-10.92,-0.7,-2.03
39,-93,-991,-11.2,-0.7,-2.03
41,-91,-994,-10.92,-0.91,-2.1
44,-91,-992,-9.73,-0.91,-2.03
43,-88,-993,-7.77,-0.77,-1.89
44,-85,-993,-4.9,-0.63,-1.4
45,-83,-992,-2.1,-0.56,-1.12
43,-81,-996,0.28,-0.42,-0.91
42,-76,-995,2.59,-0.07,-0.77
36,-76,-991,4.13,0.14,-0.63
33,-77,-992,4.55,0.28,-0.49
30,-83,-994,4.13,0.42,-0.42
27,-90,-996,3.08,0.49,-0.49
25,-98,-1001,1.89,0.49,-0.77
24,-102,-1002,0.42,0.42,-1.26
19,-102,-1005,-1.33,0.07,-1.61
19,-104,-1010,-3.01,-0.49,-1.96
21,-117,-1021,-4.62,-0.7,-2.24
21,-123,-1023,-5.32,-0.56,-2.59
17,-125,-1015,-4.83,-0.63,-2.87
20,-122,-1008,-3.57,-0.91,-2.94
29,-114,-1009,-2.1,-1.12,-3.08
33,-110,-1002,-0.91,-0.98,-3.08
27,-103,-993,0.42,-0.84,-3.15
20,-95,-987,1.61,-0.84,-3.01
17,-91,-986,2.59,-0.7,-2.73
20,-82,-984,3.29,-0.42,-2.66
21,-77,-986,3.85,-0.21,-2.31
22,-76,-991,4.2,-0.14,-1.96
27,-70,-1003,5.11,-0.14,-1.75
29,-65,-1002,5.95,-0.07,-1.33
24,-63,-1005,6.3,-0.35,-0.84
21,-69,-1015,7.14,-0.56,-0.21
18,-72,-1015,8.12,-0.49,0.49
19,-81,-1016,8.33,-0.28,1.19
26,-87,-1007,8.4,-0.07,1.75
35,-97,-996,8.26,-0.14,2.59
44,-108,-997,7.7,-0.21,3.08
53,-116,-995,7.42,-0.14,3.29
56,-127,-993,7.14,-0.07,3.29
51,-139,-992,7.56,0.0,3.5
45,-154,-994,8.54,0.0,3.99
49,-165,-995,10.22,0.21,4.27
49,-175,-993,11.62,0.56,4.48
51,-169,-993,12.46,0.77,4.41
52,-170,-986,12.18,1.05,4.69
44,-177,-982,10.57,1.19,4.69
38,-181,-986,8.47,1.12,4.55
39,-181,-990,6.58,0.98,4.13
36,-186,-999,4.27,0.56,3.92
43,-187,-1007,1.96,0.14,3.36
43,-194,-1014,-0.14,-0.21,2.94
37,-195,-1015,-1.33,-0.77,2.66
31,-195,-1010,-1.89,-1.26,2.24
28,-194,-1010,-2.73,-1.61,1.89
27,-179,-1002,-3.15,-1.89,1.47
21,-174,-996,-4.2,-2.03,1.12
20,-158,-997,-5.53,-2.38,0.7
18,-147,-999,-7.0,-2.52,0.42
18,-139,-1000,-8.82,-2.38,0.14
15,-137,-1002,-10.57,-1.96,0.0
14,-130,-997,-11.06,-1.68,-0.35
12,-129,-996,-11.13,-1.68,-0.42
13,-119,-1003,-10.08,-1.75,-0.49
7,-112,-1002,-7.91,-1.54,-0.21
1,-105,-1006,-5.81,-1.4,0.14
5,-93,-1007,-3.01,-1.19,0.63
15,-81,-1004,-0.49,-0.84,1.12
27,-74,-996,1.47,-0.35,1.75
28,-77,-987,3.36,0.07,2.45
21,-82,-983,5.53,0.49,2.87
19,-80,-982,7.49,0.98,3.22
29,-87,-988,8.61,1.47,3.57
30,-93,-989,9.59,1.89,3.78
26,-99,-993,10.85,2.03,3.92
28,-103,-1001,12.11,2.1,4.06
38,-104,-1002,12.88,2.38,4.13
48,-118,-1001,12.81,2.38,4.13
56,-137,-1004,13.02,2.24,4.06
60,-155,-1007,14.14,1.89,3.71
52,-172,-1003,15.26,1.61,3.15
33,-183,-999,16.17,1.19,2.24
16,-182,-995,16.8,0.91,1.33
9,-184,-999,15.96,0.7,0.7
15,-185,-995,14.56,0.7,-0.14
17,-190,-996,12.81,0.7,-0.84
12,-193,-997,11.83,0.49,-1.4
-4,-192,-990,10.85,0.21,-1.96
-18,-185,-992,9.66,-0.14,-2.45
-12,-182,-1000,8.4,-0.21,-2.73
11,-179,-1008,6.58,-0.07,-2.94
43,-181,-1006,4.34,0.35,-3.01
65,-189,-995,2.52,0.42,-3.15
75,-199,-987,1.33,-0.07,-3.5
81,-196,-985,0.77,-0.42,-4.13
82,-195,-986,0.07,-0.7,-4.48
85,-190,-981,-1.12,-0.63,-4.83
84,-183,-972,-2.17,-0.91,-4.97
85,-179,-970,-2.59,-1.33,-5.04
85,-175,-978,-2.94,-1.75,-5.04
82,-170,-984,-2.73,-1.89,-4.83
72,-168,-987,-2.17,-1.82,-4.55
65,-167,-988,-1.47,-1.68,-4.13
56,-164,-984,-0.98,-1.47,-3.71
51,-165,-979,-0.7,-1.4,-3.36
46,-168,-986,-0.49,-1.33,-2.94
39,-170,-990,0.14,-1.05,-2.59
28,-169,-992,0.49,-0.84,-2.24
24,-164,-996,0.49,-0.77,-1.96
24,-162,-999,-0.21,-0.63,-1.54
25,-163,-1005,-1.61,-0.56,-1.26
32,-166,-1005,-3.08,-0.28,-1.12
37,-168,-999,-4.41,-0.07,-1.12
40,-171,-997,-5.04,-0.28,-1.05
42,-171,-990,-5.04,-0.63,-1.05
36,-167,-995,-5.04,-1.05,-0.91
28,-163,-995,-4.76,-1.47,-0.77
21,-158,-1001,-4.41,-1.82,-0.49
17,-157,-1004,-4.41,-1.96,-0.28
16,-157,-1004,-4.2,-1.75,-0.21
14,-159,-1002,-4.2,-1.54,-0.07
13,-158,-997,-3.78,-1.33,0.07
11,-160,-990,-2.94,-1.05,0.42
9,-159,-985,-1.89,-0.77,0.56
8,-155,-985,-1.05,-0.63,0.84
10,-155,-989,-1.05,-0.42,1.05
16,-154,-994,-1.47,-0.28,1.05
21,-162,-997,-2.8,0.07,1.19
26,-164,-997,-3.71,0.28,1.12
27,-168,-994,-3.85,0.21,1.05
30,-172,-996,-4.27,-0.21,0.91
35,-168,-1003,-4.48,-0.63,0.56
40,-169,-1005,-4.9,-0.77,0.49
40,-169,-1008,-4.97,-0.98,0.49
43,-167,-1004,-4.34,-0.98,0.56
44,-164,-1001,-4.13,-1.05,0.56
47,-158,-997,-4.06,-1.12,0.49
47,-150,-997,-4.13,-1.19,0.35
47,-144,-994,-4.06,-1.05,0.35
45,-138,-989,-4.27,-0.98,0.42
42,-135,-986,-4.62,-0.91,0.42
40,-132,-984,-4.97,-0.91,0.56
39,-135,-985,-5.39,-0.84,0.7
40,-136,-993,-5.32,-0.7,0.7
42,-133,-996,-4.34,-0.49,0.77
40,-134,-995,-3.43,-0.56,0.98
40,-132,-1000,-2.66,-0.63,1.12
40,-128,-1000,-1.61,-0.84,1.33
41,-133,-1004,-0.77,-0.91,1.61
42,-137,-1006,-0.14,-0.91,1.75
41,-143,-1001,0.7,-0.84,1.68
35,-149,-995,1.61,-0.84,1.68
31,-151,-996,3.15,-1.05,1.68
28,-149,-998,4.76,-1.12,1.54
26,-142,-996,5.95,-1.12,1.47
28,-133,-994,6.51,-0.98,1.47
32,-127,-991,6.44,-0.91,1.68
40,-131,-993,5.88,-0.77,1.89
44,-132,-988,5.39,-0.63,1.82
40,-137,-990,4.48,-0.63,1.82
36,-144,-994,3.64,-0.77,1.75
31,-149,-996,2.66,-0.84,1.54
25,-152,-998,1.47,-0.84,1.47
25,-156,-999,0.0,-0.7,1.33
31,-162,-993,-1.61,-0.49,0.91
33,-164,-991,-2.94,-0.49,0.63
40,-167,-995,-3.29,-0.7,0.28
44,-162,-997,-3.36,-0.63,0.07
42,-159,-994,-3.22,-0.63,-0.21
39,-154,-996,-2.73,-0.77,-0.35
35,-146,-998,-1.96,-0.91,-0.35
33,-142,-997,-1.54,-0.98,-0.35
31,-141,-998,-0.91,-0.98,-0.49
31,-136,-1000,-0.21,-0.98,-0.49
29,-133,-994,0.28,-0.84,-0.42
28,-134,-993,0.77,-0.56,-0.42
30,-132,-992,1.82,-0.63,-0.35
34,-127,-997,2.87,-0.49,-0.28
35,-128,-994,3.5,-0.21,-0.07
33,-136,-991,4.2,-0.07,0.07
34,-138,-992,5.6,0.0,0.21
35,-140,-993,6.93,0.07,0.42
37,-147,-994,7.91,0.21,0.63
36,-151,-996,8.89,0.35,0.77
37,-158,-996,9.87,0.49,0.84
38,-160,-997,10.85,0.49,0.84
39,-160,-996,11.69,0.42,0.91
38,-161,-995,12.11,0.42,0.98
35,-166,-991,12.32,0.28,1.05
33,-174,-990,12.53,0.0,1.05
33,-176,-998,12.88,-0.49,0.84
37,-176,-1004,13.02,-0.98,0.91
40,-182,-1010,12.46,-1.19,0.98
39,-187,-1008,12.04,-1.19,0.91
36,-188,-999,11.06,-1.12,0.98
34,-192,-988,9.1,-1.26,0.91
35,-200,-987,6.72,-1.47,0.77
37,-207,-981,4.41,-1.33,0.28
37,-211,-973,2.38,-1.05,-0.14
35,-215,-973,0.56,-0.98,-0.49
38,-212,-977,-0.56,-0.84,-0.84
38,-207,-978,-1.61,-0.7,-1.05
37,-203,-986,-2.87,-0.63,-1.12
40,-198,-989,-3.92,-0.42,-1.26
40,-195,-993,-4.97,-0.35,-1.4
40,-187,-998,-5.39,-0.49,-1.61
38,-184,-1000,-5.53,-0.63,-1.54
36,-183,-1002,-5.46,-0.91,-1.54
32,-173,-999,-4.9,-1.05,-1.61
25,-166,-991,-4.34,-1.19,-1.47
23,-164,-991,-4.06,-1.33,-1.4
28,-157,-992,-3.22,-1.4,-1.33
31,-155,-991,-2.8,-0.98,-1.05
29,-156,-987,-2.17,-0.7,-0.84
28,-156,-986,-0.84,-0.49,-0.56
27,-151,-988,0.49,-0.35,-0.21
31,-152,-987,1.33,-0.14,0.0
31,-155,-992,1.89,-0.07,0.21
33,-159,-998,2.24,-0.07,0.35
31,-162,-991,2.52,0.07,0.49
28,-168,-992,2.8,-0.21,0.7
35,-173,-997,3.43,-0.42,0.84
39,-175,-999,3.85,-0.28,0.91
38,-179,-997,3.64,-0.14,1.05
36,-186,-990,3.57,-0.07,1.05
37,-192,-988,3.85,-0.14,1.05
44,-197,-995,4.13,-0.14,1.05
48,-197,-992,4.27,0.07,0.84
43,-199,-987,3.64,-0.07,0.77
43,-203,-991,3.01,-0.21,0.63
46,-200,-992,2.73,-0.21,0.28
44,-199,-988,1.61,-0.28,0.07
44,-198,-989,0.7,-0.21,-0.07
41,-202,-992,0.21,0.0,-0.07
41,-197,-994,-0.07,-0.14,-0.42
39,-193,-993,-0.21,0.0,-0.42
38,-195,-997,-0.91,0.21,-0.42
41,-192,-993,-1.4,0.28,-0.56
40,-191,-985,-1.68,0.42,-0.7
38,-193,-981,-2.03,0.28,-0.91
39,-190,-984,-1.96,0.14,-0.84
36,-185,-983,-2.45,-0.14,-0.98
31,-175,-980,-3.43,-0.7,-1.05
27,-163,-983,-4.55,-1.33,-1.33
30,-153,-994,-5.18,-1.68,-1.54
33,-152,-1001,-6.23,-1.61,-1.33
32,-157,-999,-7.07,-1.33,-1.19
31,-165,-991,-6.93,-1.12,-0.84
32,-169,-991,-5.6,-1.05,-0.7
38,-165,-993,-3.22,-0.98,-0.56
37,-162,-989,-1.47,-0.63,-0.28
34,-160,-986,0.0,-0.42,-0.07
35,-160,-984,1.26,-0.07,0.21
36,-158,-985,1.96,0.07,0.42
35,-161,-986,2.45,0.14,0.56
37,-165,-992,2.17,0.21,0.63
38,-167,-996,1.82,0.21,0.63
36,-172,-998,1.61,0.07,0.7
36,-177,-1002,1.19,-0.35,0.63
37,-177,-1000,1.05,-0.7,0.56
40,-181,-997,0.14,-0.84,0.63
40,-192,-994,-0.56,-0.98,0.56
39,-196,-990,-0.84,-0.98,0.49
38,-201,-987,-0.91,-0.84,0.28
39,-201,-986,-0.7,-0.77,0.14
40,-194,-984,-0.42,-0.63,0.0
39,-189,-984,-0.35,-0.56,-0.14
36,-179,-986,-0.7,-0.56,-0.21
36,-176,-991,-1.19,-0.63,-0.28
35,-171,-994,-1.96,-0.7,-0.42
34,-171,-998,-2.59,-0.7,-0.42
37,-174,-1002,-2.8,-0.84,-0.35
40,-173,-999,-2.59,-0.98,-0.35
39,-173,-994,-2.31,-0.98,-0.35
41,-172,-991,-1.82,-1.05,-0.35
42,-170,-989,-1.12,-1.05,-0.35
40,-169,-992,-0.56,-1.12,-0.28
39,-171,-996,-0.28,-0.98,-0.21
36,-170,-990,-0.14,-0.63,-0.21
35,-173,-987,-0.21,-0.56,-0.14
35,-174,-986,0.14,-0.63,-0.21
35,-171,-986,0.35,-0.63,-0.21
37,-170,-993,0.07,-0.7,-0.21
39,-170,-992,-0.21,-0.63,-0.28
38,-170,-991,-0.63,-0.63,-0.28
36,-171,-992,-0.63,-0.56,-0.35
38,-173,-996,-0.21,-0.56,-0.21
37,-173,-995,0.0,-0.56,-0.14
35,-173,-993,-0.07,-0.56,-0.14
34,-176,-993,-0.14,-0.77,-0.28
33,-175,-995,-0.28,-0.77,-0.28
30,-171,-992,-0.35,-0.7,-0.28
34,-172,-990,-0.35,-0.63,-0.21
43,-172,-995,-0.14,-0.7,-0.21
46,-173,-995,0.21,-0.63,-0.14
44,-178,-992,0.42,-0.49,-0.14
43,-178,-988,1.19,-0.49,-0.14
42,-176,-989,1.82,-0.56,-0.21
42,-173,-990,2.17,-0.56,-0.07
39,-171,-989,2.03,-0.42,-0.14
36,-171,-987,1.61,-0.42,-0.28
33,-173,-989,1.19,-0.49,-0.28
34,-171,-992,0.7,-0.63,-0.35
34,-169,-995,0.28,-0.77,-0.21
36,-172,-995,-0.35,-0.77,-0.14
38,-174,-996,-0.84,-0.77,-0.21
39,-176,-993,-0.7,-0.84,-0.28
37,-180,-994,-0.35,-0.91,-0.21
39,-181,-995,0.07,-0.91,-0.21
37,-182,-991,0.7,-0.77,-0.07
35,-182,-991,1.26,-0.63,0.0
36,-182,-991,1.82,-0.49,0.07
37,-180,-989,2.03,-0.28,0.07
36,-178,-987,1.89,-0.21,0.07
38,-177,-987,1.61,-0.21,0.07
35,-176,-986,0.84,-0.14,0.0
36,-178,-993,0.14,-0.42,0.0
40,-176,-998,-0.42,-0.56,-0.14
38,-176,-998,-1.12,-0.63,-0.14
39,-178,-1000,-1.54,-0.77,-0.07
40,-182,-996,-1.33,-0.84,-0.14
40,-180,-994,-1.12,-0.98,-0.07
40,-180,-991,-0.7,-1.05,0.07
39,-181,-990,-0.35,-1.05,0.14
38,-178,-985,-0.14,-0.84,0.14
35,-177,-985,-0.28,-0.7,0.14
36,-176,-988,-0.28,-0.7,0.07
38,-174,-988,-0.7,-0.56,0.07
38,-171,-992,-1.33,-0.42,0.0
37,-175,-991,-2.1,-0.42,0.0
37,-179,-992,-2.45,-0.49,-0.14
38,-178,-996,-2.45,-0.77,-0.14
39,-178,-994,-2.31,-0.77,-0.21
37,-177,-994,-2.1,-0.91,-0.35
38,-175,-997,-1.4,-1.12,-0.35
38,-171,-994,-0.91,-1.19,-0.35
33,-168,-993,-0.84,-1.19,-0.28
32,-169,-992,-0.77,-1.05,-0.14
34,-169,-991,-1.12,-0.91,-0.21
34,-170,-988,-1.19,-0.77,-0.21
37,-172,-987,-1.19,-0.77,-0.21
39,-171,-990,-0.91,-0.77,-0.14
41,-167,-993,-0.7,-0.7,-0.07
41,-169,-992,-0.84,-0.49,0.0
42,-171,-994,-0.84,-0.35,0.0
44,-169,-989,-0.35,-0.07,0.07
40,-170,-986,-0.42,0.14,0.28
37,-170,-983,-0.63,0.14,0.35
35,-166,-987,-0.7,0.07,0.07
32,-166,-992,-1.4,0.07,0.14
33,-165,-991,-2.31,0.0,-0.07
31,-170,-996,-3.08,-0.14,0.07
34,-173,-1003,-3.08,-0.21,0.0
37,-172,-995,-3.01,-0.14,0.0
38,-176,-993,-3.29,-0.28,0.07
42,-177,-995,-2.87,-0.42,0.0
43,-177,-996,-2.38,-0.49,-0.07
43,-175,-995,-2.17,-0.42,-0.07
38,-175,-988,-1.75,-0.56,0.0
36,-176,-1000,-1.05,-1.19,0.07
41,-169,-1005,-0.35,-1.33,0.07
37,-168,-1000,-0.49,-1.33,0.14
34,-167,-998,-1.12,-1.54,0.07
36,-168,-993,-1.05,-1.47,-0.14
39,-166,-990,-0.98,-1.4,-0.21
36,-166,-983,-1.26,-1.19,-0.07
35,-170,-981,-1.54,-1.12,0.0
36,-168,-987,-1.61,-1.19,0.07
36,-162,-991,-1.75,-1.05,0.07
35,-163,-995,-2.38,-0.91,0.07
33,-164,-1000,-2.94,-0.91,0.0
34,-165,-996,-3.29,-0.84,-0.07
36,-168,-993,-3.71,-0.84,-0.21
37,-170,-990,-3.43,-0.77,-0.21
37,-172,-990,-2.38,-0.84,-0.14
38,-170,-994,-1.05,-0.91,-0.14
37,-166,-994,-0.42,-0.84,-0.07
34,-157,-995,0.0,-0.77,0.0
35,-155,-994,0.07,-0.7,0.14
36,-153,-996,-0.07,-0.56,0.14
36,-151,-994,-0.49,-0.49,0.14
36,-155,-991,-0.84,-0.49,0.14
37,-160,-992,-0.7,-0.56,0.21
38,-161,-996,-0.21,-0.56,0.28
40,-163,-994,0.07,-0.56,0.35
39,-166,-994,0.14,-0.49,0.42
41,-165,-990,0.49,-0.42,0.35
42,-162,-991,0.84,-0.28,0.35
41,-160,-988,1.12,-0.35,0.35
38,-160,-989,0.49,-0.42,0.42
38,-159,-996,0.14,-0.63,0.28
40,-157,-999,-0.07,-0.77,0.21
40,-161,-1002,-0.84,-0.77,0.28
39,-163,-999,-1.19,-0.7,0.28
38,-170,-993,-0.98,-0.7,0.35
37,-170,-993,-0.49,-0.7,0.35
39,-169,-990,0.28,-0.7,0.35
37,-169,-990,0.63,-0.63,0.28
34,-166,-991,0.84,-0.7,0.21
37,-159,-992,0.77,-0.7,0.14
38,-158,-995,0.28,-0.56,0.14
37,-159,-996,-0.35,-0.63,0.07
37,-161,-998,-0.7,-0.7,0.0
36,-164,-998,-0.77,-0.49,-0.07
32,-167,-992,-0.49,-0.28,0.0
30,-169,-991,-0.14,-0.14,0.07
36,-168,-989,0.84,0.07,0.0
37,-165,-984,1.33,0.63,0.07
34,-164,-979,1.96,0.91,0.14
35,-161,-985,2.66,1.26,0.14
35,-154,-985,2.94,1.68,0.14
34,-152,-983,2.52,2.17,0.35
39,-153,-985,2.24,2.59,0.42
39,-160,-977,1.26,3.01,0.77
34,-163,-985,0.63,2.38,0.56
48,-165,-1010,0.91,1.4,0.42
55,-165,-1025,-0.07,1.26,0.28
47,-172,-1017,-1.12,1.05,0.28
39,-182,-1009,-0.7,0.42,0.35
38,-189,-1002,0.77,-0.21,0.42
39,-186,-1002,2.17,-0.77,0.42
38,-191,-994,2.73,-0.98,0.56
39,-197,-993,2.87,-1.12,0.21
43,-194,-994,4.27,-1.26,0.0
47,-185,-996,5.6,-1.33,-0.07
47,-180,-993,5.88,-1.19,-0.07
46,-174,-987,5.53,-1.05,-0.14
48,-169,-986,4.2,-0.98,-0.21
48,-166,-986,2.45,-0.91,-0.28
46,-170,-986,0.84,-0.91,-0.35
43,-171,-992,-0.35,-1.05,-0.42
41,-168,-991,-1.05,-1.05,-0.42
35,-170,-991,-1.75,-0.98,-0.49
33,-165,-996,-1.89,-1.26,-0.49
37,-166,-998,-1.96,-1.19,-0.49
36,-166,-1001,-2.24,-1.12,-0.56
38,-162,-996,-2.03,-1.05,-0.28
38,-166,-991,-1.4,-0.98,-0.14
39,-164,-992,-0.56,-0.98,-0.07
39,-160,-988,0.21,-0.84,0.14
35,-164,-985,0.56,-0.77,0.28
33,-164,-991,1.05,-0.7,0.28
31,-159,-994,1.61,-0.7,0.35
33,-162,-993,1.47,-0.42,0.42
36,-161,-992,1.33,-0.21,0.56
40,-162,-986,1.19,0.0,0.63
41,-166,-979,0.84,0.21,0.7
39,-168,-980,0.35,0.21,0.7
39,-164,-989,0.21,0.07,0.84
43,-168,-997,-0.07,0.07,0.91
44,-166,-1005,-0.56,-0.07,0.84
45,-171,-1003,-0.98,-0.14,0.98
43,-180,-1003,-1.54,-0.28,0.84
44,-182,-998,-1.19,-0.56,0.77
42,-189,-1001,-1.05,-0.84,0.77
45,-190,-995,-0.77,-0.84,0.7
44,-191,-990,-0.63,-0.98,0.63
48,-190,-989,-0.14,-1.12,0.63
50,-186,-984,0.49,-0.98,0.42
46,-180,-985,0.49,-0.98,0.35
46,-175,-986,0.21,-0.84,0.28
45,-168,-986,-0.63,-0.77,0.0
42,-165,-988,-1.47,-0.77,-0.07
40,-165,-992,-2.17,-0.84,-0.21
40,-164,-997,-2.8,-1.05,-0.21
38,-164,-998,-3.15,-1.12,-0.21
38,-168,-1002,-2.94,-1.12,-0.28
38,-169,-995,-2.17,-0.91,-0.21
37,-171,-988,-1.4,-0.7,-0.07
38,-170,-987,-0.49,-0.63,0.0
43,-169,-987,0.42,-0.49,0.07
42,-165,-992,0.77,-0.42,0.14
41,-162,-992,0.35,-0.42,0.14
40,-162,-991,-0.21,-0.35,-0.07
39,-166,-994,-0.63,-0.42,-0.21
41,-168,-996,-1.12,-0.42,-0.35
39,-171,-990,-1.47,-0.35,-0.49
39,-176,-990,-1.12,-0.42,-0.56
39,-173,-994,-0.28,-0.7,-0.56
40,-166,-998,0.07,-0.98,-0.49
37,-165,-1001,-0.28,-1.05,-0.49
37,-165,-997,-0.49,-0.98,-0.49
36,-166,-993,-0.63,-0.91,-0.49
39,-166,-992,-0.35,-0.91,-0.49
42,-168,-987,-0.14,-0.77,-0.49
43,-167,-987,-0.07,-0.7,-0.49
44,-169,-990,0.35,-0.7,-0.49
48,-169,-992,0.84,-0.63,-0.42
44,-165,-994,0.7,-0.56,-0.49
44,-166,-989,0.35,-0.42,-0.49
43,-167,-992,0.28,-0.35,-0.42
43,-168,-993,0.35,-0.35,-0.49
40,-168,-989,0.21,-0.35,-0.49
37,-170,-991,0.07,-0.35,-0.49
37,-171,-994,0.35,-0.28,-0.42
36,-170,-990,0.42,-0.14,-0.35
39,-174,-992,0.07,-0.21,-0.28
45,-174,-999,-0.07,-0.35,-0.28
47,-174,-995,-0.35,-0.21,-0.35
44,-177,-993,-0.84,-0.21,-0.42
44,-176,-992,-0.7,-0.35,-0.56
43,-171,-990,-0.42,-0.35,-0.56
39,-169,-992,-0.77,-0.35,-0.49
40,-167,-992,-1.19,-0.35,-0.49
40,-164,-994,-1.68,-0.42,-0.42
39,-164,-993,-2.03,-0.56,-0.42
39,-164,-992,-2.17,-0.77,-0.42
37,-162,-996,-2.24,-1.12,-0.42
40,-161,-1007,-2.03,-1.4,-0.28
44,-162,-1003,-1.96,-1.19,-0.14
41,-168,-992,-1.89,-0.77,-0.21
41,-175,-986,-1.19,-0.56,-0.14
40,-176,-985,-0.21,-0.56,-0.21
39,-166,-984,0.77,-0.42,-0.21
38,-160,-985,0.84,-0.28,-0.14
40,-153,-993,0.42,-0.49,-0.14
45,-148,-997,-0.21,-0.49,-0.14
49,-151,-998,-1.33,-0.56,-0.14
47,-158,-998,-2.03,-0.84,-0.07
47,-165,-998,-1.89,-1.12,-0.07
48,-162,-998,-0.98,-1.19,-0.07
44,-174,-998,-0.42,-1.12,0.28
38,-175,-989,0.7,-1.19,0.14
34,-171,-992,1.96,-1.19,0.28
40,-167,-992,3.01,-1.33,0.28
40,-167,-994,2.66,-1.19,0.49
42,-166,-992,2.03,-1.19,0.21
43,-174,-991,1.26,-1.12,0.14
45,-175,-989,0.84,-1.12,0.0
44,-179,-987,0.35,-0.98,-0.14
41,-182,-989,-0.07,-1.19,-0.28
41,-181,-997,-0.21,-1.33,-0.35
43,-173,-999,-0.7,-1.26,-0.42
39,-174,-993,-1.61,-0.98,-0.49
38,-173,-989,-1.89,-0.98,-0.63
41,-169,-988,-1.47,-0.98,-0.7
41,-162,-987,-1.75,-0.77,-0.63
39,-163,-991,-1.89,-0.84,-0.56
39,-164,-995,-1.61,-0.77,-0.63
38,-160,-995,-1.19,-0.7,-0.63
36,-160,-995,-1.05,-0.63,-0.49
37,-161,-996,-0.56,-0.63,-0.49
40,-158,-994,-0.42,-0.56,-0.42
37,-161,-988,-0.42,-0.35,-0.28
38,-165,-989,-0.14,-0.49,-0.21
40,-165,-996,0.7,-0.56,-0.21
43,-161,-1000,0.91,-0.42,-0.07
41,-165,-997,0.63,-0.42,-0.07
42,-167,-996,0.56,-0.63,-0.07
41,-167,-993,0.56,-0.84,-0.07
41,-170,-992,0.35,-0.84,-0.14
41,-175,-993,-0.07,-0.84,-0.21
42,-175,-990,-0.14,-0.77,-0.28
40,-175,-991,-0.07,-0.91,-0.28
42,-172,-996,0.07,-0.98,-0.35
42,-169,-995,0.07,-0.77,-0.42
40,-165,-992,-0.28,-0.7,-0.42
40,-165,-989,-0.77,-0.7,-0.35
42,-164,-990,-1.05,-0.63,-0.49
41,-167,-990,-1.19,-0.49,-0.49
41,-166,-991,-1.19,-0.42,-0.56
39,-163,-988,-0.63,-0.35,-0.49
38,-159,-992,-0.07,-0.56,-0.42
42,-157,-999,0.07,-0.56,-0.35
41,-155,-1001,-0.07,-0.56,-0.28
39,-161,-997,-0.42,-0.49,-0.14
39,-167,-993,-0.42,-0.56,-0.14
40,-168,-994,0.14,-0.7,-0.07
40,-169,-995,0.56,-0.84,-0.07
39,-168,-996,0.84,-0.84,0.07
37,-168,-994,0.91,-0.7,0.07
34,-168,-987,0.84,-0.42,0.0
30,-168,-983,0.7,-0.28,0.0
32,-166,-987,0.63,-0.35,0.0
36,-166,-994,0.28,-0.42,0.07
40,-164,-1000,-0.42,-0.7,0.0
44,-164,-1003,-1.26,-0.91,-0.07
46,-165,-1001,-1.96,-1.05,-0.14
48,-168,-997,-2.1,-1.26,-0.07
49,-172,-997,-1.54,-1.47,0.0
50,-174,-991,-0.84,-1.68,0.07
42,-175,-993,-0.07,-1.96,-0.14
44,-177,-1000,0.35,-2.59,-0.14
46,-159,-996,0.7,-2.52,-0.63
40,-161,-996,-0.49,-2.52,-0.28
40,-163,-997,-1.4,-2.73,-0.42
42,-163,-990,-1.89,-2.66,-0.56
42,-160,-989,-2.8,-2.45,-0.7
42,-169,-986,-3.01,-2.17,-0.63
38,-169,-983,-2.31,-1.96,-0.91
36,-162,-988,-1.33,-1.82,-0.91
37,-156,-989,-0.77,-1.33,-0.84
37,-155,-988,-0.35,-0.77,-0.77
32,-151,-985,0.07,-0.42,-0.84
32,-148,-989,0.42,-0.49,-0.77
32,-149,-997,0.49,-0.42,-0.77
33,-148,-998,0.56,-0.28,-0.7
30,-153,-995,0.56,-0.14,-0.63
32,-158,-996,1.19,-0.21,-0.42
35,-159,-994,2.1,-0.21,-0.35
33,-163,-991,2.66,-0.14,-0.28
31,-163,-994,3.15,-0.28,-0.14
35,-163,-995,3.85,-0.28,0.0
36,-164,-995,3.57,-0.21,0.0
38,-166,-993,3.15,-0.21,0.14
41,-172,-990,2.66,-0.21,0.14
40,-175,-991,2.1,-0.28,0.07
42,-177,-995,1.82,-0.49,0.07
45,-179,-992,1.4,-0.28,-0.07
39,-181,-990,1.12,-0.28,-0.14
39,-180,-994,1.12,-0.56,-0.21
42,-176,-994,0.84,-0.63,-0.35
42,-172,-997,0.07,-0.77,-0.35
41,-171,-999,-0.91,-0.91,-0.28
43,-172,-1000,-1.4,-0.91,-0.35
43,-171,-998,-1.68,-1.05,-0.42
43,-171,-995,-2.31,-0.98,-0.35
42,-172,-992,-2.66,-1.12,-0.42
40,-173,-989,-3.08,-1.12,-0.56
39,-172,-989,-3.5,-1.19,-0.63
36,-174,-987,-3.29,-1.05,-0.63
33,-171,-990,-3.08,-1.12,-0.7
33,-167,-989,-2.94,-0.98,-0.77
33,-162,-994,-3.01,-0.98,-0.7
41,-160,-1002,-2.8,-1.12,-0.63
42,-160,-999,-2.59,-0.98,-0.63
38,-156,-995,-2.45,-1.05,-0.56
35,-159,-993,-2.03,-1.19,-0.42
37,-157,-994,-1.47,-1.33,-0.42
37,-155,-992,-1.33,-1.19,-0.21
34,-163,-991,-1.33,-0.98,-0.21
33,-162,-993,-0.35,-1.05,-0.21
34,-159,-996,0.49,-0.98,-0.14
34,-159,-995,0.84,-0.91,-0.07
35,-161,-994,1.05,-0.84,-0.07
36,-159,-992,1.19,-0.91,-0.07
40,-164,-989,1.26,-0.7,0.0
37,-167,-986,1.19,-0.56,0.0
34,-170,-985,1.4,-0.7,-0.07
33,-167,-994,1.33,-0.84,-0.07
39,-162,-1002,0.91,-0.77,-0.07
39,-160,-999,0.07,-0.7,-0.07
39,-167,-997,-0.77,-0.63,-0.07
41,-168,-999,-0.77,-0.84,-0.14
42,-171,-995,-0.7,-0.91,-0.07
40,-172,-990,-0.77,-0.84,-0.14
38,-173,-992,-0.63,-1.19,-0.28
39,-168,-999,-0.35,-1.4,-0.28
38,-167,-1001,-0.63,-1.33,-0.35
34,-165,-995,-1.26,-1.12,-0.42
32,-165,-987,-1.68,-0.91,-0.42
32,-167,-986,-1.54,-0.77,-0.28
34,-164,-987,-1.19,-0.77,-0.28
38,-158,-991,-0.91,-0.7,-0.35
39,-156,-990,-0.91,-0.63,-0.21
39,-154,-993,-0.98,-0.49,-0.28
41,-152,-994,-0.98,-0.35,-0.35
40,-152,-992,-0.98,-0.28,-0.21
40,-152,-993,-0.84,-0.35,-0.21
38,-155,-993,-0.49,-0.28,-0.14
36,-157,-996,0.28,-0.35,-0.07
36,-158,-1001,1.26,-0.35,0.0
36,-158,-992,1.82,0.0,0.0
33,-159,-987,2.38,0.14,0.14
35,-159,-986,3.15,0.28,0.28
37,-153,-990,3.92,0.21,0.42
36,-160,-992,3.43,0.49,0.77
33,-159,-989,2.24,0.77,0.42
33,-162,-989,1.96,0.7,0.49
36,-167,-994,1.33,0.63,0.35
37,-168,-994,0.98,0.49,0.28
36,-172,-999,0.49,0.14,0.35
37,-177,-1006,0.21,-0.14,0.14
40,-176,-1009,0.14,-0.35,0.14
40,-179,-1006,-0.07,-0.56,0.14
41,-182,-1000,-0.07,-0.7,0.07
43,-181,-997,0.28,-0.91,-0.07
42,-176,-991,0.63,-1.05,-0.14
43,-175,-984,0.42,-0.84,-0.21
40,-173,-982,0.07,-0.63,-0.28
40,-168,-982,-0.07,-0.42,-0.42
39,-165,-984,-0.56,-0.21,-0.49
40,-158,-988,-1.12,-0.21,-0.49
41,-156,-997,-1.68,-0.35,-0.49
43,-155,-1003,-2.17,-0.49,-0.49
42,-156,-1001,-2.73,-0.49,-0.49
42,-160,-1001,-2.52,-0.77,-0.42
45,-166,-1000,-1.89,-0.98,-0.42
45,-167,-996,-1.12,-0.98,-0.35
40,-169,-993,-0.63,-0.98,-0.28
41,-168,-989,0.21,-1.05,-0.21
40,-163,-986,0.7,-0.91,-0.14
40,-159,-987,0.7,-0.98,-0.14
41,-160,-991,0.14,-0.84,-0.14
39,-156,-991,-0.42,-0.84,-0.21
38,-161,-992,-1.19,-0.84,-0.21
37,-165,-995,-1.4,-0.91,-0.21
37,-168,-997,-0.98,-0.98,-0.21
37,-167,-999,-0.49,-1.05,-0.21
35,-168,-998,-0.28,-0.98,-0.21
32,-168,-991,-0.07,-0.84,-0.21
29,-167,-989,0.21,-0.7,-0.14
31,-165,-992,0.49,-0.56,-0.21
31,-163,-988,0.42,-0.28,-0.21
31,-163,-987,-0.07,-0.28,-0.21
37,-160,-996,-0.21,-0.56,-0.28
42,-159,-1001,-0.7,-0.63,-0.35
41,-158,-1000,-1.33,-0.56,-0.35
40,-165,-998,-1.54,-0.7,-0.28
44,-168,-996,-0.98,-0.84,-0.28
44,-166,-990,-0.21,-0.7,-0.21
39,-168,-988,0.42,-0.77,-0.07
40,-166,-992,1.12,-0.7,-0.07
38,-158,-988,1.61,-0.42,0.0
35,-158,-988,1.19,-0.49,0.0
37,-158,-992,0.7,-0.49,-0.07
38,-158,-994,0.07,-0.42,-0.07
38,-161,-996,-0.63,-0.35,-0.07
40,-168,-997,-1.05,-0.28,-0.07
43,-170,-999,-0.91,-0.28,0.0
45,-175,-996,-0.63,-0.14,0.14
46,-176,-992,0.14,0.07,0.07
43,-173,-984,1.12,0.14,0.07
41,-167,-984,1.61,0.14,0.14
44,-164,-991,1.82,0.07,0.14
45,-161,-992,1.05,0.35,0.07
43,-162,-993,-0.35,0.49,0.0
41,-164,-995,-1.4,0.56,-0.07
40,-167,-992,-1.75,0.56,-0.14
39,-166,-995,-2.1,0.42,-0.14
42,-167,-993,-1.96,0.56,-0.28
37,-164,-989,-2.1,0.56,-0.28
37,-166,-998,-1.96,0.07,-0.28
41,-163,-1005,-1.61,-0.28,-0.35
39,-157,-1002,-1.33,-0.35,-0.35
37,-159,-1001,-1.47,-0.7,-0.28
40,-157,-1000,-1.19,-0.84,-0.35
42,-158,-998,-1.12,-0.91,-0.21
42,-161,-992,-1.26,-0.84,-0.14
40,-163,-989,-1.05,-0.63,-0.28
38,-160,-984,-0.28,-0.49,-0.21
38,-158,-987,0.42,-0.49,-0.07
42,-153,-989,0.84,-0.49,-0.07
42,-151,-995,0.56,-0.56,0.0
43,-153,-997,-0.07,-0.49,0.0
41,-154,-991,-0.49,-0.35,-0.07
39,-157,-992,-0.35,-0.7,0.07
45,-158,-1000,0.35,-0.98,0.14
47,-159,-1001,0.35,-0.98,0.28
45,-165,-998,0.14,-0.84,0.28
42,-170,-990,0.42,-0.84,0.28
41,-169,-990,1.12,-0.84,0.21
46,-169,-990,1.33,-0.77,0.28
45,-167,-992,0.91,-0.77,0.14
43,-168,-990,0.35,-0.63,0.21
40,-167,-990,-0.14,-0.56,0.07
39,-165,-992,-0.42,-0.7,-0.07
39,-164,-995,-0.91,-0.84,-0.07
38,-166,-998,-1.68,-0.84,-0.14
34,-165,-995,-2.24,-0.77,-0.21
36,-166,-999,-2.1,-0.77,-0.21
38,-163,-995,-1.89,-0.63,-0.28
38,-163,-989,-1.61,-0.63,-0.14
41,-161,-992,-1.05,-0.77,-0.14
42,-158,-994,-0.28,-0.7,-0.14
42,-152,-995,-0.14,-0.56,-0.14
40,-152,-991,-0.07,-0.35,0.0
38,-155,-988,0.14,-0.28,0.0
40,-154,-991,0.42,-0.21,0.07
43,-154,-994,0.77,0.0,0.07
43,-156,-991,0.84,0.07,0.07
42,-158,-990,0.98,0.14,0.07
42,-160,-991,1.19,-0.07,0.14
43,-159,-999,1.26,-0.42,0.14
46,-156,-1003,1.19,-0.56,0.14
44,-157,-997,0.63,-0.63,0.28
41,-167,-996,-0.21,-0.63,0.14
43,-168,-998,-0.42,-0.7,0.07
44,-168,-993,-0.42,-0.7,0.0
44,-169,-990,-0.21,-0.63,-0.07
43,-166,-991,0.21,-0.63,0.0
43,-164,-995,0.35,-0.7,0.14
46,-163,-996,0.35,-0.84,0.14
43,-163,-996,0.21,-0.84,0.07
42,-163,-997,0.07,-0.91,0.07
39,-166,-998,-0.21,-1.12,0.0
42,-166,-998,-0.42,-1.19,-0.07
40,-168,-989,-0.84,-1.12,0.0
39,-171,-991,-1.26,-1.19,-0.14
40,-167,-994,-1.12,-1.12,-0.21
38,-162,-990,-1.19,-0.91,-0.14
37,-163,-993,-1.33,-0.91,-0.07
39,-161,-994,-1.05,-0.84,-0.14
39,-158,-995,-0.56,-0.7,-0.07
38,-157,-997,-0.63,-0.63,0.0
38,-159,-991,-0.77,-0.56,0.0
39,-161,-992,-0.77,-0.7,-0.07
40,-160,-993,-0.49,-0.7,-0.07
40,-160,-992,-0.49,-0.63,0.07
40,-161,-994,-0.49,-0.63,0.14
