acc_x[mg],acc_y[mg],acc_z[mg],gyro_x[dps],gyro_y[dps],gyro_z[dps]
-749,-63,-664,-5.95,3.01,0.91
-749,-60,-663,-4.69,3.15,0.84
-746,-51,-664,-3.64,3.5,0.84
-743,-46,-666,-2.66,3.71,0.84
-741,-38,-669,-1.68,3.85,0.91
-738,-30,-669,-0.98,4.13,1.05
-735,-23,-674,-0.56,4.34,1.26
-732,-19,-678,-0.28,4.48,1.47
-729,-13,-679,0.14,4.48,1.61
-733,-10,-677,0.0,4.34,1.89
-740,-9,-685,-0.21,4.2,2.17
-743,-3,-689,-0.14,3.78,2.31
-745,12,-692,-0.77,3.29,2.73
-757,25,-695,-1.89,2.87,3.29
-755,37,-686,-3.71,1.89,3.64
-745,45,-682,-5.95,1.26,3.92
-743,53,-684,-7.49,1.05,4.41
-744,74,-672,-9.38,0.91,5.32
-737,96,-653,-11.41,0.98,6.44
-738,99,-656,-13.3,1.54,7.63
-748,73,-660,-15.54,1.19,8.54
-751,26,-654,-14.7,0.7,8.68
-752,-33,-661,-8.96,0.91,8.54
-752,-70,-663,0.07,1.05,9.03
-737,-91,-664,12.18,1.82,9.87
-725,-95,-659,23.87,2.87,11.27
-712,-104,-664,35.49,3.57,12.25
-707,-96,-684,46.55,4.2,12.81
-710,-78,-694,53.76,4.55,13.3
-710,-66,-707,57.05,4.9,13.3
-713,-69,-693,56.42,4.9,13.09
-718,-88,-699,54.46,4.83,12.39
-728,-109,-699,51.8,4.48,11.69
-739,-126,-706,47.11,4.2,10.92
-744,-156,-711,42.77,3.99,9.8
-750,-174,-715,37.45,3.71,8.89
-758,-177,-714,32.13,3.15,7.42
-756,-175,-705,25.41,2.38,5.6
-755,-164,-707,17.64,1.61,3.99
-761,-152,-707,9.94,0.84,2.38
-765,-131,-707,0.98,-0.14,0.63
-764,-132,-707,-7.28,-0.84,-1.05
-766,-132,-708,-14.98,-1.54,-2.45
-762,-132,-707,-20.51,-2.24,-3.78
-754,-129,-701,-24.85,-2.66,-5.04
-740,-121,-700,-28.98,-2.73,-6.09
-732,-120,-698,-32.06,-2.94,-7.21
-722,-116,-693,-33.67,-2.87,-8.12
-718,-121,-707,-34.93,-2.45,-8.82
-711,-123,-706,-35.28,-2.38,-9.66
-694,-119,-702,-34.44,-1.54,-10.71
-680,-114,-697,-33.95,-0.56,-11.48
-673,-101,-701,-33.46,0.14,-12.11
-669,-87,-695,-33.25,0.77,-12.74
-675,-85,-702,-32.55,1.68,-13.65
-697,-71,-712,-32.13,2.1,-14.42
-712,-42,-723,-31.78,1.54,-15.33
-711,-16,-719,-32.69,1.12,-16.45
-713,-3,-721,-35.35,0.91,-17.29
-719,12,-708,-38.08,0.0,-17.71
-723,28,-701,-40.53,-1.12,-18.06
-720,37,-691,-43.82,-2.03,-18.55
-715,29,-680,-46.97,-2.45,-19.18
-711,18,-686,-47.6,-2.59,-19.74
-710,18,-677,-47.25,-3.08,-19.81
-709,11,-676,-44.94,-3.01,-19.74
-713,11,-679,-41.23,-2.73,-19.18
-711,26,-674,-37.52,-2.66,-18.55
-704,25,-660,-34.37,-2.38,-18.06
-707,32,-654,-32.27,-2.1,-17.57
-729,43,-654,-30.1,-2.45,-16.94
-734,56,-682,-26.04,-2.59,-16.87
-737,64,-669,-22.19,-2.17,-16.66
-769,92,-671,-19.88,-1.96,-15.61
-768,98,-667,-16.52,-2.66,-14.98
-750,109,-658,-14.21,-3.85,-14.77
-752,109,-656,-11.62,-4.06,-14.07
-762,110,-650,-8.61,-4.27,-13.02
-757,113,-646,-4.97,-4.62,-11.62
-760,99,-643,0.21,-4.69,-10.36
-774,90,-644,6.37,-4.41,-8.68
-784,83,-648,12.18,-4.27,-6.93
-792,68,-640,17.22,-4.55,-5.53
-792,50,-639,21.7,-4.48,-4.27
-792,31,-644,25.34,-4.06,-3.15
-800,8,-649,30.03,-3.5,-1.96
-797,2,-647,34.16,-3.15,-0.56
-796,-1,-643,36.19,-2.8,0.84
-792,-3,-643,36.96,-2.31,1.96
-779,-4,-645,35.98,-2.17,2.59
-762,-9,-646,33.18,-2.03,2.87
-745,-18,-659,29.96,-1.4,3.08
-731,-30,-663,26.46,-0.98,3.29
-719,-51,-660,23.17,-0.49,3.5
-716,-83,-658,20.79,0.56,3.71
-717,-110,-672,20.02,1.4,3.85
-721,-126,-667,20.02,1.75,3.92
-730,-139,-664,20.58,2.38,4.13
-743,-150,-658,22.19,3.15,4.62
-756,-141,-654,23.17,3.85,5.04
-763,-126,-651,22.54,4.27,4.9
-766,-108,-658,19.18,4.41,4.34
-769,-91,-664,14.28,4.34,3.71
-777,-80,-665,8.4,4.06,3.22
-777,-76,-668,2.31,3.57,2.66
-773,-79,-669,-3.22,3.01,2.31
-770,-90,-674,-7.56,2.66,2.17
-771,-98,-674,-10.22,2.31,2.03
-771,-99,-676,-10.85,2.03,1.89
-767,-95,-671,-10.01,1.75,1.89
-770,-85,-668,-8.75,1.68,1.96
-769,-72,-668,-6.44,1.68,2.1
-762,-60,-668,-4.2,1.89,2.45
-747,-39,-668,-2.87,2.1,2.94
-739,-28,-669,-1.61,2.38,3.43
-736,-25,-664,-1.33,2.66,4.06
-733,-32,-664,-0.63,3.01,4.62
-735,-45,-670,2.03,3.5,5.18
-737,-49,-677,4.62,4.13,5.88
-736,-44,-684,6.72,4.55,6.58
-735,-40,-685,7.77,4.76,6.93
-733,-31,-689,7.21,4.69,6.93
-730,-25,-697,5.67,4.41,6.51
-731,-22,-702,3.08,3.99,6.09
-735,-18,-702,-0.42,3.5,5.6
-730,-24,-700,-3.57,2.94,4.83
-724,-35,-698,-5.67,2.66,4.2
-721,-44,-698,-5.88,2.66,3.99
-722,-49,-703,-5.18,2.52,3.92
-714,-48,-705,-3.57,2.24,3.92
-712,-44,-706,-2.1,2.24,4.06
-715,-40,-705,-1.05,2.17,4.27
-717,-35,-699,-0.21,1.96,4.27
-716,-34,-699,-0.07,1.82,3.99
-716,-36,-701,0.21,1.61,3.64
-721,-32,-704,0.49,1.54,3.43
-725,-31,-704,0.63,1.33,3.22
-724,-29,-703,0.42,0.98,2.87
-726,-28,-694,0.49,0.84,2.59
-728,-24,-695,0.56,0.77,2.45
-724,-27,-693,1.05,0.77,2.45
-727,-28,-696,1.19,0.91,2.52
-733,-25,-702,1.47,0.91,2.24
-731,-22,-704,1.96,0.56,1.89
-731,-15,-703,1.96,0.21,1.75
-737,-17,-700,1.19,-0.14,1.68
-736,-18,-698,0.63,-0.42,1.4
-730,-17,-698,0.49,-0.63,1.12
-729,-20,-700,-0.21,-0.84,0.98
-723,-25,-698,-0.84,-0.98,0.91
-720,-25,-695,-0.98,-1.12,0.7
-720,-31,-693,-0.7,-1.05,0.56
-719,-31,-693,-0.07,-1.05,0.56
-717,-36,-690,0.84,-0.84,0.56
-716,-38,-693,2.31,-0.56,0.63
-718,-37,-694,4.2,-0.21,0.7
-720,-34,-694,5.32,0.0,0.77
-722,-30,-699,6.51,0.14,0.63
-723,-28,-701,7.35,0.14,0.42
-728,-25,-697,6.79,0.14,0.35
-729,-21,-696,5.67,0.21,0.21
-722,-24,-700,4.48,0.0,-0.28
-711,-22,-701,3.22,-0.21,-0.49
-706,-23,-705,1.61,-0.21,-0.42
-703,-34,-709,0.91,-0.28,-0.42
-709,-39,-712,1.26,-0.49,-0.49
-715,-45,-710,1.19,-0.7,-0.56
-718,-49,-707,1.19,-0.91,-0.63
-723,-55,-704,1.4,-1.12,-0.7
-731,-56,-698,1.68,-1.33,-0.7
-732,-56,-699,2.52,-1.47,-0.77
-728,-55,-696,3.64,-1.4,-0.7
-728,-51,-695,3.99,-1.26,-0.42
-724,-45,-696,4.2,-1.19,-0.42
-721,-43,-692,3.64,-1.19,-0.7
-718,-37,-692,2.45,-1.12,-0.84
-718,-39,-693,0.91,-0.98,-0.98
-723,-47,-690,-0.63,-0.84,-1.05
-721,-54,-687,-1.61,-0.63,-0.98
-719,-63,-686,-1.75,-0.42,-1.19
-722,-66,-686,-0.56,0.0,-1.33
-722,-60,-688,0.7,0.35,-1.26
-713,-51,-690,1.61,0.7,-0.98
-708,-44,-695,2.73,0.98,-0.84
-709,-38,-701,3.43,1.12,-0.49
-715,-35,-704,3.71,1.19,-0.35
-723,-37,-702,3.08,1.12,-0.14
-724,-38,-702,2.66,0.98,-0.21
-727,-41,-703,2.31,0.77,-0.42
-732,-41,-700,1.68,0.42,-0.42
-738,-44,-702,1.19,0.14,-0.28
-745,-45,-698,0.77,-0.21,-0.21
-745,-44,-692,-0.63,-0.56,-0.14
-744,-50,-688,-2.45,-0.77,-0.21
-742,-56,-683,-3.57,-0.84,-0.28
-736,-59,-676,-4.9,-0.77,-0.28
-729,-65,-678,-5.46,-0.49,-0.35
-726,-70,-684,-4.13,-0.07,-0.28
-728,-65,-689,-2.73,0.35,0.28
-730,-57,-693,-1.75,0.63,0.7
-726,-55,-695,-0.77,0.77,0.77
-728,-49,-697,-0.49,0.7,0.98
-730,-46,-695,-0.56,0.7,1.12
-729,-43,-697,-1.12,0.63,0.98
-724,-41,-699,-2.17,0.56,0.7
-724,-42,-699,-3.57,0.49,0.56
-725,-42,-701,-4.34,0.35,0.49
-725,-42,-699,-4.83,0.21,0.42
-724,-41,-698,-5.46,0.21,0.42
-727,-44,-688,-6.02,0.28,0.56
-730,-45,-687,-6.44,0.42,0.7
-726,-47,-686,-5.6,0.63,0.63
-724,-48,-683,-4.9,1.05,0.84
-725,-44,-683,-4.48,1.61,1.19
-726,-42,-683,-3.64,2.03,1.33
-727,-36,-681,-3.22,2.38,1.47
-724,-31,-683,-3.5,2.87,1.61
-722,-31,-690,-3.5,3.22,1.61
-722,-32,-693,-3.43,3.43,1.75
-723,-33,-696,-3.5,3.64,1.96
-725,-36,-700,-2.94,3.78,2.17
-728,-34,-706,-2.52,3.64,2.24
-728,-31,-709,-2.24,3.43,2.1
-727,-29,-709,-2.17,3.22,2.1
-721,-27,-711,-2.03,3.01,2.1
-714,-29,-708,-1.75,2.8,2.1
-713,-26,-710,-1.4,2.52,2.24
-714,-31,-711,-1.12,2.38,2.38
-716,-31,-707,-0.7,2.38,2.52
-713,-29,-706,-0.56,2.31,2.45
-708,-30,-705,-0.14,2.31,2.38
-707,-28,-712,0.28,2.52,2.31
-707,-24,-716,0.84,2.45,2.38
-708,-20,-718,0.98,2.31,2.52
-706,-18,-718,0.98,2.1,2.45
-704,-18,-718,0.7,1.96,2.31
-703,-21,-718,0.77,1.82,2.38
-700,-25,-722,1.05,1.68,2.45
-703,-29,-729,1.61,1.4,2.59
-706,-25,-729,2.17,1.12,2.59
-711,-19,-727,1.75,0.77,2.52
-713,-16,-722,0.56,0.28,2.31
-708,-18,-720,-0.84,-0.14,2.03
-702,-23,-718,-1.47,-0.42,1.89
-700,-26,-719,-1.82,-0.56,1.96
-704,-29,-719,-1.82,-0.63,2.03
-708,-30,-717,-1.54,-0.7,2.1
-710,-26,-715,-1.47,-0.84,2.1
-707,-28,-715,-1.26,-0.98,1.96
-709,-28,-716,-0.84,-0.98,2.03
-709,-26,-716,-0.84,-0.98,2.17
-708,-26,-711,-0.84,-0.98,2.17
-708,-23,-708,-1.12,-0.98,2.1
-709,-19,-705,-1.54,-0.84,2.1
-708,-20,-706,-1.96,-0.77,2.1
-709,-17,-712,-2.24,-0.7,2.24
-712,-17,-714,-2.31,-0.77,2.24
-716,-14,-715,-2.38,-0.77,2.24
-714,-13,-714,-2.24,-0.98,2.31
-714,-16,-710,-2.03,-0.98,2.38
-714,-19,-709,-2.03,-1.05,2.52
-710,-26,-707,-1.33,-1.05,2.66
-712,-27,-708,-0.28,-0.98,2.94
-714,-21,-711,0.35,-0.91,3.08
-716,-17,-714,0.63,-0.84,2.94
-715,-8,-714,0.35,-0.98,2.8
-716,-5,-713,-0.84,-1.19,2.66
-713,-6,-711,-1.96,-1.4,2.66
-711,-7,-711,-2.45,-1.54,2.52
-713,-13,-707,-2.52,-1.54,2.73
-714,-17,-710,-2.52,-1.61,2.87
-717,-23,-707,-1.54,-1.47,2.87
-714,-17,-707,-0.63,-1.4,2.94
-709,-14,-711,0.07,-1.26,2.94
-708,-5,-713,0.28,-1.26,2.87
-710,0,-715,-0.42,-1.33,2.8
-711,1,-710,-1.61,-1.47,2.66
-707,-1,-709,-2.45,-1.54,2.45
-706,-8,-708,-3.01,-1.47,2.38
-707,-11,-709,-3.15,-1.47,2.45
-705,-14,-711,-2.24,-1.33,2.52
-706,-12,-713,-0.77,-1.26,2.59
-714,-7,-711,0.14,-1.12,2.73
-718,-1,-710,0.35,-1.19,2.8
-717,0,-709,0.56,-1.19,2.8
-717,0,-708,0.0,-1.26,2.8
-717,-3,-705,-0.84,-1.33,2.87
-714,-6,-708,-0.98,-1.33,2.8
-716,-6,-707,-0.84,-1.26,2.73
-713,-3,-707,-0.98,-1.19,2.59
-714,0,-709,-0.91,-1.12,2.59
-715,2,-710,-0.98,-1.26,2.59
-717,0,-708,-1.33,-1.33,2.59
-721,-1,-710,-1.4,-1.4,2.66
-721,-3,-710,-0.84,-1.61,2.52
-722,1,-708,-0.49,-1.61,2.59
-718,4,-704,-0.42,-1.61,2.59
-715,4,-702,-0.28,-1.61,2.59
-714,4,-700,0.07,-1.61,2.66
-716,3,-702,0.14,-1.47,2.8
-721,0,-703,0.28,-1.33,2.8
-724,-2,-705,0.07,-1.26,2.73
-723,-1,-704,-0.07,-1.33,2.59
-720,0,-703,-0.42,-1.26,2.45
-716,2,-702,-0.7,-1.19,2.38
-714,3,-701,-1.12,-1.05,2.38
-713,5,-703,-1.4,-0.84,2.45
-714,5,-705,-1.4,-0.77,2.52
-717,4,-704,-1.82,-0.7,2.59
-715,4,-705,-2.03,-0.7,2.52
-710,2,-704,-1.75,-0.49,2.45
-707,5,-711,-1.4,-0.35,2.45
-709,6,-716,-0.56,-0.35,2.52
-712,9,-719,-0.56,-0.56,2.52
-711,9,-712,-0.91,-0.7,2.38
-710,5,-709,-1.12,-0.84,2.24
-707,2,-712,-0.42,-0.91,2.31
-707,0,-716,0.35,-0.84,2.45
-710,0,-711,0.77,-0.84,2.59
-718,-2,-708,0.77,-0.84,2.66
-724,-9,-705,0.91,-0.91,2.45
-723,-8,-702,0.77,-0.98,2.17
-717,0,-703,0.35,-0.84,1.96
-717,3,-704,-0.35,-0.7,1.89
-721,8,-708,-1.82,-0.77,1.96
-720,9,-707,-3.29,-0.84,1.68
-715,8,-711,-3.85,-0.77,1.19
-711,20,-711,-4.69,-0.91,0.98
-712,21,-705,-5.95,-0.98,0.84
-712,24,-707,-6.72,-0.91,0.7
-713,21,-709,-6.51,-0.98,0.63
-713,22,-708,-5.95,-1.05,0.7
-715,24,-710,-5.11,-0.98,0.84
-715,23,-708,-4.06,-1.05,0.98
-716,23,-704,-2.8,-1.05,0.98
-719,21,-702,-1.75,-0.98,1.19
-720,16,-702,-0.98,-0.91,1.26
-716,17,-704,0.14,-0.84,1.19
-715,18,-707,0.84,-0.77,1.12
-715,26,-708,0.7,-0.63,1.12
-713,33,-709,-0.35,-0.63,0.91
-710,32,-706,-1.54,-0.77,0.49
-708,33,-704,-2.94,-0.77,0.21
-709,30,-703,-3.85,-0.63,0.14
-709,23,-708,-3.78,-0.56,0.07
-710,17,-713,-2.73,-0.49,0.0
-709,21,-713,-0.91,-0.42,0.07
-713,20,-709,0.14,-0.56,0.42
-711,27,-714,1.12,-0.7,0.56
-710,31,-713,2.17,-0.84,0.49
-710,36,-712,1.96,-0.91,0.56
-710,33,-714,1.68,-1.12,0.56
-711,24,-713,1.96,-1.26,0.49
-718,14,-709,2.03,-1.33,0.49
-720,11,-705,2.31,-1.4,0.42
-715,14,-703,3.01,-1.26,0.21
-713,19,-702,3.15,-1.26,0.28
-713,22,-704,2.8,-1.12,0.35
-715,17,-705,2.66,-1.12,0.42
-719,16,-704,2.52,-1.05,0.42
-724,15,-706,2.66,-0.98,0.28
-723,14,-703,2.66,-0.91,0.14
-721,22,-701,2.17,-0.91,0.0
-722,25,-701,1.47,-0.84,-0.07
-724,26,-700,0.35,-0.98,-0.21
-722,22,-700,-0.42,-0.91,-0.35
-719,18,-703,-0.28,-0.84,-0.28
-719,17,-701,-0.21,-0.7,-0.21
-717,16,-699,0.07,-0.56,-0.21
-712,16,-701,0.84,-0.49,-0.21
-713,19,-703,1.47,-0.21,-0.07
-716,17,-705,1.54,-0.14,0.07
-719,15,-708,2.03,-0.07,0.0
-721,17,-707,2.45,-0.07,-0.07
-720,20,-705,1.89,-0.07,-0.14
-716,24,-704,1.26,-0.14,-0.35
-708,24,-707,0.98,-0.21,-0.49
-709,21,-709,0.49,-0.21,-0.42
-712,16,-709,0.0,-0.21,-0.42
-709,14,-706,0.21,-0.14,-0.63
-707,11,-706,0.84,-0.07,-0.63
-708,9,-708,1.75,0.14,-0.42
-711,8,-709,2.66,0.21,-0.35
-714,11,-709,3.5,0.21,-0.28
-713,10,-706,3.85,0.21,-0.42
-719,13,-705,3.57,0.28,-0.42
-722,14,-708,3.78,0.21,-0.42
-723,12,-707,4.27,0.14,-0.42
-727,16,-707,3.92,0.14,-0.35
-725,12,-704,3.85,0.0,-0.42
-724,9,-704,3.57,-0.07,-0.49
-721,9,-704,3.43,-0.07,-0.49
-720,9,-703,3.01,0.0,-0.49
-716,10,-703,2.52,0.07,-0.42
-716,10,-704,2.24,0.14,-0.42
-714,10,-706,1.89,0.14,-0.49
-714,10,-711,1.61,0.21,-0.42
-710,10,-714,1.54,0.14,-0.56
-707,11,-715,1.26,0.07,-0.56
-706,13,-713,1.05,0.07,-0.56
-705,11,-711,0.77,0.07,-0.56
-701,11,-715,0.84,0.07,-0.49
-699,7,-718,1.19,0.07,-0.35
-703,7,-717,0.98,0.14,-0.21
-704,8,-715,0.63,0.14,-0.28
-703,8,-711,0.63,0.14,-0.49
-705,7,-704,-0.07,0.28,-0.49
-710,4,-703,-0.49,0.49,-0.28
-712,0,-703,-0.42,0.7,-0.21
-715,0,-705,-0.14,0.84,-0.21
-719,0,-709,0.56,0.91,-0.28
-724,4,-712,0.98,0.91,-0.35
-722,10,-715,1.33,0.77,-0.49
-721,13,-715,1.05,0.56,-0.56
-719,14,-714,0.49,0.21,-0.63
-717,12,-714,0.0,0.0,-0.77
-712,9,-712,-0.42,-0.21,-0.84
-712,8,-711,-0.7,-0.35,-0.84
-713,3,-712,-0.35,-0.35,-0.77
-711,0,-713,0.56,-0.42,-0.77
-711,6,-712,1.4,-0.42,-0.63
-710,10,-714,1.61,-0.42,-0.63
-707,13,-717,1.89,-0.42,-0.7
-706,15,-720,1.75,-0.56,-0.7
-706,17,-720,1.12,-0.7,-0.63
-704,14,-720,0.49,-0.91,-0.7
-703,10,-718,-0.28,-1.12,-0.84
-702,7,-713,-0.98,-1.26,-0.91
-699,4,-710,-1.26,-1.12,-0.98
-698,4,-710,-1.12,-0.98,-0.98
-700,3,-710,-0.91,-0.7,-0.84
-703,3,-709,-0.7,-0.49,-0.7
-703,0,-713,-0.28,-0.35,-0.77
-707,0,-711,0.35,-0.28,-0.7
-716,1,-717,0.7,-0.21,-0.56
-719,1,-719,1.33,-0.28,-0.49
-721,6,-717,1.54,-0.49,-0.7
-719,8,-712,0.49,-0.84,-0.98
-720,9,-709,-0.07,-1.05,-1.33
-722,8,-705,-0.42,-1.19,-1.47
-721,11,-705,-0.91,-1.26,-1.4
-716,12,-706,-0.63,-1.19,-1.33
-716,9,-706,-0.63,-1.05,-1.33
-718,6,-704,-0.63,-1.12,-1.26
-719,3,-700,-0.14,-0.98,-1.33
-714,0,-701,0.91,-0.77,-1.33
-709,1,-707,2.03,-0.42,-1.12
-708,5,-709,2.8,-0.14,-0.84
-704,8,-710,3.15,0.0,-0.77
-703,8,-711,3.57,0.14,-0.63
-701,9,-711,3.71,0.35,-0.42
-699,3,-714,3.43,0.42,-0.14
-701,0,-717,3.71,0.56,0.07
-704,-7,-723,3.78,0.56,0.21
-705,-8,-723,3.57,0.35,0.35
-705,-3,-720,2.59,0.28,0.35
-703,2,-719,1.12,0.14,0.28
-697,9,-720,-0.56,0.14,0.07
-697,9,-720,-3.36,0.07,-0.28
-703,10,-723,-6.51,-0.28,-0.56
-709,-4,-726,-8.54,-0.7,-0.91
-711,-14,-725,-9.24,-1.05,-1.26
-716,-22,-722,-9.38,-1.26,-1.26
-722,-24,-716,-8.68,-1.54,-1.33
-728,-22,-708,-7.56,-1.68,-1.33
-734,-15,-702,-6.72,-1.61,-1.12
-739,-5,-696,-5.67,-1.61,-1.05
-737,7,-695,-5.11,-1.47,-0.91
-731,15,-694,-4.83,-1.4,-0.63
-722,21,-693,-4.76,-1.26,-0.42
-711,19,-695,-4.62,-0.98,-0.21
-703,11,-698,-4.27,-0.77,0.0
-702,4,-707,-2.87,-0.42,0.28
-704,-2,-718,-0.49,-0.14,0.56
-709,-3,-722,1.96,0.0,0.91
-710,7,-725,3.78,-0.07,1.12
-706,15,-725,5.18,-0.28,1.05
-706,20,-719,5.04,-0.56,1.05
-704,28,-717,3.99,-0.7,0.98
-701,25,-716,2.73,-0.84,0.7
-698,19,-715,1.05,-0.98,0.56
-701,14,-712,-0.35,-0.84,0.35
-699,7,-713,-1.19,-0.7,0.14
-696,4,-713,-1.05,-0.63,0.07
-692,2,-709,-0.91,-0.42,0.28
-693,3,-710,-0.98,0.0,0.42
-695,0,-710,0.0,0.28,0.42
-700,-1,-712,0.98,0.56,0.49
-703,1,-717,2.24,0.84,0.63
-707,8,-720,3.29,0.98,0.63
-712,14,-719,3.64,0.77,0.56
-716,16,-717,3.36,0.42,0.49
-719,14,-720,2.94,0.21,0.35
-721,9,-719,2.59,-0.14,0.21
-718,4,-716,1.61,-0.42,-0.07
-715,2,-712,0.91,-0.49,-0.14
-712,0,-710,0.7,-0.63,-0.35
-709,4,-709,0.56,-0.63,-0.35
-710,6,-712,0.35,-0.56,-0.35
-710,8,-714,0.7,-0.56,-0.35
-708,12,-714,0.84,-0.63,-0.35
-709,11,-712,1.12,-0.63,-0.35
-711,10,-716,1.82,-0.63,-0.07
-712,4,-712,2.8,-0.63,0.07
-714,1,-708,3.08,-0.56,0.35
-713,-1,-707,4.2,-0.49,0.42
-715,-1,-705,4.9,-0.28,0.49
-715,2,-709,4.76,-0.07,0.56
-714,5,-713,4.55,-0.14,0.42
-713,7,-713,3.64,-0.07,0.28
-714,5,-711,2.17,-0.14,0.21
-707,8,-713,1.26,-0.21,0.0
-697,7,-711,0.77,-0.21,-0.07
-700,5,-713,0.28,-0.07,0.21
-708,-2,-717,0.42,0.07,0.49
-707,-7,-722,1.05,-0.07,0.49
-703,-8,-721,1.68,-0.07,0.35
-705,-3,-720,1.75,-0.07,0.35
-701,2,-721,1.82,-0.07,0.35
-697,4,-717,1.4,-0.21,0.28
-702,5,-716,0.28,-0.28,0.49
-706,0,-716,-0.21,-0.28,0.49
-705,-5,-714,-0.42,-0.35,0.49
-708,-4,-711,-0.49,-0.28,0.63
-707,-7,-710,-0.35,0.0,0.63
-708,-4,-712,0.35,0.21,0.7
-710,-1,-713,0.63,0.35,0.7
-710,0,-713,0.21,0.35,0.7
-711,3,-709,0.21,0.49,0.7
-712,3,-708,-0.49,0.63,0.7
-712,1,-709,-0.98,0.7,0.63
-711,-1,-706,-1.19,0.84,0.63
-712,0,-709,-1.26,1.05,0.7
-710,4,-713,-1.05,1.26,0.7
-710,8,-718,-0.98,1.33,0.77
-710,9,-724,-0.91,1.19,0.77
-707,14,-728,-0.77,0.91,0.77
-707,14,-729,-0.91,0.56,0.77
-706,10,-727,-1.19,0.14,0.77
-707,8,-724,-0.98,-0.21,0.84
-704,3,-723,-0.63,-0.49,0.77
-701,1,-719,0.28,-0.7,0.91
-703,0,-717,0.63,-0.49,1.05
-701,3,-718,1.26,-0.49,1.19
-699,0,-719,1.75,-0.49,1.19
-699,2,-720,1.61,-0.35,1.19
-699,5,-717,1.47,-0.14,1.19
-697,10,-717,0.91,-0.07,1.12
-696,11,-720,0.14,-0.14,0.98
-701,5,-721,-0.49,-0.14,0.91
-700,4,-724,-0.63,-0.07,0.91
-696,4,-725,-0.49,-0.07,0.77
-695,8,-721,-0.49,-0.07,0.63
-694,10,-717,-0.91,-0.07,0.49
-695,13,-719,-1.05,-0.07,0.49
-696,10,-717,-1.05,0.07,0.49
-700,8,-723,-0.91,0.14,0.7
-704,5,-723,-0.28,0.21,0.77
-707,10,-727,0.35,0.14,0.7
-704,12,-732,0.98,-0.07,0.63
-702,17,-732,0.98,-0.35,0.63
-701,17,-731,0.77,-0.7,0.63
-703,14,-724,0.35,-1.05,0.63
-704,12,-723,-0.21,-1.33,0.63
-703,5,-721,-0.21,-1.54,0.63
-706,0,-723,-0.07,-1.61,0.7
-707,-2,-718,0.28,-1.61,0.7
-706,2,-718,0.7,-1.47,0.56
-708,7,-719,0.7,-1.54,0.49
-706,8,-715,0.21,-1.68,0.49
-705,9,-715,-0.49,-1.61,0.42
-703,9,-715,-0.84,-1.54,0.35
-700,10,-718,-1.05,-1.54,0.42
-701,7,-719,-1.26,-1.4,0.42
-703,7,-717,-1.33,-1.4,0.42
-705,11,-711,-1.54,-1.33,0.21
-701,12,-713,-1.33,-1.12,0.21
-700,12,-715,-0.63,-0.98,0.42
-706,10,-719,-0.42,-0.84,0.63
-708,7,-721,-0.07,-0.84,0.63
-706,11,-723,0.84,-0.98,0.49
-704,15,-721,0.63,-1.05,0.35
-707,14,-722,-0.28,-1.26,0.28
-707,14,-723,-0.84,-1.47,0.14
-704,14,-722,-1.54,-1.68,-0.07
-701,17,-724,-2.24,-1.75,-0.21
-701,14,-726,-2.87,-1.96,-0.35
-705,13,-723,-3.15,-2.17,-0.42
-704,10,-719,-3.01,-2.24,-0.56
-707,7,-713,-2.45,-2.24,-0.49
-706,7,-709,-1.68,-2.1,-0.42
-704,7,-703,-0.77,-1.89,-0.21
-705,6,-700,-0.07,-1.47,0.0
-709,7,-702,0.63,-1.05,0.07
-710,11,-707,1.47,-0.63,0.14
-710,17,-709,1.96,-0.35,0.0
-712,24,-711,1.4,-0.14,0.14
-707,28,-716,0.63,-0.07,-0.07
-704,24,-721,0.07,-0.21,-0.28
-706,19,-723,-0.63,-0.35,-0.28
-708,14,-721,-0.7,-0.56,-0.28
-707,8,-717,-0.63,-0.7,-0.35
-706,4,-713,0.14,-0.7,-0.28
-707,2,-711,0.98,-0.42,-0.07
-711,2,-715,1.89,-0.21,0.07
-708,9,-718,3.01,-0.21,0.0
-705,16,-717,3.15,-0.21,-0.07
-709,20,-717,2.31,-0.28,0.0
-711,16,-718,1.61,-0.49,-0.07
-709,12,-721,0.98,-0.63,-0.21
-706,7,-718,0.63,-0.77,-0.28
-706,3,-715,0.28,-0.77,-0.14
-703,1,-716,0.91,-0.7,-0.07
-703,-1,-716,1.61,-0.63,0.0
-704,2,-718,1.82,-0.56,0.14
-704,3,-718,2.17,-0.56,0.28
-702,8,-718,1.82,-0.49,0.28
-698,13,-717,1.26,-0.49,0.21
-697,13,-719,0.63,-0.49,0.21
-702,8,-723,-0.07,-0.49,0.21
-704,3,-724,-0.49,-0.56,0.28
-704,0,-727,-0.35,-0.63,0.21
-703,0,-725,-0.07,-0.7,0.14
-701,5,-719,-0.77,-0.84,0.14
-698,8,-719,-1.05,-1.05,0.14
-699,5,-716,-1.4,-0.98,0.28
-704,2,-718,-1.68,-0.91,0.49
-705,1,-719,-0.84,-0.84,0.35
-703,7,-721,-0.7,-0.84,0.28
-705,15,-722,-0.63,-0.91,0.35
-706,19,-723,-0.77,-1.05,0.42
-708,20,-720,-1.61,-1.33,0.42
-708,14,-717,-2.31,-1.47,0.35
-705,7,-711,-2.66,-1.54,0.28
-708,4,-708,-2.31,-1.4,0.35
-706,3,-707,-1.26,-1.26,0.56
-707,6,-712,0.35,-0.98,0.91
-711,7,-715,1.68,-0.77,1.12
-711,14,-719,2.38,-0.77,1.19
-711,20,-719,2.8,-0.91,0.98
-706,24,-718,1.96,-0.98,0.84
-702,22,-717,1.05,-1.12,0.91
-705,19,-718,0.42,-1.19,0.98
-707,10,-717,0.0,-1.4,0.98
-707,7,-716,0.42,-1.4,0.98
-708,1,-719,1.33,-1.33,0.98
-711,4,-720,2.8,-1.4,1.12
-712,9,-720,3.78,-1.47,1.19
-707,13,-722,3.78,-1.61,1.26
-703,16,-723,3.64,-1.75,1.19
-704,13,-725,2.45,-2.03,1.05
-704,11,-725,1.47,-2.31,0.84
-702,10,-725,0.77,-2.52,0.77
-702,9,-722,-0.07,-2.73,0.7
-698,10,-719,-0.77,-2.8,0.56
-698,9,-718,-0.98,-2.8,0.56
-698,8,-719,-0.98,-2.73,0.49
-699,7,-714,-0.91,-2.59,0.56
-700,6,-712,-1.05,-2.52,0.63
-696,7,-713,-0.98,-2.24,0.56
-699,8,-714,-0.77,-2.03,0.56
-702,14,-711,-0.98,-1.89,0.56
-706,12,-718,-1.26,-1.82,0.63
-710,12,-722,-0.98,-1.89,0.63
-707,16,-721,-1.19,-1.96,0.63
-706,16,-719,-1.68,-2.24,0.56
-702,15,-716,-1.47,-2.38,0.56
-703,14,-723,-0.98,-2.59,0.63
-708,11,-725,-0.42,-2.8,0.77
-709,15,-728,-0.21,-3.01,0.84
-706,15,-728,0.0,-3.29,0.63
-712,20,-734,-0.07,-3.78,0.35
-715,19,-731,-1.19,-4.55,0.0
-715,17,-727,-2.52,-5.32,-0.21
-715,14,-720,-3.08,-5.81,-0.42
-713,12,-715,-3.57,-6.3,-0.49
-711,12,-713,-3.85,-6.51,-0.56
-712,13,-707,-4.06,-6.58,-0.56
-713,10,-698,-4.27,-6.37,-0.56
-715,9,-692,-4.41,-6.16,-0.49
-717,6,-690,-3.57,-5.74,-0.42
-723,7,-682,-2.8,-5.11,-0.35
-724,12,-683,-2.59,-4.41,0.0
-724,13,-681,-1.68,-3.85,0.14
-727,19,-680,-1.4,-3.22,0.42
-730,21,-678,-1.4,-2.52,0.63
-729,24,-677,-1.82,-1.96,0.63
-726,24,-681,-2.24,-1.54,0.56
-729,23,-685,-2.59,-0.98,0.7
-733,21,-692,-3.15,-0.63,0.77
-733,18,-695,-2.87,-0.56,0.77
-729,19,-699,-2.24,-0.35,0.77
-723,22,-702,-1.54,-0.28,0.84
-720,27,-704,-0.98,-0.42,0.91
-717,33,-704,-0.49,-0.49,0.98
-718,30,-705,-0.49,-0.56,1.05
-723,31,-704,-0.21,-0.7,1.05
-722,28,-703,-0.21,-0.91,0.98
-718,26,-702,0.07,-0.91,0.98
-719,24,-703,0.7,-0.98,0.98
-718,21,-705,1.82,-1.05,1.05
-721,18,-703,3.15,-1.05,1.12
-723,23,-703,4.06,-0.98,1.19
-725,26,-699,4.55,-1.05,1.05
-717,27,-700,4.76,-1.05,0.91
-716,33,-700,4.41,-0.91,0.84
-718,35,-695,3.29,-0.84,0.7
-709,33,-694,2.31,-0.7,0.49
-707,29,-696,1.89,-0.42,0.49
-710,25,-700,1.82,-0.07,0.63
-712,15,-700,2.94,0.14,0.77
-714,12,-708,4.34,0.28,0.91
-719,5,-714,6.44,0.21,0.98
-727,2,-714,8.33,0.0,1.05
-726,0,-709,9.59,-0.28,0.91
-723,-6,-707,10.99,-0.63,0.84
-719,-2,-709,12.32,-0.7,0.84
-722,-2,-711,13.09,-0.84,0.77
-724,0,-708,13.3,-0.98,0.63
-727,2,-706,12.95,-1.12,0.28
-726,4,-704,12.18,-1.26,-0.14
-720,10,-700,10.99,-1.33,-0.49
-711,13,-697,9.59,-1.19,-0.63
-707,15,-701,8.26,-1.05,-0.7
-708,15,-703,7.42,-0.77,-0.56
-712,15,-704,6.37,-0.56,-0.56
-715,15,-703,5.46,-0.42,-0.7
-715,16,-698,4.13,-0.42,-0.77
-710,12,-704,3.08,-0.42,-0.91
-709,7,-708,3.01,-0.28,-0.91
-715,7,-712,2.8,-0.14,-0.7
-715,9,-712,2.87,-0.14,-0.77
-715,14,-709,2.73,-0.21,-0.84
-710,20,-709,1.89,-0.21,-0.84
-706,22,-707,1.54,-0.21,-0.84
-710,21,-706,0.56,-0.21,-0.7
-714,12,-711,-0.35,-0.42,-0.7
-718,1,-709,-0.35,-0.56,-0.77
-722,-7,-710,-0.56,-0.56,-0.91
-724,-10,-711,-0.21,-0.7,-0.98
-720,-8,-710,0.35,-0.77,-1.05
-720,-2,-705,-0.28,-0.91,-1.05
-722,0,-701,-1.26,-0.98,-1.19
-727,-2,-695,-2.45,-1.12,-1.4
-727,-3,-696,-3.15,-1.26,-1.47
-723,-4,-698,-2.59,-1.12,-1.54
-719,-3,-700,-2.38,-0.98,-1.47
-719,0,-704,-1.68,-0.91,-1.4
-718,0,-703,-0.98,-0.98,-1.4
-717,-3,-704,-0.49,-0.84,-1.33
-719,-7,-705,0.56,-0.77,-1.12
-721,-5,-707,1.47,-0.77,-0.98
-719,0,-708,2.52,-0.7,-0.84
-721,4,-708,2.73,-0.7,-0.84
-721,9,-708,2.45,-0.98,-0.91
-717,11,-703,2.03,-1.12,-1.12
-713,10,-702,1.26,-1.05,-1.12
-711,3,-701,0.49,-0.98,-1.05
-714,1,-699,-0.21,-0.77,-0.91
-716,-1,-701,-0.56,-0.63,-0.98
-718,-3,-702,-0.77,-0.49,-1.05
-717,-3,-706,-0.56,-0.28,-1.05
-717,-2,-707,0.14,-0.35,-1.05
-716,-2,-708,0.7,-0.42,-0.98
-713,-3,-706,0.98,-0.42,-0.98
-714,-6,-704,1.19,-0.35,-0.98
-712,-6,-705,1.75,-0.28,-0.98
-712,-3,-702,1.68,-0.21,-0.98
-714,0,-702,1.61,-0.14,-0.91
-716,1,-703,1.89,0.0,-0.77
-719,-1,-706,1.82,0.0,-0.77
-721,-4,-707,1.82,-0.07,-0.77
-723,-6,-706,2.24,-0.14,-0.77
-724,-6,-707,2.59,-0.21,-0.77
-721,-2,-707,2.52,-0.28,-0.7
-718,0,-708,2.24,-0.42,-0.63
-719,-1,-705,1.75,-0.49,-0.63
-719,-1,-705,1.4,-0.63,-0.63
-719,-10,-702,1.12,-0.63,-0.7
-719,-12,-701,1.05,-0.56,-0.63
-717,-14,-699,1.54,-0.35,-0.63
-717,-13,-698,1.68,-0.14,-0.56
-716,-11,-704,1.89,0.07,-0.42
-715,-10,-709,2.1,0.07,-0.42
-719,-9,-709,1.54,0.0,-0.35
-720,-8,-711,1.12,-0.14,-0.49
-720,-13,-709,0.84,-0.28,-0.63
-723,-10,-706,0.0,-0.42,-0.63
-716,-7,-707,-0.63,-0.63,-0.7
-714,-8,-709,-0.63,-0.63,-0.77
-715,-9,-710,-0.98,-0.63,-0.63
-714,-10,-709,-1.05,-0.7,-0.63
-713,-10,-711,-0.56,-0.77,-0.7
-713,-10,-712,-0.35,-0.91,-0.77
-718,-5,-710,-0.63,-0.91,-0.63
-720,-9,-708,-0.91,-1.12,-0.56
-715,-11,-708,-0.28,-1.33,-0.7
-716,-11,-707,0.07,-1.33,-0.56
-717,-10,-710,0.98,-1.26,-0.21
-714,-13,-708,1.89,-1.4,-0.07
-714,-12,-709,2.73,-1.47,0.07
-721,-16,-711,3.78,-1.47,0.14
-723,-10,-708,4.06,-1.68,0.14
-722,-6,-705,3.64,-1.82,0.07
-718,-4,-703,3.22,-1.89,0.0
-719,-4,-706,2.66,-1.82,0.14
-719,-9,-706,2.52,-1.89,0.21
-719,-12,-704,2.03,-1.89,0.28
-717,-13,-705,1.96,-1.82,0.21
-717,-16,-704,1.75,-1.68,0.07
-718,-13,-699,0.63,-1.68,0.14
-711,-11,-697,-0.56,-1.54,0.14
-706,-15,-697,-1.47,-1.4,0.07
-709,-16,-702,-2.52,-1.19,0.14
-712,-20,-706,-3.01,-1.05,0.0
-715,-18,-712,-3.15,-0.91,-0.21
-718,-13,-712,-3.29,-1.05,-0.28
-720,-7,-713,-3.71,-1.12,-0.42
-717,-3,-711,-4.34,-1.47,-0.56
-714,0,-706,-5.46,-1.75,-0.63
-715,-3,-700,-6.23,-1.82,-0.7
-717,-8,-697,-6.51,-1.68,-0.63
-714,-13,-698,-5.46,-1.54,-0.63
-718,-14,-699,-3.92,-1.19,-0.42
-723,-10,-699,-2.59,-0.98,-0.21
-723,-1,-701,-1.05,-0.84,-0.21
-724,2,-702,-0.42,-0.84,-0.28
-728,5,-699,-0.84,-0.91,-0.14
-723,3,-699,-0.77,-0.98,-0.28
-718,1,-699,0.14,-0.91,-0.21
-720,-2,-696,0.35,-0.77,0.0
-721,-4,-695,1.19,-0.63,0.14
-725,-4,-696,2.38,-0.49,0.21
-725,-5,-694,2.8,-0.28,0.28
-722,-6,-699,3.57,-0.07,0.28
-722,-7,-703,4.2,0.07,0.35
-722,-9,-706,4.27,0.0,0.42
-720,-8,-706,4.34,-0.07,0.35
-719,-8,-702,3.99,-0.07,0.21
-717,-9,-703,3.36,-0.07,0.14
-715,-6,-703,3.22,-0.14,0.07
-717,-5,-702,2.45,0.0,0.07
-717,-6,-703,1.33,0.07,0.07
-716,-9,-707,0.7,0.07,-0.14
-716,-12,-708,0.21,0.0,-0.42
-720,-14,-705,-0.56,-0.07,-0.42
-718,-11,-707,-0.98,-0.14,-0.49
-715,-10,-707,-0.56,-0.21,-0.56
-718,-7,-707,-0.49,-0.21,-0.35
-721,-7,-706,-0.21,-0.28,-0.28
-724,-11,-702,0.35,-0.42,-0.28
-725,-10,-703,1.05,-0.49,-0.21
-722,-12,-702,1.82,-0.42,-0.14
-721,-11,-704,2.38,-0.35,0.07
-719,-9,-704,2.52,-0.28,0.07
-717,-6,-705,2.24,-0.35,0.0
-715,-6,-705,1.68,-0.35,-0.07
-715,-10,-704,0.63,-0.42,-0.07
-713,-13,-704,0.21,-0.42,-0.07
-712,-12,-705,0.35,-0.35,-0.07
-714,-12,-709,0.77,-0.28,0.0
-717,-14,-712,1.19,-0.35,0.14
-717,-16,-710,1.47,-0.42,0.14
-713,-17,-708,2.03,-0.49,0.07
-713,-16,-705,2.31,-0.42,0.21
-712,-13,-708,2.1,-0.49,0.21
-711,-11,-710,1.75,-0.56,0.14
-715,-7,-710,0.98,-0.56,0.07
-717,-6,-711,-0.07,-0.7,-0.07
-715,-8,-709,-0.84,-0.7,-0.28
-712,-10,-705,-1.75,-0.84,-0.42
-710,-8,-706,-2.45,-0.77,-0.49
-713,-7,-705,-3.01,-0.7,-0.42
-713,-3,-706,-3.5,-0.49,-0.42
-716,0,-706,-5.25,-0.56,-0.49
-719,-4,-708,-6.65,-0.84,-0.77
-723,-12,-709,-7.28,-0.98,-1.12
-722,-16,-710,-7.07,-1.19,-1.26
-724,-19,-710,-6.44,-1.33,-1.19
-725,-18,-710,-4.83,-1.4,-1.12
-722,-11,-707,-3.71,-1.54,-1.12
-716,-5,-705,-2.73,-1.47,-0.91
-714,0,-704,-1.96,-1.47,-0.77
-712,4,-701,-1.54,-1.47,-0.77
-711,4,-701,-1.12,-1.4,-0.56
-717,0,-701,-0.7,-1.33,-0.49
-721,-5,-701,-0.07,-1.19,-0.42
-718,-10,-701,0.84,-0.98,-0.35
-716,-13,-702,1.82,-0.84,-0.14
-720,-12,-704,2.87,-0.77,0.0
-722,-10,-702,3.15,-0.77,0.07
-721,-4,-702,2.94,-0.7,0.07
-723,-1,-701,2.52,-0.7,-0.07
-724,0,-702,1.47,-0.84,-0.14
-721,-4,-702,0.35,-0.91,-0.21
-714,-11,-702,0.14,-0.84,-0.28
-712,-18,-701,0.28,-0.77,-0.28
-714,-19,-703,0.84,-0.49,-0.14
-715,-14,-705,1.75,-0.35,-0.07
-715,-8,-710,1.82,-0.42,0.0
-720,-3,-711,1.19,-0.56,-0.07
-723,-3,-712,0.49,-0.84,-0.21
-720,-7,-712,-0.07,-1.05,-0.49
-722,-11,-708,-1.33,-1.26,-0.7
-721,-12,-702,-2.73,-1.4,-0.98
-716,-10,-707,-3.01,-1.54,-1.12
-713,-8,-701,-3.64,-1.54,-1.12
-714,-5,-707,-5.04,-1.47,-0.98
-714,-9,-707,-4.62,-1.61,-1.19
-717,-11,-707,-4.48,-1.54,-1.12
-714,-11,-706,-3.43,-1.47,-1.05
-715,-7,-711,-1.89,-1.33,-1.05
-713,-5,-707,-0.84,-1.47,-0.98
-714,2,-707,-0.56,-1.54,-0.77
-712,1,-709,-0.07,-1.54,-0.63
-715,0,-708,0.42,-1.68,-0.56
-718,1,-707,0.42,-1.75,-0.49
-716,-3,-704,0.28,-1.54,-0.49
-715,-5,-701,0.14,-1.54,-0.56
-715,-8,-701,0.07,-1.61,-0.63
-716,-9,-697,-0.28,-1.47,-0.63
-716,-11,-697,-0.42,-1.19,-0.49
-712,-13,-694,0.07,-0.91,-0.49
-713,-11,-695,0.07,-0.56,-0.28
-716,-10,-696,0.0,-0.14,-0.21
-718,-6,-700,-0.07,0.07,-0.35
-720,-3,-701,-0.07,0.07,-0.42
-728,-2,-705,-0.77,0.14,-0.28
-729,-5,-703,-1.61,-0.07,-0.42
-729,-12,-704,-1.82,-0.28,-0.56
-728,-12,-702,-1.96,-0.35,-0.56
-723,-12,-705,-1.89,-0.42,-0.56
-719,-11,-704,-1.61,-0.42,-0.49
-718,-5,-704,-1.75,-0.49,-0.42
-717,-6,-705,-1.75,-0.49,-0.49
-718,-5,-706,-1.89,-0.49,-0.56
-720,-1,-705,-2.31,-0.56,-0.56
-719,-2,-705,-3.22,-0.7,-0.7
-719,-1,-706,-3.64,-0.77,-0.77
-721,-7,-706,-3.92,-0.91,-0.77
-722,-9,-705,-3.71,-0.91,-0.84
-720,-7,-704,-2.66,-0.84,-0.91
-719,-2,-701,-2.17,-0.77,-0.91
-720,1,-701,-1.82,-0.77,-0.98
-721,3,-701,-1.68,-0.84,-0.84
-725,2,-698,-1.96,-0.84,-0.56
-727,-1,-701,-1.47,-0.84,-0.49
-727,-9,-700,-0.84,-0.84,-0.42
-726,-10,-697,-0.49,-0.7,-0.35
-724,-9,-696,0.35,-0.56,-0.42
-719,-3,-695,0.63,-0.42,-0.49
-718,3,-697,0.28,-0.28,-0.42
-719,7,-699,-0.14,-0.07,-0.28
-723,5,-701,-0.98,-0.07,-0.28
-724,0,-703,-1.54,-0.21,-0.28
-719,-4,-706,-1.26,-0.21,-0.42
-716,-5,-704,-0.7,-0.14,-0.42
-715,-5,-706,-0.07,-0.14,-0.28
-714,-4,-706,0.91,-0.07,-0.07
-715,0,-707,1.26,-0.07,0.07
-713,1,-709,1.47,-0.14,0.14
-716,0,-708,1.33,-0.28,0.07
-718,-1,-708,0.77,-0.35,0.07
-718,-5,-708,0.77,-0.42,0.0
-717,-3,-711,0.84,-0.56,0.0
-717,-2,-711,0.14,-0.84,-0.07
-720,-5,-710,-0.63,-0.98,-0.14
-718,-3,-705,-1.12,-1.12,-0.28
-715,-4,-702,-1.54,-1.12,-0.35
-715,-6,-700,-1.82,-1.05,-0.21
-718,-11,-698,-2.03,-0.91,-0.07
-719,-14,-698,-1.61,-0.77,0.0
-717,-12,-699,-0.84,-0.49,-0.07
-718,-4,-697,-0.28,-0.28,0.0
-717,6,-706,-0.63,-0.14,0.14
-717,7,-706,-0.84,-0.14,0.21
-719,6,-710,-1.47,-0.28,0.14
-720,10,-710,-1.96,-0.42,0.07
-720,3,-710,-2.31,-0.63,0.14
-720,-1,-708,-2.59,-0.77,0.28
-720,-5,-706,-2.38,-0.84,0.28
-717,-4,-705,-1.47,-0.91,0.28
-718,0,-707,-1.26,-0.91,0.42
-718,1,-705,-1.12,-0.91,0.42
-717,2,-701,-1.19,-0.91,0.42
-717,1,-703,-1.68,-0.91,0.42
-718,-5,-704,-1.68,-1.05,0.35
-718,-7,-704,-1.12,-0.98,0.35
-716,-5,-706,-0.49,-0.77,0.35
-711,-6,-707,0.21,-0.77,0.42
-713,-1,-709,0.77,-0.84,0.56
-718,1,-711,1.05,-0.84,0.56
-722,4,-710,0.63,-1.05,0.49
-722,8,-707,-0.28,-1.33,0.35
-723,9,-704,-1.4,-1.47,0.14
-721,5,-700,-2.73,-1.61,0.0
-718,1,-697,-3.43,-1.61,0.0
-716,-2,-699,-3.29,-1.4,-0.07
-718,-5,-696,-2.87,-1.12,-0.07
-720,-1,-698,-2.38,-0.91,0.0
-719,0,-699,-1.12,-0.77,-0.07
-722,4,-701,-0.56,-0.49,0.07
-725,5,-702,-0.49,-0.49,0.14
-721,8,-707,0.21,-0.56,0.14
-718,9,-714,0.84,-0.7,0.07
-714,13,-718,1.26,-0.91,0.07
-711,9,-718,1.61,-1.26,-0.07
-712,11,-714,1.68,-1.61,-0.07
-713,8,-712,1.82,-1.89,-0.07
-712,2,-709,1.89,-2.1,-0.14
-710,1,-707,1.75,-2.1,-0.07
-712,-1,-709,1.75,-2.17,0.0
-713,-1,-705,2.17,-2.17,-0.07
-718,1,-699,2.24,-2.03,-0.07
-723,5,-695,1.61,-1.96,-0.07
-722,1,-696,1.61,-1.89,-0.21
-722,4,-701,1.68,-1.75,-0.21
-722,2,-703,1.05,-1.68,-0.14
-716,6,-710,1.26,-1.75,-0.14
-719,9,-715,1.47,-1.89,-0.21
-723,10,-714,0.98,-2.31,-0.35
-722,10,-713,0.35,-2.66,-0.56
-718,6,-707,-0.07,-3.01,-0.84
-717,2,-699,-0.63,-3.08,-0.98
-715,-3,-698,-0.63,-3.08,-0.91
-714,-8,-699,0.49,-3.01,-0.77
-717,-7,-700,1.89,-2.8,-0.56
-722,-2,-703,3.08,-2.59,-0.42
-725,0,-699,3.78,-2.59,-0.35
-726,5,-699,3.71,-2.59,-0.42
-726,7,-702,3.36,-2.73,-0.49
-722,7,-704,2.73,-2.87,-0.56
-719,7,-706,1.26,-3.08,-0.7
-718,1,-705,0.42,-3.22,-0.91
-721,-1,-711,-0.21,-3.57,-1.12
-725,1,-713,-1.12,-4.06,-1.4
-725,-3,-708,-1.82,-4.48,-1.54
-725,-4,-703,-2.38,-4.69,-1.54
-722,-7,-703,-2.1,-4.83,-1.54
-718,-13,-698,-0.91,-4.83,-1.47
-720,-11,-692,0.07,-4.62,-1.19
-722,-10,-687,0.84,-4.34,-0.84
-721,-10,-683,1.61,-3.99,-0.84
-725,-6,-681,1.96,-3.57,-0.63
-733,-6,-684,1.75,-3.22,-0.63
-736,-6,-684,1.19,-3.01,-0.63
-736,-4,-683,0.21,-2.87,-0.77
-737,-3,-677,-0.77,-2.52,-0.91
-737,-2,-674,-1.68,-2.24,-0.91
-736,0,-672,-2.45,-1.89,-0.84
-735,-6,-675,-2.66,-1.4,-0.7
-740,-10,-674,-2.73,-1.05,-0.56
-742,-10,-680,-2.24,-0.77,-0.49
-737,-12,-686,-0.56,-0.49,-0.49
-739,-6,-688,0.7,-0.28,-0.21
-747,-1,-687,1.05,-0.14,0.0
-743,1,-683,1.26,-0.28,0.0
-739,2,-682,0.7,-0.21,-0.07
-739,0,-682,0.35,0.0,0.07
-740,-3,-685,0.35,0.14,0.21
-737,-5,-682,0.14,0.21,0.28
-738,-7,-684,-0.14,0.42,0.42
-736,-8,-686,-0.14,0.63,0.28
-735,-6,-685,-0.56,0.63,0.21
-732,-4,-688,-1.4,0.77,0.21
-733,-6,-686,-2.24,0.84,0.14
-732,-7,-686,-3.08,0.91,0.07
-729,-12,-684,-3.08,1.12,0.0
-728,-12,-686,-2.52,1.47,0.07
-725,-9,-688,-1.54,1.75,0.14
-723,-3,-690,-0.7,1.96,0.21
-723,4,-694,-0.28,2.24,0.35
-723,7,-699,-0.21,2.31,0.49
-728,3,-700,-0.56,2.17,0.49
-725,1,-697,-0.77,2.1,0.56
-721,0,-698,-0.49,2.1,0.49
-724,1,-697,-0.63,2.03,0.49
-725,2,-699,-1.05,1.96,0.56
-720,0,-701,-0.77,1.82,0.49
-721,0,-703,-0.49,1.75,0.63
-726,-1,-703,-0.63,1.68,0.84
-725,-3,-702,-0.56,1.61,0.77
-721,0,-703,-0.56,1.54,0.63
-725,5,-707,-1.19,1.4,0.63
-726,10,-707,-2.52,1.19,0.49
-719,11,-708,-4.13,0.84,0.07
-717,7,-706,-5.46,0.49,-0.21
-717,2,-701,-5.88,0.42,-0.21
-716,-2,-699,-5.6,0.42,-0.07
-717,-7,-700,-4.13,0.56,0.14
-717,-6,-702,-2.1,0.84,0.35
-718,1,-706,-0.77,0.98,0.56
-716,6,-701,0.14,1.05,0.63
-714,13,-706,0.35,1.05,0.7
-713,11,-709,0.63,0.91,0.56
-715,13,-704,0.21,0.84,0.63
-713,10,-706,-0.56,0.91,0.63
-711,6,-710,-0.07,0.84,0.35
-715,4,-710,0.35,0.7,0.35
-719,5,-709,0.21,0.56,0.42
-715,4,-713,0.98,0.42,0.49
-713,4,-713,2.03,0.14,0.42
-714,9,-712,2.31,-0.07,0.56
-714,9,-714,2.45,-0.21,0.56
-713,10,-708,2.24,-0.42,0.49
-715,7,-703,1.61,-0.63,0.49
-717,3,-703,1.54,-0.63,0.42
-718,0,-701,1.68,-0.49,0.49
-719,0,-702,1.4,-0.42,0.49
-721,-1,-702,1.47,-0.35,0.49
-726,0,-701,1.33,-0.35,0.42
-722,3,-702,0.98,-0.42,0.28
-721,3,-703,0.91,-0.42,0.28
-722,4,-704,0.63,-0.42,0.42
-720,6,-706,0.21,-0.56,0.35
-718,4,-702,0.07,-0.63,0.21
-723,9,-704,-0.63,-0.56,0.35
-719,5,-704,-0.49,-0.7,0.28
-720,4,-704,-0.42,-0.7,0.28
-722,5,-702,-0.28,-0.7,0.35
-721,3,-704,0.21,-0.63,0.42
-719,4,-703,0.63,-0.7,0.42
-722,2,-700,0.63,-0.7,0.49
-720,0,-699,0.77,-0.56,0.49
-715,0,-702,1.12,-0.56,0.49
-714,3,-705,1.19,-0.49,0.49
-717,8,-709,1.26,-0.49,0.49
-720,8,-708,0.84,-0.63,0.49
-718,8,-707,0.07,-0.84,0.42
-714,4,-708,0.07,-0.98,0.28
-716,0,-706,0.07,-1.05,0.28
-719,-1,-704,0.14,-0.98,0.42
-718,-1,-703,0.84,-0.98,0.42
-716,1,-702,1.12,-0.91,0.42
-716,4,-704,1.33,-0.84,0.42
-722,12,-707,1.54,-0.77,0.49
-722,6,-701,0.84,-0.84,0.49
-717,8,-699,0.49,-0.77,0.42
-718,8,-700,0.84,-0.56,0.35
-721,5,-698,0.35,-0.56,0.35
-725,6,-697,-0.35,-0.63,0.42
-723,2,-697,0.21,-0.49,0.35
-720,4,-699,0.42,-0.35,0.42
-720,4,-704,0.91,-0.28,0.56
-724,5,-701,1.26,-0.21,0.56
-727,9,-701,0.7,-0.28,0.63
-725,4,-700,0.56,-0.28,0.63
-727,1,-699,0.28,-0.35,0.63
-726,-1,-700,-0.21,-0.35,0.84
-725,-2,-698,-0.14,-0.28,0.84
-724,-1,-696,-0.63,-0.14,0.77
-723,0,-697,-1.26,0.0,0.56
-721,0,-700,-1.75,0.14,0.42
-719,3,-700,-2.59,0.14,0.35
-723,4,-700,-3.64,0.21,0.35
-724,3,-699,-4.2,0.21,0.28
-721,1,-704,-4.2,0.14,0.14
-720,2,-704,-3.85,0.14,0.21
-720,5,-704,-3.43,0.28,0.28
-717,6,-703,-2.66,0.35,0.28
-709,10,-703,-1.75,0.42,0.42
-705,10,-704,-1.05,0.63,0.63
-708,9,-707,-0.35,0.77,0.84
-714,10,-715,0.28,0.84,1.05
-716,12,-720,0.63,0.56,0.91
-718,17,-716,0.0,0.28,0.63
-716,21,-714,-1.05,-0.07,0.28
-712,18,-711,-1.75,-0.49,0.0
-712,14,-709,-2.31,-0.63,-0.07
-712,7,-705,-2.45,-0.56,0.0
-707,4,-706,-1.82,-0.42,0.0
-708,5,-710,-0.56,-0.35,0.0
-712,8,-709,0.21,-0.28,-0.07
-714,17,-708,0.42,-0.28,-0.07
-717,18,-706,0.28,-0.35,-0.14
-717,19,-705,-0.28,-0.42,-0.14
-713,18,-707,-0.35,-0.35,-0.21
-709,16,-708,-0.35,-0.35,-0.14
-712,14,-708,-0.21,-0.42,-0.07
-715,12,-709,0.35,-0.42,-0.07
-719,9,-706,1.12,-0.35,0.0
-721,8,-706,1.61,-0.35,0.0
-718,8,-710,2.38,-0.42,0.07
-719,8,-710,2.73,-0.49,0.07
-720,10,-712,2.31,-0.7,0.07
-723,9,-711,2.24,-0.91,-0.07
-721,9,-709,1.47,-1.12,-0.21
-716,14,-711,0.77,-1.26,-0.42
-712,12,-709,0.35,-1.4,-0.56
-710,13,-708,-0.42,-1.54,-0.56
-711,10,-709,-0.56,-1.61,-0.63
-713,5,-709,-0.49,-1.61,-0.77
-714,5,-713,-0.28,-1.68,-0.7
-715,6,-709,0.56,-1.82,-0.7
-719,9,-707,0.7,-1.82,-0.7
-718,9,-703,0.91,-1.82,-0.7
-716,7,-701,1.05,-1.68,-0.77
-711,5,-701,1.26,-1.61,-0.7
-710,5,-704,1.82,-1.47,-0.77
-713,8,-708,2.17,-1.33,-0.7
-717,12,-706,2.03,-1.26,-0.77
-716,13,-703,1.54,-1.19,-0.91
-718,12,-704,1.12,-1.19,-0.98
-723,9,-702,0.91,-1.19,-1.05
-723,6,-701,0.84,-1.12,-0.98
-723,10,-702,1.19,-1.12,-0.91
-721,7,-701,1.4,-1.05,-0.91
-717,10,-699,1.82,-0.98,-0.91
-716,8,-696,1.89,-0.84,-0.77
-718,6,-699,2.17,-0.7,-0.63
-721,3,-700,2.73,-0.42,-0.49
-725,-1,-694,2.52,-0.35,-0.42
-721,-7,-700,3.15,-0.14,-0.49
-722,1,-701,4.2,0.14,-0.56
-728,7,-705,3.71,0.07,-0.28
-721,7,-704,3.36,-0.07,-0.42
-722,11,-707,2.38,-0.14,-0.63
-723,5,-712,1.68,-0.35,-0.77
-719,1,-714,1.12,-0.7,-0.98
-717,3,-718,0.77,-0.91,-0.98
-711,2,-715,0.91,-1.19,-1.05
-706,3,-718,0.84,-1.47,-1.12
-704,4,-719,1.4,-1.68,-1.33
-707,1,-713,0.91,-1.89,-1.47
-708,0,-706,0.49,-1.96,-1.4
-712,-6,-703,0.63,-1.82,-1.4
-715,-11,-699,0.84,-1.68,-1.4
-714,-14,-696,0.7,-1.4,-1.26
-713,-21,-691,0.98,-0.98,-1.26
-711,-13,-690,1.05,-0.56,-1.26
-711,-3,-691,1.05,-0.14,-1.12
-717,-2,-695,0.42,0.35,-1.12
-722,-2,-699,-0.21,0.49,-1.12
-725,1,-701,-0.56,0.56,-1.05
-727,0,-705,-0.49,0.42,-0.98
-728,-1,-709,-0.49,0.42,-0.91
-729,-7,-708,0.0,0.21,-0.84
-726,-4,-710,0.77,0.0,-0.77
-725,2,-710,1.61,-0.14,-0.63
-726,5,-708,1.47,-0.35,-0.56
-726,6,-706,1.12,-0.63,-0.49
-726,6,-702,0.7,-0.77,-0.49
-722,5,-699,0.07,-0.77,-0.49
-718,1,-703,-0.07,-0.63,-0.42
-717,0,-707,0.0,-0.63,-0.28
-712,1,-709,-0.07,-0.7,-0.14
-709,0,-712,-0.21,-0.7,-0.07
-710,-3,-714,-0.63,-0.77,0.0
-711,-6,-719,-1.19,-0.98,0.0
-714,-12,-715,-2.03,-1.26,-0.14
-716,-14,-706,-3.5,-1.4,-0.21
-711,-17,-706,-4.13,-1.47,-0.49
-707,-21,-707,-4.34,-1.4,-0.7
-710,-13,-708,-4.9,-1.26,-0.56
-710,-9,-707,-5.04,-1.26,-0.7
-715,-5,-709,-5.39,-1.26,-0.84
-719,1,-705,-5.88,-1.26,-0.98
-720,4,-705,-6.23,-1.19,-1.19
-723,2,-700,-6.72,-1.26,-1.26
-723,1,-696,-7.07,-1.19,-1.05
-721,-1,-695,-6.09,-0.91,-0.84
-720,-2,-695,-4.48,-0.63,-0.63
-722,2,-692,-3.08,-0.28,-0.35
-725,9,-688,-2.31,0.07,-0.14
-727,8,-684,-2.03,0.42,0.0
-730,9,-689,-1.61,0.77,0.07
-731,6,-698,-0.84,0.98,0.21
-729,9,-703,-0.28,1.12,0.49
-726,14,-705,-0.07,1.12,0.56
-721,14,-705,0.14,0.98,0.56
-716,14,-704,0.07,0.84,0.56
-716,10,-705,0.14,0.91,0.63
-714,5,-708,0.63,0.91,0.84
-714,5,-711,1.05,0.84,1.05
-714,5,-712,1.26,0.84,1.05
-711,4,-711,1.19,0.7,0.84
-706,3,-709,1.26,0.63,0.77
-704,4,-710,1.47,0.63,0.84
-701,5,-714,1.75,0.7,0.84
-708,6,-717,1.54,0.7,0.77
-712,8,-719,1.12,0.56,0.7
-710,9,-718,0.91,0.35,0.42
-711,8,-715,0.21,0.07,0.28
-712,11,-715,0.0,-0.07,0.21
-708,8,-715,0.07,-0.21,0.07
-708,12,-712,-0.21,-0.35,0.0
-711,11,-709,-0.56,-0.35,0.07
-716,7,-707,-0.42,-0.35,-0.07
-716,8,-706,-0.14,-0.35,-0.21
-717,8,-706,0.21,-0.28,0.0
-717,9,-711,0.7,-0.28,0.07
-717,9,-714,1.19,-0.35,0.07
-716,10,-712,1.33,-0.49,0.0
-714,8,-711,1.33,-0.56,-0.07
-713,3,-709,1.4,-0.7,-0.07
-711,0,-706,1.61,-0.63,0.07
-711,-3,-705,1.54,-0.49,0.14
-713,-2,-706,1.75,-0.42,0.21
-714,-3,-707,1.89,-0.28,0.07
-716,1,-712,1.75,-0.21,0.07
-714,6,-712,1.4,-0.28,-0.07
-711,9,-712,0.7,-0.42,-0.14
-711,6,-711,-0.28,-0.56,-0.21
-710,2,-710,-0.7,-0.63,-0.28
-709,-1,-712,-0.56,-0.63,-0.28
-711,-2,-711,0.07,-0.63,-0.14
-712,0,-708,0.21,-0.42,0.0
-712,4,-712,0.63,-0.42,-0.14
-710,7,-712,1.26,-0.42,-0.21
-710,13,-714,0.98,-0.42,-0.14
-712,14,-714,0.49,-0.49,-0.14
-713,12,-711,-0.28,-0.7,-0.21
-712,10,-710,-0.77,-0.77,-0.35
-713,5,-704,-1.19,-0.7,-0.28
-712,1,-702,-1.54,-0.63,-0.21
-712,-2,-701,-0.98,-0.42,-0.07
-717,-1,-704,-0.21,-0.21,0.0
-722,0,-702,-0.14,0.0,0.07
-722,0,-706,-0.07,0.07,0.07
-722,1,-706,0.07,0.0,0.0
-721,4,-708,-0.35,-0.07,0.0
-716,8,-710,-0.28,-0.21,0.0
-714,5,-709,-0.56,-0.14,-0.07
-714,4,-711,-0.63,-0.07,-0.07
-713,0,-706,-0.21,-0.07,0.0
-712,1,-707,0.49,0.0,0.14
-713,1,-708,1.19,0.14,0.28
-715,1,-708,1.47,0.28,0.28
-714,3,-711,1.4,0.28,0.35
-713,4,-714,1.54,0.35,0.21
-708,10,-716,1.47,0.21,0.07
-704,11,-716,0.91,0.14,0.07
-704,8,-713,0.14,0.0,0.21
-702,7,-719,0.28,-0.07,0.0
-703,4,-723,1.12,-0.21,-0.07
-711,6,-722,0.84,-0.42,0.0
-712,6,-722,0.84,-0.63,-0.07
-711,8,-717,1.12,-0.91,-0.35
-710,10,-712,0.42,-1.12,-0.42
-707,8,-709,0.14,-1.12,-0.35
-703,5,-708,0.14,-1.05,-0.28
-704,0,-705,0.07,-0.84,-0.21
-705,-3,-711,0.91,-0.63,-0.14
-708,-2,-711,1.75,-0.42,-0.14
-712,0,-711,1.75,-0.21,-0.07
-716,3,-710,1.75,-0.21,-0.14
-716,4,-709,1.33,-0.28,-0.21
-717,5,-712,0.63,-0.42,-0.21
-719,0,-708,0.0,-0.56,-0.28
-720,0,-711,-0.28,-0.56,-0.28
-715,-3,-712,0.42,-0.63,-0.42
-718,0,-715,0.84,-0.7,-0.35
-718,5,-713,1.12,-0.84,-0.21
-716,8,-715,1.4,-0.98,-0.28
-713,8,-714,1.33,-1.19,-0.28
-711,7,-714,1.05,-1.4,-0.28
-707,2,-710,0.98,-1.4,-0.21
-708,-3,-709,1.05,-1.33,-0.14
-707,-5,-708,1.26,-1.19,-0.07
-703,-4,-713,1.89,-0.98,-0.14
-704,0,-717,2.17,-0.84,-0.21
-706,5,-717,1.33,-0.84,-0.28
-705,6,-715,0.35,-0.91,-0.42
-701,5,-716,-0.35,-0.98,-0.7
-700,6,-720,-0.98,-1.05,-0.7
-705,2,-718,-1.19,-1.19,-0.49
-706,-2,-716,-1.33,-1.26,-0.49
-708,-3,-718,-0.49,-1.33,-0.56
-711,-3,-715,0.56,-1.4,-0.56
-714,1,-714,0.98,-1.47,-0.42
-715,7,-712,1.26,-1.61,-0.28
-716,11,-711,0.84,-1.68,-0.28
-717,14,-708,0.14,-1.82,-0.35
-720,5,-708,-1.12,-1.96,-0.49
-719,-2,-705,-2.03,-2.24,-0.7
-716,-8,-705,-1.75,-2.17,-0.84
-711,-13,-711,-0.98,-2.1,-0.77
-715,-11,-711,-0.35,-2.03,-0.63
-718,-4,-709,0.21,-1.96,-0.56
-717,-1,-708,0.28,-1.96,-0.63
-716,5,-704,-0.28,-1.96,-0.77
-713,4,-706,-0.84,-1.96,-0.84
-712,3,-705,-1.19,-1.89,-0.84
-712,5,-704,-1.4,-1.75,-0.84
-708,3,-709,-1.12,-1.61,-0.84
-709,5,-715,-0.63,-1.61,-0.84
-714,3,-713,-0.56,-1.68,-0.84
-715,5,-712,-0.49,-1.68,-0.84
-708,5,-709,-0.07,-1.68,-0.91
-708,3,-710,0.07,-1.61,-0.91
-709,0,-704,0.21,-1.47,-0.7
-710,-2,-703,0.7,-1.33,-0.63
-714,-3,-700,1.75,-1.12,-0.49
-718,-3,-695,1.96,-0.84,-0.35
-718,0,-696,2.03,-0.42,-0.28
-720,1,-700,2.59,-0.21,-0.14
-727,7,-704,2.52,-0.14,0.07
-730,7,-707,1.33,-0.21,0.14
-726,1,-708,0.28,-0.49,-0.14
-724,-4,-711,-0.07,-0.7,-0.28
-721,-5,-713,0.77,-0.91,-0.14
-722,-11,-714,0.91,-1.05,-0.14
-720,-8,-709,1.05,-1.26,-0.07
-713,-7,-709,1.26,-1.4,-0.07
-710,-10,-706,1.33,-1.47,-0.07
-712,-9,-706,1.19,-1.47,0.07
-708,-7,-707,1.4,-1.33,0.14
-709,-8,-704,1.4,-1.19,0.14
-714,-6,-709,0.98,-1.12,0.14
-715,-7,-710,0.91,-1.19,0.0
-717,-3,-713,0.49,-1.26,-0.07
-719,-1,-713,-0.35,-1.47,-0.14
-715,-1,-711,-1.19,-1.54,-0.28
-710,-1,-712,-1.96,-1.68,-0.35
-710,-2,-712,-2.17,-1.75,-0.35
-711,-5,-707,-2.8,-1.75,-0.35
-713,-8,-700,-3.36,-1.61,-0.42
-714,-11,-694,-3.22,-1.33,-0.56
-714,-10,-691,-3.01,-0.91,-0.49
-713,-9,-691,-2.66,-0.42,-0.28
-717,-7,-697,-2.03,0.07,0.14
-724,-4,-702,-0.7,0.28,0.21
-728,1,-702,-0.42,0.35,0.14
-731,6,-704,-0.77,0.42,-0.21
-725,6,-705,-1.19,0.28,-0.56
-722,6,-706,-2.03,0.28,-0.77
-722,3,-701,-2.38,0.21,-0.77
-720,-3,-706,-2.24,0.28,-0.84
-714,-6,-703,-0.98,0.35,-0.84
-713,-1,-709,0.63,0.42,-0.77
-710,2,-711,2.24,0.42,-0.63
-710,15,-709,3.01,0.35,-0.49
-709,24,-709,3.36,0.28,-0.42
-710,24,-708,3.08,0.35,-0.28
-715,23,-710,2.31,0.21,-0.14
-715,15,-703,1.96,0.21,-0.07
-713,7,-698,1.68,0.28,-0.14
-713,1,-695,2.1,0.63,0.0
-710,-7,-696,3.08,0.91,0.07
-707,-6,-704,4.13,1.19,0.21
-709,-3,-710,5.18,1.54,0.35
-714,0,-712,5.11,1.68,0.35
-712,7,-713,4.62,1.54,0.14
-709,4,-716,3.92,1.4,-0.07
-709,4,-723,3.29,1.26,-0.14
-710,-3,-726,2.8,0.84,-0.21
-713,-6,-723,2.59,0.49,-0.28
-711,-13,-718,2.8,0.28,-0.49
-706,-14,-718,3.29,0.21,-0.63
-705,-12,-719,3.64,0.07,-0.63
-704,-7,-718,3.43,-0.07,-0.49
-706,-2,-715,2.73,-0.14,-0.56
-707,-2,-713,1.26,-0.21,-0.77
-709,-2,-711,0.07,-0.42,-1.05
-707,-6,-710,-0.7,-0.42,-1.12
-709,-12,-710,-1.12,-0.28,-0.98
-712,-17,-709,-0.84,-0.14,-0.91
-710,-16,-712,0.14,-0.07,-0.84
-711,-17,-714,1.33,-0.07,-0.7
-712,-11,-715,2.17,0.0,-0.63
-711,-8,-714,2.52,0.07,-0.56
-708,-5,-711,2.59,-0.07,-0.56
-707,-3,-711,2.38,-0.14,-0.49
-709,-7,-717,2.1,-0.14,-0.42
-713,-10,-717,2.17,-0.28,-0.42
-713,-10,-718,1.96,-0.35,-0.42
-710,-11,-716,1.68,-0.42,-0.56
-709,-10,-715,1.47,-0.49,-0.56
-709,-10,-712,0.91,-0.63,-0.56
-708,-9,-713,0.56,-0.63,-0.56
-706,-10,-714,0.35,-0.7,-0.56
-706,-11,-714,0.21,-0.63,-0.63
-704,-11,-715,0.28,-0.63,-0.7
-704,-9,-718,0.7,-0.63,-0.7
-708,-11,-718,0.77,-0.7,-0.56
-713,-10,-719,0.49,-0.84,-0.49
-711,-9,-712,0.35,-1.05,-0.63
-710,-9,-715,0.35,-1.05,-0.63
-708,-12,-715,0.56,-1.12,-0.56
-707,-11,-717,0.77,-1.19,-0.49
-707,-8,-717,1.12,-1.26,-0.42
-709,-8,-716,1.26,-1.4,-0.42
-705,-9,-714,0.77,-1.54,-0.49
-705,-10,-715,0.77,-1.47,-0.49
-708,-10,-713,0.63,-1.4,-0.42
-710,-7,-713,-0.28,-1.4,-0.28
-711,-7,-715,-0.98,-1.4,-0.21
-713,-7,-715,-1.47,-1.33,-0.42
-714,1,-714,-2.73,-1.47,-0.49
-715,0,-710,-4.76,-1.68,-0.63
-721,-1,-707,-7.7,-1.89,-0.84
-719,-12,-703,-9.8,-1.96,-1.12
-713,-20,-703,-10.71,-1.75,-1.19
-711,-31,-701,-10.85,-1.54,-1.05
-708,-35,-704,-9.1,-1.26,-0.84
-706,-32,-710,-6.23,-0.98,-0.7
-712,-25,-711,-3.71,-0.77,-0.28
-713,-12,-716,-1.54,-0.63,-0.07
-712,-4,-715,0.07,-0.49,0.07
-715,2,-715,0.14,-0.63,0.21
-716,6,-711,0.0,-0.7,0.35
-712,3,-707,-0.84,-0.84,0.42
-713,-2,-704,-1.75,-0.98,0.56
-715,-14,-707,-1.47,-0.91,0.56
-715,-19,-705,-1.05,-0.91,0.49
-715,-17,-705,-0.7,-0.63,0.49
-715,-15,-708,-0.84,-0.35,0.56
-711,-7,-710,-0.84,-0.21,0.7
-711,-6,-713,-1.33,-0.14,0.7
-708,-2,-714,-1.68,-0.21,0.7
-706,0,-717,-1.96,-0.35,0.7
-708,-8,-711,-2.66,-0.49,0.56
-711,-11,-709,-3.15,-0.42,0.49
-710,-8,-707,-3.85,-0.07,0.28
