acc_x[mg],acc_y[mg],acc_z[mg],gyro_x[dps],gyro_y[dps],gyro_z[dps]
-807,100,-621,8.54,3.64,1.47
-808,90,-628,7.21,3.78,1.47
-806,92,-631,6.51,3.85,1.33
-794,103,-631,5.46,3.57,1.26
-782,110,-627,2.73,3.64,1.26
-771,108,-626,0.35,3.64,1.12
-762,106,-628,-1.33,3.64,0.77
-756,102,-633,-1.47,3.85,0.7
-754,93,-636,-0.14,4.13,0.91
-748,85,-629,1.47,4.69,1.12
-746,82,-629,3.78,5.39,1.19
-749,85,-640,6.58,5.46,1.26
-751,95,-646,8.96,5.53,1.26
-758,112,-648,9.73,5.6,1.19
-765,116,-641,8.4,5.46,1.12
-769,106,-643,7.21,5.25,1.12
-771,90,-646,7.56,5.04,1.4
-777,80,-646,7.84,5.11,1.75
-774,76,-644,8.61,5.18,1.68
-768,77,-644,8.82,5.11,1.47
-768,81,-644,7.98,4.97,1.33
-771,89,-648,6.09,4.9,1.4
-778,83,-654,3.36,4.69,1.47
-783,74,-658,1.26,4.27,1.33
-777,69,-650,-0.56,4.2,0.91
-772,71,-644,-1.05,4.27,0.49
-769,76,-646,0.21,3.85,0.49
-773,92,-653,1.26,3.5,0.7
-779,113,-656,1.19,3.36,0.84
-772,126,-662,0.07,2.8,0.7
-760,122,-662,-1.12,2.17,0.49
-757,111,-655,-1.61,2.1,0.49
-751,101,-652,-0.63,1.96,0.56
-748,96,-656,1.68,1.68,0.63
-743,98,-662,4.13,1.68,0.77
-743,106,-661,5.04,1.75,0.91
-747,106,-659,4.62,1.61,0.84
-742,96,-659,3.85,1.47,0.63
-733,85,-661,3.85,1.33,0.49
-734,76,-663,4.83,1.33,0.42
-739,75,-668,5.46,1.4,0.49
-738,81,-669,5.6,1.26,0.35
-735,84,-676,4.76,1.05,0.0
-738,86,-668,3.64,0.84,-0.21
-738,83,-662,1.82,0.91,-0.35
-735,79,-658,1.12,0.7,-0.56
-740,72,-667,1.12,0.7,-0.49
-745,79,-669,2.31,0.56,-0.56
-743,88,-664,1.61,0.7,-0.7
-743,91,-656,0.07,0.7,-0.84
-740,77,-653,-0.42,0.63,-0.91
-747,74,-654,0.14,0.63,-0.98
-754,80,-663,1.68,0.77,-0.84
-757,89,-668,2.73,0.49,-0.7
-755,99,-667,2.17,0.42,-0.77
-755,98,-666,1.61,0.21,-1.05
-749,96,-656,1.12,-0.07,-1.26
-751,90,-658,0.21,-0.07,-0.98
-756,81,-666,1.61,-0.56,-0.77
-756,78,-666,2.52,-0.49,-0.7
-759,80,-657,2.24,-0.28,-0.84
-760,73,-653,2.66,-0.28,-0.91
-756,68,-657,3.29,-0.42,-0.91
-758,70,-662,3.43,-0.49,-0.77
-761,77,-666,3.01,-0.49,-0.7
-759,74,-668,1.4,-0.77,-0.77
-755,66,-670,0.14,-0.98,-1.05
-753,65,-664,-0.07,-1.26,-1.19
-751,72,-659,-0.56,-1.26,-1.19
-748,77,-656,-0.56,-1.26,-1.19
-750,80,-655,-0.91,-1.26,-1.19
-753,83,-661,-0.56,-1.33,-1.19
-753,87,-665,-0.07,-1.4,-1.12
-753,94,-666,-0.28,-1.47,-1.12
-754,89,-663,-0.49,-1.75,-0.98
-755,83,-662,-0.21,-1.96,-1.05
-755,80,-660,0.63,-2.17,-0.91
-756,76,-657,0.98,-2.1,-0.63
-750,73,-655,1.33,-2.03,-0.63
-750,71,-655,1.89,-1.96,-0.49
-752,67,-648,1.4,-1.61,-0.49
-754,63,-643,0.98,-1.19,-0.56
-755,55,-646,1.61,-0.91,-0.49
-761,59,-653,2.38,-0.56,-0.35
-760,70,-660,2.87,-0.28,-0.21
-758,79,-670,3.29,-0.42,-0.14
-758,87,-664,2.66,-0.49,-0.21
-762,85,-657,0.77,-0.56,-0.42
-760,71,-656,0.84,-1.05,-0.56
-762,67,-657,1.75,-1.12,-0.49
-769,74,-657,2.73,-0.98,-0.28
-765,81,-657,3.5,-1.19,-0.14
-758,85,-655,2.8,-1.19,-0.21
-759,82,-655,2.24,-1.26,-0.21
-756,77,-656,1.75,-1.4,-0.21
-754,74,-659,1.54,-1.33,-0.07
-751,68,-659,2.24,-1.19,-0.07
-747,71,-658,2.66,-1.12,-0.07
-745,69,-655,3.01,-0.98,-0.14
-746,64,-657,3.29,-0.84,0.0
-747,66,-662,3.92,-0.77,-0.14
-750,73,-660,4.06,-0.7,-0.21
-752,76,-655,3.22,-0.49,0.0
-751,71,-652,2.38,-0.49,0.07
-752,65,-652,2.38,-0.35,-0.21
-757,66,-654,2.73,-0.28,-0.07
-760,65,-661,2.94,-0.14,0.14
-759,65,-665,3.78,-0.14,0.07
-762,72,-669,3.99,-0.28,-0.21
-765,87,-665,3.92,-0.7,-0.35
-763,91,-659,2.17,-0.84,-0.28
-755,84,-656,0.28,-1.05,-0.49
-754,67,-650,-0.28,-1.19,-0.56
-759,60,-655,0.21,-1.05,-0.28
-760,63,-657,2.17,-1.19,-0.14
-760,72,-656,2.38,-0.91,-0.07
-760,77,-654,2.31,-0.91,-0.07
-752,76,-658,1.82,-1.05,-0.07
-749,74,-656,1.05,-0.91,0.07
-749,65,-660,0.84,-0.84,0.14
-749,59,-660,1.26,-0.91,-0.07
-751,55,-659,0.77,-0.56,-0.07
-749,55,-658,1.47,-0.49,-0.21
-747,57,-655,1.75,-0.35,-0.28
-751,65,-654,1.4,-0.07,-0.07
-757,66,-657,0.91,-0.21,-0.35
-761,68,-663,0.56,-0.21,-0.28
-767,68,-667,0.42,-0.21,0.14
-766,72,-663,0.42,-0.42,-0.21
-767,70,-656,0.07,-0.56,-0.56
-766,67,-654,-0.14,-0.77,-0.35
-760,69,-654,0.35,-0.7,-0.07
-758,71,-656,0.21,-0.7,0.07
-762,68,-658,0.21,-0.84,0.0
-760,65,-658,-0.14,-0.77,-0.07
-754,60,-655,-0.21,-0.7,-0.07
-754,58,-651,-0.07,-0.56,0.0
-757,56,-652,0.14,-0.35,0.14
-755,57,-655,0.77,-0.28,0.14
-751,63,-658,0.42,-0.07,0.14
-752,67,-662,0.49,-0.14,0.07
-753,72,-661,-0.07,-0.07,0.14
-751,70,-662,-0.7,0.0,0.14
-749,69,-664,-0.63,-0.28,0.14
-748,70,-660,-1.4,-0.21,0.21
-750,65,-658,-2.31,0.0,0.14
-748,56,-658,-2.17,-0.14,-0.07
-749,56,-660,-1.68,0.07,-0.07
-751,62,-662,-1.33,0.0,0.0
-750,75,-667,-1.75,-0.35,0.0
-754,81,-666,-2.1,-0.42,-0.21
-755,76,-663,-2.17,-0.35,-0.35
-759,77,-660,-2.1,-0.49,-0.42
-761,73,-658,-1.47,-0.56,-0.28
-757,69,-658,-0.7,-0.49,-0.28
-761,69,-658,0.28,-0.56,-0.28
-761,73,-659,0.63,-0.7,-0.28
-761,76,-658,0.0,-0.84,-0.35
-761,71,-655,-0.77,-0.91,-0.42
-758,66,-655,-1.68,-0.84,-0.42
-754,63,-656,-1.82,-0.84,-0.42
-753,64,-661,-1.26,-0.84,-0.42
-754,71,-654,-1.26,-0.77,-0.49
-753,74,-652,-2.45,-0.42,-0.35
-747,66,-655,-2.24,-0.49,-0.28
-750,61,-663,-1.47,-0.42,-0.14
-758,64,-665,-0.56,-0.35,0.0
-758,66,-669,-0.07,-0.56,-0.07
-752,72,-673,0.14,-0.84,-0.35
-754,74,-668,-0.35,-1.12,-0.49
-757,73,-662,-1.47,-1.4,-0.63
-759,65,-658,-1.96,-1.61,-0.63
-755,60,-654,-1.75,-1.68,-0.7
-758,63,-652,-1.05,-1.47,-0.7
-761,72,-651,-0.21,-1.33,-0.63
-759,80,-655,-0.21,-1.19,-0.49
-757,80,-658,-1.19,-1.26,-0.49
-763,77,-657,-2.03,-1.19,-0.56
-758,71,-655,-2.59,-1.19,-0.56
-751,64,-653,-2.52,-1.12,-0.42
-747,63,-649,-1.89,-0.77,-0.35
-749,64,-650,-0.98,-0.42,-0.21
-751,67,-650,-0.49,-0.14,-0.14
-753,67,-650,-0.21,0.28,-0.07
-754,66,-653,0.07,0.49,-0.14
-760,68,-655,0.14,0.63,-0.07
-762,68,-660,0.0,0.7,-0.07
-762,72,-664,0.21,0.49,-0.14
-763,76,-665,-0.07,0.28,-0.14
-764,77,-661,-0.7,0.14,-0.21
-761,72,-661,-0.77,-0.14,-0.21
-759,69,-661,-0.28,-0.35,-0.21
-758,71,-659,0.14,-0.28,-0.07
-760,75,-659,0.07,-0.49,0.0
-757,74,-662,-0.56,-0.63,0.0
-753,70,-660,-1.19,-0.7,-0.07
-754,70,-656,-2.03,-0.63,-0.21
-751,68,-659,-1.89,-0.77,-0.21
-751,67,-661,-1.19,-0.77,0.0
-755,73,-660,-0.91,-0.63,0.14
-757,74,-660,-1.54,-0.7,0.14
-755,70,-659,-2.38,-0.77,0.07
-757,63,-656,-2.87,-0.7,-0.07
-757,62,-656,-2.66,-0.7,-0.28
-756,69,-662,-1.82,-0.77,-0.35
-756,76,-665,-0.35,-0.84,-0.42
-758,89,-663,-0.42,-0.77,-0.35
-754,90,-653,-1.05,-0.84,-0.35
-748,81,-654,-1.75,-0.84,-0.35
-743,75,-651,-0.98,-0.84,-0.28
-744,71,-657,-0.21,-0.42,0.07
-748,73,-663,1.4,-0.49,0.14
-750,75,-663,2.45,-0.21,0.14
-746,76,-662,1.89,-0.07,0.0
-740,72,-661,1.96,-0.28,-0.14
-742,67,-659,1.68,-0.14,-0.21
-744,64,-660,1.61,-0.14,-0.42
-747,60,-666,2.31,-0.14,-0.21
-754,68,-672,2.94,-0.21,-0.07
-756,76,-666,2.87,-0.35,-0.77
-759,80,-661,1.54,-0.28,-0.91
-760,74,-657,1.12,-0.35,-0.56
-758,71,-656,1.33,-0.56,-0.77
-762,74,-652,1.61,-0.35,-0.91
-761,74,-653,2.03,-0.28,-0.7
-758,69,-655,2.1,-0.21,-0.35
-756,69,-657,2.59,-0.21,-0.21
-758,73,-655,2.66,-0.14,-0.42
-754,75,-656,1.96,-0.07,-0.42
-750,70,-661,1.75,-0.28,-0.28
-752,69,-667,1.82,-0.49,-0.07
-755,68,-666,1.47,-0.56,0.0
-756,61,-667,0.98,-0.77,-0.14
-752,59,-666,0.98,-0.98,-0.35
-752,59,-666,0.98,-1.05,-0.49
-758,68,-661,1.12,-1.12,-0.63
-755,69,-658,0.35,-0.98,-0.7
-751,65,-657,-0.35,-0.98,-0.77
-752,61,-656,-0.28,-0.84,-0.7
-756,62,-655,0.56,-0.56,-0.56
-761,68,-659,0.98,-0.49,-0.42
-758,73,-659,0.77,-0.49,-0.49
-754,74,-659,0.28,-0.49,-0.42
-752,72,-660,-0.07,-0.49,-0.28
-752,71,-660,-0.49,-0.49,-0.14
-749,65,-658,-0.63,-0.56,-0.21
-752,59,-660,-0.63,-0.42,-0.21
-752,60,-662,0.49,-0.49,-0.21
-752,66,-661,0.84,-0.49,-0.07
-756,75,-662,0.35,-0.56,-0.35
-753,70,-663,0.07,-0.63,-0.35
-757,64,-660,-0.77,-0.63,-0.07
-757,57,-657,-1.19,-0.63,-0.28
-754,53,-656,-0.77,-0.49,-0.42
-756,58,-659,0.56,-0.42,-0.21
-759,66,-661,1.05,-0.28,0.07
-763,81,-661,0.28,-0.49,0.14
-763,82,-663,-2.31,-0.91,-0.14
-755,76,-665,-3.85,-1.19,-0.56
-755,65,-663,-3.57,-1.19,-0.42
-759,62,-660,-2.52,-1.05,-0.14
-751,64,-659,-1.19,-0.98,-0.14
-747,63,-659,-0.14,-0.98,-0.21
-757,67,-658,0.14,-0.84,-0.21
-755,73,-660,-0.28,-0.84,-0.21
-750,72,-659,-1.61,-0.84,-0.28
-751,64,-663,-2.03,-0.84,-0.21
-748,61,-662,-1.33,-0.84,-0.28
-749,66,-657,-1.12,-0.7,-0.35
-747,65,-656,-0.56,-0.63,-0.21
-746,68,-658,-0.28,-0.49,-0.07
-752,74,-662,0.07,-0.49,0.0
-758,75,-661,-0.56,-0.49,-0.07
-761,73,-663,-1.26,-0.56,-0.21
-757,68,-660,-1.47,-0.63,-0.28
-757,67,-654,-1.47,-0.63,-0.14
-756,68,-649,-1.75,-0.35,-0.14
-752,65,-653,-1.54,-0.21,-0.14
-754,66,-655,-0.77,-0.14,-0.07
-757,71,-655,-0.77,0.35,0.07
-752,74,-649,-0.63,0.56,0.07
-751,70,-653,-0.91,0.77,0.21
-752,75,-657,0.0,0.84,0.14
-758,81,-662,0.21,0.98,0.35
-756,89,-671,0.07,0.7,0.42
-749,89,-673,-0.28,0.28,0.42
-755,86,-668,-1.96,0.07,0.42
-757,70,-666,-2.8,-0.21,0.35
-749,51,-666,-2.1,-0.56,0.07
-754,46,-663,-0.63,-0.49,0.07
-760,57,-659,1.12,-0.49,0.07
-756,72,-660,1.68,-0.49,0.14
-753,78,-658,0.56,-0.49,0.21
-757,73,-656,-1.05,-0.35,0.21
-753,63,-658,-1.89,-0.35,0.21
-748,57,-662,-1.47,-0.35,0.21
-750,62,-663,-0.35,-0.14,0.28
-749,70,-663,0.07,-0.07,0.35
-750,76,-664,-0.21,-0.14,0.35
-749,79,-665,-0.77,-0.21,0.21
-748,80,-664,-1.4,-0.21,0.07
-747,78,-662,-1.68,-0.28,0.07
-746,73,-665,-1.61,-0.28,-0.07
-748,70,-664,-0.77,-0.42,-0.14
-758,72,-662,-0.91,-0.56,0.07
-756,77,-663,-0.7,-0.77,0.07
-755,71,-666,0.0,-0.77,0.14
-762,74,-667,0.7,-0.77,0.07
-758,79,-665,0.49,-0.84,-0.14
-751,77,-661,-0.49,-0.98,-0.21
-754,68,-659,-0.98,-1.05,-0.21
-757,65,-658,-0.56,-1.05,-0.21
-756,66,-659,-0.07,-1.05,-0.35
-760,73,-656,0.14,-0.91,-0.07
-757,75,-651,-0.49,-0.56,0.07
-755,71,-651,-0.42,-0.56,-0.21
-757,67,-655,-0.07,-0.42,-0.14
-759,74,-658,0.21,-0.14,0.21
-759,74,-658,0.21,-0.07,0.28
-754,76,-659,-0.07,0.0,0.21
-751,76,-662,0.07,-0.14,0.07
-752,77,-662,0.07,-0.14,0.14
-750,78,-661,-0.07,0.0,0.28
-745,75,-661,-0.07,0.0,0.28
-744,72,-661,-0.14,0.14,0.28
-743,74,-663,0.21,0.14,0.28
-743,77,-663,-0.14,0.28,0.28
-746,76,-664,-0.77,0.35,0.28
-742,69,-668,-0.63,0.35,0.21
-741,71,-665,-0.14,0.35,0.14
-740,71,-662,-0.14,0.56,0.14
-737,67,-664,0.35,0.63,0.14
-740,68,-663,0.56,0.7,0.14
-750,70,-665,0.07,0.77,0.21
-748,69,-670,-1.05,0.63,-0.07
-750,67,-672,-1.68,0.28,-0.42
-757,73,-670,-3.01,0.28,-0.7
-757,78,-666,-4.34,0.14,-0.91
-754,76,-667,-4.76,-0.21,-0.98
-754,76,-664,-4.76,-0.35,-0.98
-761,78,-663,-4.2,-0.35,-0.91
-762,82,-666,-2.94,-0.7,-0.98
-762,85,-663,-2.17,-0.84,-0.91
-761,87,-654,-1.89,-0.56,-0.91
-755,87,-652,-0.91,-0.63,-0.84
-751,90,-657,0.07,-0.7,-0.63
-752,89,-659,0.14,-0.49,-0.28
-753,82,-661,0.35,-0.49,-0.35
-752,74,-662,0.77,-0.49,-0.42
-749,68,-659,1.05,-0.28,-0.35
-745,63,-659,1.96,-0.14,-0.21
-748,68,-665,2.45,-0.21,-0.21
-753,76,-668,1.89,-0.14,-0.14
-753,84,-674,0.42,-0.21,-0.35
-745,85,-677,-1.4,-0.63,-0.7
-748,80,-670,-3.01,-0.84,-0.84
-749,74,-662,-4.13,-0.84,-0.84
-741,72,-661,-3.78,-0.98,-0.84
-743,74,-665,-2.38,-0.98,-0.63
-750,89,-667,-1.75,-0.91,-0.56
-754,103,-673,-2.38,-1.26,-0.56
-755,100,-673,-3.92,-1.68,-0.63
-758,78,-668,-6.23,-1.82,-0.84
-756,49,-662,-6.02,-2.1,-1.05
-748,35,-657,-2.94,-2.03,-1.12
-745,43,-656,0.77,-1.61,-0.7
-750,69,-653,2.66,-1.4,-0.28
-755,91,-655,1.96,-1.19,-0.07
-754,91,-656,0.21,-0.91,-0.21
-752,80,-655,-1.33,-0.49,-0.56
-751,75,-654,-1.26,-0.28,-0.63
-750,70,-657,-0.14,-0.07,-0.28
-753,69,-662,1.05,0.14,0.07
-755,76,-664,2.17,0.14,0.07
-752,85,-666,2.38,0.14,-0.07
-751,87,-665,1.61,0.0,0.0
-752,87,-660,0.35,-0.14,0.0
-754,78,-657,-1.26,-0.14,0.0
-754,64,-659,-1.89,-0.21,0.0
-757,60,-666,-0.56,-0.28,-0.07
-759,73,-669,1.05,-0.21,-0.07
-759,86,-665,1.19,-0.28,0.07
-753,86,-660,0.0,-0.35,0.14
-747,77,-661,-0.7,-0.56,0.07
-751,71,-662,-0.98,-0.56,0.14
-754,75,-665,-0.7,-0.49,0.14
-749,77,-664,-0.63,-0.49,0.21
-752,79,-663,-1.33,-0.42,0.14
-750,74,-658,-1.26,-0.35,0.14
-746,72,-660,-0.98,-0.28,0.21
-747,75,-663,-0.49,-0.28,0.28
-749,77,-665,-0.14,-0.14,0.35
-746,83,-666,-0.42,-0.14,0.28
-747,84,-662,-1.33,0.0,0.21
-744,77,-662,-1.96,0.0,0.14
-744,75,-665,-1.26,-0.14,0.14
-749,76,-664,-0.49,0.07,0.21
-750,83,-668,0.14,0.07,0.21
-749,87,-667,1.26,-0.14,0.14
-750,90,-665,1.19,0.0,0.14
-749,90,-667,1.47,-0.28,0.21
-750,87,-666,1.82,-0.49,0.28
-750,80,-659,1.33,-0.28,0.35
-746,73,-658,2.31,-0.35,0.14
-746,75,-659,3.78,-0.28,0.28
-749,77,-657,3.5,0.0,0.63
-754,79,-661,3.43,-0.14,0.63
-756,81,-663,3.43,0.0,0.49
-753,78,-666,2.66,0.28,0.42
-750,75,-666,2.66,0.14,0.21
-756,74,-667,2.52,0.14,0.28
-754,73,-667,3.01,0.07,0.28
-754,74,-671,3.22,-0.14,0.28
-757,75,-667,3.08,-0.21,0.28
-758,71,-660,1.89,-0.14,0.14
-758,71,-657,1.26,-0.28,-0.07
-753,70,-658,0.56,-0.21,-0.14
-757,72,-659,0.42,-0.07,-0.07
-756,79,-662,0.56,0.07,0.0
-750,81,-666,0.14,0.14,0.07
-748,82,-666,-0.28,0.21,0.14
-742,77,-665,-0.42,0.28,0.14
-738,74,-667,0.0,0.21,0.21
-738,70,-667,0.98,0.28,0.28
-739,72,-667,1.82,0.42,0.42
-738,75,-669,1.96,0.49,0.49
-740,73,-670,1.75,0.49,0.35
-742,70,-673,1.26,0.49,0.28
-745,69,-672,1.05,0.28,0.14
-744,67,-677,0.7,0.28,0.14
-744,71,-678,0.49,-0.07,0.07
-750,75,-677,-0.35,-0.28,-0.07
-745,80,-678,-2.03,-0.56,-0.56
-741,75,-672,-3.43,-0.84,-0.7
-744,71,-666,-3.85,-0.91,-0.7
-746,72,-663,-3.15,-0.98,-0.63
-753,75,-661,-2.17,-0.84,-0.42
-752,79,-662,-1.33,-0.7,-0.21
-750,84,-664,-0.56,-0.56,-0.21
-752,88,-667,-0.42,-0.56,-0.07
-753,88,-664,-1.26,-0.77,0.07
-751,82,-661,-2.45,-0.84,0.14
-748,72,-663,-1.82,-0.77,0.07
-747,66,-667,0.07,-0.56,0.07
-745,73,-668,1.05,-0.35,0.21
-745,75,-673,1.82,-0.35,0.42
-740,72,-674,1.47,-0.35,0.42
-741,71,-674,0.77,-0.49,0.14
-741,69,-674,0.63,-0.63,-0.21
-744,74,-670,-0.07,-0.77,-0.28
-747,75,-669,-0.84,-0.91,-0.42
-749,78,-675,-0.98,-1.12,-0.56
-749,86,-674,-0.91,-1.4,-0.7
-753,90,-672,-1.96,-1.47,-0.77
-747,87,-668,-2.03,-1.75,-0.98
-742,80,-665,-1.89,-1.89,-0.98
-743,79,-662,-1.05,-1.82,-0.98
-743,83,-661,-0.14,-1.75,-1.05
-743,81,-661,0.07,-1.54,-0.91
-745,73,-663,0.98,-1.33,-0.84
-748,77,-664,2.1,-1.19,-0.91
-748,84,-665,2.24,-1.05,-0.84
-744,83,-668,2.17,-1.12,-0.84
-737,83,-668,1.75,-1.12,-0.98
-740,78,-668,1.26,-1.12,-0.91
-742,69,-671,1.26,-1.12,-0.91
-743,66,-673,1.82,-1.12,-1.05
-747,73,-673,2.38,-1.26,-1.26
-752,78,-670,2.1,-1.26,-1.4
-748,80,-664,1.33,-1.33,-1.54
-746,77,-663,0.7,-1.47,-1.68
-746,73,-659,0.35,-1.33,-1.68
-748,70,-658,0.28,-1.12,-1.61
-748,66,-663,0.84,-0.91,-1.47
-754,69,-670,1.47,-0.98,-1.4
-760,77,-669,0.98,-1.19,-1.33
-761,84,-667,-0.91,-1.4,-1.47
-756,78,-666,-1.47,-1.61,-1.75
-753,69,-659,-1.12,-1.68,-1.89
-758,67,-655,-0.07,-1.47,-1.61
-755,64,-657,1.82,-1.19,-1.19
-753,63,-659,3.92,-1.05,-0.98
-760,71,-663,5.04,-0.91,-0.84
-760,82,-662,4.34,-0.77,-0.84
-752,80,-665,2.03,-0.91,-0.84
-750,69,-665,0.21,-1.12,-0.98
-749,60,-666,-1.12,-1.05,-1.05
-744,56,-667,-0.98,-1.05,-1.12
-744,53,-665,-0.84,-0.77,-0.91
-747,57,-666,-0.56,-0.7,-0.91
-749,59,-665,-0.49,-0.77,-0.91
-753,64,-666,-1.05,-0.7,-0.84
-754,64,-665,-1.47,-0.77,-0.98
-753,67,-665,-1.75,-0.77,-1.05
-748,67,-664,-1.75,-0.77,-0.91
-747,67,-662,-0.91,-0.7,-0.77
-749,74,-661,-0.21,-0.56,-0.56
-752,77,-660,0.07,-0.49,-0.63
-750,78,-660,-0.07,-0.49,-0.63
-748,74,-661,-0.42,-0.35,-0.56
-749,71,-664,-0.28,-0.42,-0.56
-751,69,-667,-0.07,-0.42,-0.56
-752,66,-665,0.14,-0.42,-0.56
-749,67,-667,0.35,-0.42,-0.49
-747,70,-664,0.21,-0.56,-0.56
-753,69,-661,-0.77,-0.49,-0.42
-756,63,-660,-1.54,-0.49,-0.42
-753,55,-666,-1.61,-0.49,-0.35
-752,58,-669,-1.05,-0.35,-0.28
-756,63,-668,-0.77,-0.35,-0.28
-753,70,-668,-1.19,-0.56,-0.42
-751,70,-661,-2.24,-0.56,-0.49
-756,63,-657,-3.57,-0.49,-0.42
-754,60,-657,-4.06,-0.63,-0.35
-753,62,-660,-3.92,-0.49,-0.21
-758,72,-668,-2.24,-0.42,-0.14
-757,84,-666,-1.54,-0.35,-0.28
-752,88,-666,-1.75,-0.35,-0.28
-746,82,-664,-1.68,-0.63,-0.21
-743,78,-664,-1.12,-0.63,-0.07
-745,71,-664,-0.63,-0.56,0.14
-746,67,-664,0.07,-0.63,0.21
-745,67,-664,0.56,-0.56,0.21
-742,66,-667,0.56,-0.42,0.28
-744,69,-671,0.77,-0.63,0.28
-747,73,-670,-0.35,-0.63,0.21
-748,69,-668,-1.89,-0.63,0.07
-743,63,-668,-2.1,-0.77,-0.07
-739,64,-665,-1.75,-0.77,-0.07
-746,66,-661,-1.33,-0.49,0.14
-744,68,-660,-0.63,-0.35,0.14
-742,69,-662,-0.07,-0.21,0.21
-749,73,-666,0.77,-0.14,0.21
-754,82,-668,1.26,-0.14,0.21
-754,84,-666,0.28,-0.14,0.28
-756,77,-667,-0.21,-0.42,0.14
-753,74,-665,0.0,-0.56,0.0
-755,71,-662,0.07,-0.56,0.28
-754,66,-663,0.84,-0.63,0.49
-751,66,-667,1.68,-0.7,0.49
-752,68,-668,2.17,-0.7,0.56
-752,74,-667,2.1,-0.7,0.56
-751,77,-665,1.12,-0.84,0.42
-755,70,-662,0.0,-0.84,0.42
-752,65,-662,-0.7,-0.77,0.35
-746,67,-664,-0.07,-0.7,0.35
-749,68,-667,0.35,-0.63,0.49
-751,75,-667,0.91,-0.7,0.56
-751,78,-667,0.84,-0.77,0.49
-752,77,-668,0.07,-0.77,0.49
-750,75,-667,-0.21,-0.98,0.49
-748,70,-660,-0.77,-0.91,0.56
-747,64,-664,-0.7,-0.84,0.42
-747,66,-671,0.91,-1.05,0.35
-747,76,-673,1.47,-0.91,0.56
-749,81,-672,0.84,-1.05,0.7
-747,79,-667,-0.21,-1.26,0.42
-745,71,-665,-1.47,-1.33,0.14
-744,66,-658,-1.61,-1.33,0.07
-746,66,-661,-1.12,-1.12,0.21
-747,68,-665,0.21,-1.05,0.42
-750,73,-668,0.77,-0.91,0.42
-750,80,-666,0.91,-0.84,0.42
-749,80,-663,0.28,-0.91,0.49
-747,73,-659,-0.42,-0.91,0.49
-751,66,-660,-0.35,-0.77,0.49
-756,68,-664,0.14,-0.77,0.49
-757,70,-667,0.07,-0.63,0.49
-756,74,-668,0.21,-0.7,0.42
-753,78,-665,-0.42,-0.77,0.35
-751,79,-662,-1.12,-0.91,0.35
-753,73,-662,-1.47,-0.98,0.35
-751,71,-664,-1.61,-0.91,0.35
-754,71,-665,-1.26,-1.05,0.42
-756,73,-669,-0.84,-1.05,0.49
-752,78,-667,-0.35,-1.19,0.42
-748,79,-664,-1.05,-1.05,0.35
-744,78,-662,-1.33,-1.19,0.21
-741,73,-661,-1.19,-1.19,0.21
-747,72,-664,-0.7,-1.12,0.28
-751,74,-665,-0.42,-1.26,0.35
-750,82,-666,-0.84,-1.33,0.28
-752,81,-662,-1.19,-1.12,0.21
-750,79,-660,-1.19,-0.98,0.07
-748,76,-658,-1.05,-0.91,0.0
-751,74,-660,-0.7,-0.7,0.07
-752,74,-663,0.35,-0.63,0.14
-753,78,-665,0.56,-0.56,0.21
-754,81,-664,0.35,-0.56,0.14
-756,83,-661,-0.28,-0.63,0.0
-752,80,-659,-1.19,-0.7,-0.07
-751,74,-659,-1.05,-0.7,-0.07
-752,72,-662,-0.77,-0.56,0.07
-752,74,-665,-0.07,-0.56,0.07
-752,77,-668,0.35,-0.56,0.14
-752,85,-667,0.21,-0.7,0.0
-749,85,-662,-0.84,-0.77,-0.07
-746,79,-661,-1.75,-0.84,-0.21
-744,73,-661,-1.26,-0.91,-0.35
-751,71,-663,-0.07,-0.7,-0.28
-750,80,-665,0.98,-0.63,-0.28
-748,82,-664,0.98,-0.49,-0.21
-747,81,-665,0.63,-0.63,-0.28
-752,77,-662,0.28,-0.7,-0.35
-753,77,-656,-0.56,-0.56,-0.42
-748,72,-656,-0.77,-0.49,-0.49
-748,67,-659,0.0,-0.28,-0.42
-754,73,-662,0.91,-0.07,-0.28
-753,83,-663,1.4,0.07,-0.28
-750,85,-664,0.84,0.07,-0.28
-748,77,-658,-0.07,0.14,-0.35
-751,73,-662,0.14,0.21,-0.35
-751,71,-656,0.56,0.28,-0.28
-754,75,-663,0.07,0.49,-0.35
-749,76,-671,1.33,0.28,-0.42
-752,86,-672,1.12,0.28,-0.35
-752,90,-671,0.56,0.07,-0.49
-749,89,-670,-0.14,-0.42,-0.84
-750,95,-666,-1.4,-0.56,-0.98
-748,89,-661,-2.8,-0.63,-0.77
-744,79,-663,-4.76,-0.84,-0.84
-746,63,-666,-5.18,-0.84,-0.91
-751,47,-667,-4.55,-0.63,-0.91
-749,53,-664,-2.24,-0.56,-0.98
-748,62,-659,-0.56,-0.28,-0.7
-748,71,-655,-0.07,-0.14,-0.49
-749,73,-656,0.28,0.21,-0.42
-752,77,-663,0.63,0.35,-0.49
-753,82,-668,1.19,0.35,-0.42
-755,90,-670,0.63,0.35,-0.28
-753,88,-670,-0.28,0.07,-0.35
-751,81,-667,-1.61,-0.28,-0.35
-755,73,-665,-2.24,-0.35,-0.49
-747,65,-667,-1.89,-0.56,-0.63
-747,69,-669,-0.49,-0.63,-0.63
-750,78,-671,0.42,-0.56,-0.35
-748,88,-671,0.07,-0.84,-0.35
-746,84,-668,-1.26,-0.91,-0.49
-745,75,-663,-2.1,-0.91,-0.7
-744,69,-659,-1.96,-0.77,-0.77
-744,66,-655,-1.82,-0.49,-0.56
-742,68,-653,-2.17,-0.14,-0.28
-738,71,-657,-1.47,0.28,-0.07
-744,69,-662,-0.35,0.7,0.14
-751,72,-661,0.21,1.12,0.21
-748,75,-663,0.35,1.4,0.07
-746,79,-667,0.63,1.54,-0.07
-749,82,-668,1.26,1.4,0.0
-749,90,-672,0.49,1.33,-0.07
-749,87,-676,-0.49,1.05,-0.07
-750,81,-677,-0.56,0.49,-0.28
-754,80,-675,-0.91,0.21,-0.42
-751,80,-670,0.0,-0.07,-0.49
-751,80,-666,0.35,-0.35,-0.42
-748,79,-666,0.84,-0.42,-0.42
-745,79,-665,1.61,-0.42,-0.42
-746,82,-663,1.75,-0.35,-0.35
-748,81,-662,1.4,-0.28,-0.35
-752,76,-662,1.05,-0.28,-0.35
-751,73,-665,0.98,-0.21,-0.28
-753,73,-667,1.12,-0.14,-0.14
-755,77,-672,1.33,-0.28,-0.07
-751,77,-675,1.4,-0.35,-0.07
-746,79,-673,0.98,-0.56,-0.28
-742,76,-668,0.35,-0.63,-0.28
-737,71,-666,0.35,-0.7,-0.21
-739,68,-667,0.49,-0.63,-0.07
-743,69,-664,0.56,-0.49,-0.14
-746,70,-665,0.35,-0.35,-0.21
-746,71,-668,0.42,-0.28,-0.28
-748,73,-670,0.49,-0.21,-0.35
-752,76,-672,1.05,-0.28,-0.28
-752,78,-673,1.4,-0.42,-0.42
-752,80,-672,1.4,-0.63,-0.42
-752,82,-671,1.54,-0.91,-0.42
-749,80,-670,1.61,-1.05,-0.21
-746,80,-665,1.26,-1.05,-0.21
-748,75,-658,0.21,-1.05,-0.21
-749,72,-661,-0.28,-0.98,-0.21
-744,66,-665,0.07,-0.91,-0.14
-746,72,-671,0.63,-0.77,-0.07
-752,76,-668,0.56,-0.7,-0.14
-752,78,-665,-0.42,-0.7,-0.21
-746,75,-662,-0.98,-0.7,-0.28
-745,72,-665,-0.98,-0.7,-0.21
-746,76,-666,-0.49,-0.63,-0.07
-746,80,-670,-0.21,-0.63,0.07
-746,78,-670,0.14,-0.63,0.21
-743,75,-671,0.49,-0.63,0.28
-742,72,-671,0.98,-0.7,0.28
-743,76,-673,0.91,-0.77,0.21
-742,74,-672,-0.07,-0.84,0.07
-739,70,-673,-0.91,-0.98,-0.07
-741,71,-673,-0.91,-1.12,-0.21
-745,71,-667,-1.54,-0.98,-0.14
-743,69,-666,-1.4,-1.05,-0.21
-743,71,-667,-0.63,-1.05,-0.14
-748,76,-666,-0.14,-0.84,0.0
-748,79,-665,-0.07,-0.84,0.0
-748,80,-665,-0.21,-0.84,-0.07
-749,78,-665,-0.35,-0.77,-0.07
-755,77,-664,-0.63,-0.77,-0.07
-755,79,-667,-0.56,-0.91,-0.07
-756,78,-669,-0.7,-0.91,0.0
-759,79,-669,-1.19,-1.05,-0.07
-755,77,-665,-1.4,-1.19,-0.07
-749,71,-663,-1.33,-1.12,-0.14
-743,72,-661,-0.63,-1.05,-0.14
-744,75,-663,0.07,-0.91,0.0
-748,78,-667,-0.07,-0.77,0.07
-747,77,-669,-0.21,-0.77,0.0
-745,77,-670,-0.84,-0.7,-0.07
-745,75,-668,-0.84,-0.84,-0.14
-744,75,-668,-0.35,-0.84,-0.21
-740,79,-665,0.07,-0.77,-0.21
-742,80,-664,0.28,-0.63,-0.14
-744,82,-666,0.42,-0.56,-0.07
-741,80,-670,0.0,-0.49,-0.14
-745,78,-671,-0.35,-0.56,-0.14
-749,79,-674,-0.21,-0.77,-0.21
-745,87,-676,-0.56,-0.98,-0.35
-746,89,-675,-1.75,-1.19,-0.42
-746,87,-671,-2.73,-1.4,-0.56
-744,82,-665,-3.85,-1.47,-0.7
-748,74,-663,-3.99,-1.54,-0.77
-750,69,-662,-3.5,-1.61,-0.77
-754,77,-664,-3.22,-1.47,-0.77
-757,83,-661,-2.94,-1.47,-0.77
-753,86,-658,-4.41,-1.26,-0.63
-752,75,-655,-5.81,-1.12,-0.56
-750,60,-654,-5.67,-0.98,-0.42
-749,52,-656,-4.48,-0.49,-0.14
-751,55,-661,-2.73,-0.42,0.21
-753,72,-667,-0.7,-0.28,0.35
-754,86,-669,0.0,0.0,0.49
-750,88,-669,-0.28,0.0,0.49
-747,84,-665,-1.4,-0.07,0.28
-747,79,-663,-1.61,0.0,0.21
-747,74,-662,-1.26,0.07,0.21
-749,77,-662,-1.19,0.07,0.35
-753,78,-665,-0.49,0.14,0.35
-754,84,-669,-0.07,0.0,0.49
-755,89,-668,-0.07,-0.14,0.42
-754,89,-665,-0.63,-0.21,0.42
-752,88,-662,-0.7,-0.35,0.35
-747,83,-661,-0.28,-0.28,0.35
-747,84,-661,0.7,-0.21,0.49
-750,89,-660,1.54,-0.07,0.7
-747,88,-661,1.33,0.14,0.77
-745,83,-662,0.28,0.21,0.77
-745,75,-665,-0.07,0.28,0.77
-741,73,-669,0.14,0.28,0.77
-742,76,-674,0.98,0.21,0.84
-748,87,-677,2.03,0.07,0.84
-744,95,-676,0.35,-0.07,0.7
-744,90,-671,-1.82,-0.42,0.21
-746,77,-664,-3.15,-0.49,-0.07
-746,72,-657,-3.57,-0.42,-0.07
-747,71,-659,-2.03,-0.21,0.21
-742,80,-668,0.56,-0.07,0.56
-743,94,-674,2.03,0.14,0.84
-748,100,-674,1.96,0.07,0.84
-746,97,-675,1.05,-0.21,0.56
-742,91,-677,-0.07,-0.56,0.21
-742,86,-673,-1.61,-0.7,-0.07
-743,80,-674,-2.38,-0.98,-0.21
-739,72,-676,-1.68,-1.19,-0.35
-743,77,-671,-0.56,-1.19,-0.35
-744,84,-664,0.07,-1.12,-0.21
-742,88,-663,0.84,-1.26,-0.21
-746,92,-662,0.56,-1.12,-0.07
-750,94,-665,0.14,-1.05,-0.14
-751,91,-663,-0.07,-1.05,-0.21
-746,87,-663,0.07,-0.84,-0.07
-742,86,-665,1.05,-0.77,-0.07
-745,86,-665,1.75,-0.77,0.14
-747,86,-669,1.96,-0.77,0.14
-745,83,-671,1.82,-0.91,0.07
-745,80,-670,1.61,-0.91,0.07
-748,79,-663,1.26,-0.98,0.14
-743,77,-659,0.7,-0.77,0.0
-736,73,-665,1.12,-0.7,0.0
-740,77,-676,2.66,-0.77,0.07
-747,91,-682,3.08,-0.91,0.21
-753,98,-680,1.47,-1.19,0.21
-750,91,-678,-0.42,-1.68,-0.14
-744,81,-673,-2.24,-2.1,-0.63
-741,79,-673,-2.73,-2.31,-0.84
-739,77,-675,-2.17,-2.52,-0.63
-743,82,-675,-1.47,-2.66,-0.7
-743,86,-673,-0.91,-2.87,-0.77
-742,91,-667,-1.12,-2.8,-0.84
-741,91,-655,-1.82,-2.8,-0.84
-739,83,-656,-2.66,-2.73,-0.84
-744,79,-657,-1.89,-2.66,-0.84
-755,80,-656,-1.26,-2.17,-0.7
-756,79,-655,-0.63,-1.82,-0.56
-756,76,-653,0.56,-1.54,-0.49
-759,78,-648,1.47,-1.19,-0.35
-759,84,-653,2.1,-0.91,-0.14
-755,91,-660,2.38,-0.91,0.0
-760,94,-668,1.75,-0.77,0.07
-758,95,-671,0.98,-1.05,-0.14
-755,89,-669,-0.49,-1.26,-0.21
-754,79,-664,-1.4,-1.4,-0.28
-754,74,-662,-1.19,-1.54,-0.49
-753,77,-661,-0.77,-1.54,-0.49
-754,83,-662,-0.49,-1.54,-0.35
-755,88,-662,-0.84,-1.54,-0.35
-753,84,-661,-1.33,-1.4,-0.35
-745,80,-655,-1.4,-1.26,-0.49
-744,76,-654,-1.12,-0.98,-0.28
-749,74,-650,-0.35,-0.77,-0.14
-751,75,-653,0.0,-0.21,0.0
-748,81,-656,0.84,0.0,0.0
-750,88,-659,0.84,0.28,0.21
-757,90,-660,0.14,0.42,0.35
-754,86,-656,-0.42,0.42,0.28
-757,81,-652,-1.12,0.63,0.28
-756,76,-651,-1.05,0.91,0.42
-757,75,-654,-0.63,1.12,0.42
-758,83,-660,0.35,1.33,0.35
-758,92,-663,0.63,1.4,0.49
-758,97,-660,-0.42,1.47,0.56
-753,92,-662,-1.26,1.33,0.49
-747,82,-660,-1.68,1.4,0.56
-747,76,-663,-0.84,1.54,0.7
-748,77,-666,0.42,1.47,0.84
-747,83,-669,1.05,1.54,0.84
-745,83,-672,1.12,1.54,0.77
-748,86,-672,1.26,1.33,0.56
-750,85,-670,0.77,1.19,0.56
-743,86,-668,0.35,1.05,0.42
-743,81,-666,0.0,1.12,0.35
-746,82,-670,0.98,0.91,0.35
-746,94,-674,1.47,0.84,0.35
-746,96,-667,0.91,0.98,0.42
-746,89,-664,0.42,0.84,0.28
-741,86,-665,0.63,0.7,0.28
-740,88,-662,0.77,0.35,0.35
-735,95,-697,1.82,-0.21,0.21
-720,101,-676,1.33,0.49,0.21
-741,83,-683,-0.42,0.84,0.28
-729,79,-671,1.33,-0.14,-0.07
-729,82,-676,0.42,0.14,-0.35
-743,69,-672,0.56,0.07,0.14
-737,80,-677,0.98,-0.35,-0.35
-741,86,-679,0.28,-0.42,-0.49
-741,88,-675,-0.56,-0.7,-0.7
-741,85,-674,-0.98,-0.84,-0.77
-742,84,-669,-0.84,-0.77,-0.77
-743,82,-666,-0.63,-0.84,-0.63
-743,87,-670,0.0,-0.84,-0.7
-745,90,-670,0.42,-0.77,-0.7
-749,96,-673,0.49,-0.84,-0.7
-751,97,-669,0.14,-0.91,-0.77
-752,91,-667,-0.7,-0.91,-0.77
-751,85,-667,-0.56,-1.05,-0.77
-750,84,-666,-0.42,-1.05,-0.7
-752,81,-667,-0.63,-0.98,-0.56
-750,79,-668,-0.35,-1.05,-0.7
-748,78,-667,-0.49,-0.98,-0.7
-745,79,-665,-0.63,-0.84,-0.7
-743,77,-665,-0.63,-0.7,-0.77
-741,80,-670,-0.35,-0.7,-0.7
-742,83,-671,-0.56,-0.56,-0.63
-746,83,-669,-0.98,-0.56,-0.56
-746,81,-665,-1.33,-0.56,-0.63
-743,78,-666,-1.19,-0.49,-0.7
-746,85,-667,-0.63,-0.56,-0.7
-751,89,-668,-0.63,-0.49,-0.56
-750,88,-671,-0.91,-0.63,-0.56
-746,87,-675,-0.56,-0.84,-0.7
-748,91,-671,-0.35,-0.91,-0.63
-746,91,-670,-0.77,-1.12,-0.63
-739,86,-670,-0.7,-1.33,-0.7
-743,81,-667,-0.77,-1.26,-0.63
-747,78,-665,-0.7,-1.19,-0.56
-741,78,-668,-0.49,-1.26,-0.56
-743,78,-674,0.07,-1.26,-0.42
-749,84,-671,-0.14,-1.26,-0.42
-745,88,-668,-1.19,-1.26,-0.56
-740,80,-664,-1.89,-1.26,-0.77
-737,76,-663,-1.82,-1.05,-0.91
-739,76,-660,-1.19,-0.77,-0.77
-743,79,-663,0.07,-0.49,-0.35
-744,81,-666,0.49,-0.28,-0.14
-747,83,-664,0.42,-0.07,-0.21
-750,82,-668,0.56,-0.07,-0.21
-750,87,-667,0.84,-0.14,-0.35
-748,89,-671,0.14,-0.14,-0.28
-748,93,-675,0.0,-0.42,-0.28
-753,100,-671,-0.21,-0.7,-0.28
-737,67,-678,-0.77,-1.05,-0.14
-755,96,-663,1.61,1.19,1.05
-752,99,-660,0.56,0.0,-2.38
-749,99,-658,-2.73,-1.89,-5.11
-753,82,-663,-5.32,-3.29,-3.64
-748,67,-669,-4.48,-3.5,-0.28
-740,63,-673,-1.89,-2.66,2.31
-742,67,-672,1.68,-1.19,3.29
-745,77,-670,5.39,0.35,2.31
-747,93,-665,7.42,2.1,-0.56
-741,92,-664,7.49,3.29,-3.29
-741,89,-665,7.07,4.06,-3.01
-745,78,-669,6.79,4.27,-1.75
-748,68,-670,7.21,4.06,-0.14
-750,64,-673,7.84,3.36,1.89
-748,69,-675,8.68,2.24,4.34
-747,81,-674,7.14,0.7,5.74
-743,91,-678,4.69,-1.12,5.25
-741,94,-677,1.68,-3.15,3.43
-738,90,-680,-2.52,-4.55,1.61
-731,81,-676,-4.41,-5.25,0.7
-735,72,-675,-4.9,-5.39,0.07
-744,77,-673,-3.85,-4.9,-1.05
-749,82,-676,-2.73,-4.34,-1.47
-752,89,-668,-2.94,-3.78,-1.19
-751,91,-666,-4.13,-3.08,-1.19
-743,86,-666,-4.48,-2.87,-1.68
-740,82,-666,-4.48,-2.52,-1.82
-745,79,-657,-4.13,-1.75,-1.54
-745,82,-654,-3.15,-0.77,-1.61
-743,81,-653,-1.96,0.21,-2.03
-749,84,-656,-0.91,0.63,-2.17
-753,89,-651,-0.28,1.12,-3.01
-753,88,-651,-0.98,1.33,-3.92
-750,78,-659,-0.84,0.84,-3.71
-751,75,-668,-0.14,0.84,-2.52
-760,78,-676,1.19,1.12,-1.68
-754,81,-680,2.03,1.19,-1.4
-746,80,-679,1.82,0.91,-1.19
-743,72,-674,1.61,0.28,-0.7
-740,67,-670,1.75,-0.49,-0.35
-736,64,-668,1.61,-0.63,0.21
-737,62,-667,2.24,-0.77,1.12
-743,67,-668,2.38,-1.19,2.31
-744,85,-669,1.96,-1.75,3.01
-741,94,-664,0.56,-1.96,1.96
-737,91,-664,-0.84,-1.68,1.12
-742,83,-668,-0.7,-1.33,1.33
-744,80,-671,0.07,-0.77,1.68
-746,84,-669,0.98,-0.21,1.75
-747,80,-668,1.4,0.21,1.4
-748,77,-666,2.24,0.28,0.84
-745,81,-660,2.24,0.35,0.28
-745,81,-662,1.75,0.49,-0.07
-744,80,-667,0.91,0.42,-0.21
-748,75,-677,1.19,0.56,-0.14
-754,78,-678,1.4,0.77,0.07
-754,86,-676,0.98,0.63,-0.35
-753,87,-675,-0.21,0.28,-0.77
-749,85,-671,-1.54,0.0,-0.7
-748,82,-672,-2.24,-0.35,-0.91
-746,84,-669,-2.52,-0.56,-1.4
-744,83,-668,-2.59,-0.77,-1.47
-739,80,-663,-2.03,-0.63,-1.47
-739,80,-664,-0.84,-0.35,-1.19
-744,80,-664,0.28,-0.14,-0.91
-745,82,-671,0.56,0.0,-0.84
-743,80,-674,0.21,0.0,-0.91
-742,79,-678,-0.07,-0.14,-0.77
-739,76,-676,-0.56,-0.35,-0.63
-742,72,-673,-0.42,-0.35,-0.56
-739,72,-674,-0.21,-0.63,-0.56
-739,76,-672,-0.84,-1.12,-0.63
-740,76,-671,-1.26,-1.33,-0.07
-742,76,-672,-0.77,-1.4,0.56
-743,78,-673,-0.49,-1.26,0.63
-747,79,-672,-0.14,-1.05,0.56
-747,81,-673,0.42,-1.05,0.35
-748,84,-671,0.07,-0.98,0.21
-749,82,-667,-0.28,-0.98,0.28
-748,79,-667,0.42,-0.98,0.35
-748,81,-665,1.33,-0.77,0.49
-747,83,-666,1.68,-0.49,0.56
-744,82,-669,2.17,-0.49,0.42
-740,82,-674,2.31,-0.42,0.49
-737,82,-675,2.38,-0.42,0.49
-737,81,-674,1.54,-0.42,0.49
-735,75,-675,0.77,-0.56,0.42
-731,68,-681,0.77,-0.7,0.35
-737,71,-688,1.12,-1.05,0.21
-738,76,-691,1.12,-1.47,0.07
-731,82,-692,0.49,-1.96,-0.14
-728,81,-685,-0.42,-2.52,-0.35
-730,79,-683,-1.47,-3.01,-0.42
-730,77,-682,-2.17,-3.5,-0.49
-732,74,-684,-2.94,-3.92,-0.63
-734,75,-684,-3.43,-4.41,-0.77
-733,75,-691,-3.57,-4.83,-0.77
-733,83,-689,-3.71,-5.39,-0.7
-735,76,-688,-4.34,-5.88,-0.56
-734,75,-683,-4.83,-6.51,-0.84
-739,80,-675,-4.97,-7.0,-0.91
-744,80,-670,-5.6,-7.21,-0.7
-744,75,-665,-7.21,-7.28,-0.77
-744,71,-670,-6.72,-7.42,-1.05
-748,73,-669,-5.53,-7.42,-0.91
-754,82,-665,-4.9,-7.35,-0.7
-753,87,-659,-4.62,-7.42,-0.7
-751,84,-656,-5.18,-7.28,-0.77
-748,78,-657,-4.55,-7.28,-0.77
-750,83,-661,-2.87,-7.28,-0.63
-753,95,-660,-1.96,-7.21,-0.49
-754,99,-657,-2.52,-7.07,-0.28
-754,91,-653,-3.22,-7.07,-0.42
-753,83,-650,-3.64,-6.93,-0.63
-754,81,-652,-3.29,-6.79,-0.84
-755,86,-655,-2.73,-6.79,-0.98
-763,92,-655,-3.22,-6.72,-0.98
-764,95,-652,-4.34,-6.86,-1.12
-767,91,-644,-6.44,-6.79,-1.19
-768,82,-638,-7.98,-6.65,-1.33
-767,76,-630,-8.47,-6.3,-1.68
-773,83,-627,-8.68,-5.88,-1.89
-777,91,-625,-8.12,-5.67,-1.96
-780,103,-626,-8.47,-5.32,-1.82
-784,112,-626,-9.1,-5.04,-1.68
-785,115,-624,-9.8,-4.9,-1.61
-784,115,-622,-10.99,-4.55,-1.47
-786,105,-621,-10.64,-4.34,-1.47
-787,104,-623,-9.1,-4.06,-1.33
-787,113,-622,-7.42,-3.71,-1.12
-786,114,-621,-6.44,-3.43,-0.84
-785,119,-624,-5.46,-3.36,-0.7
-784,121,-617,-5.67,-3.08,-0.35
-783,113,-618,-6.3,-2.66,0.0
-776,97,-621,-5.46,-2.45,0.21
-782,81,-623,-4.34,-2.03,0.49
-785,74,-628,-2.59,-1.61,0.56
-776,77,-634,-0.14,-1.26,0.42
-774,86,-639,0.91,-0.98,0.35
-770,96,-646,1.26,-1.05,0.28
-767,102,-649,0.77,-1.26,0.14
-765,100,-647,-1.05,-1.4,0.07
-760,99,-644,-1.96,-1.68,-0.21
-755,98,-642,-1.96,-1.89,-0.49
-755,98,-642,-2.24,-1.82,-0.14
-759,101,-643,-1.54,-1.96,-0.07
-762,107,-643,-0.77,-2.03,-0.42
-763,114,-638,-0.84,-1.96,-0.49
-765,114,-634,-1.05,-2.03,-0.7
-768,109,-631,-1.12,-2.1,-0.63
-771,107,-633,-1.47,-2.03,-0.35
-778,101,-632,-0.91,-2.03,-0.49
-780,102,-632,-0.77,-1.89,-0.56
-782,102,-627,-1.19,-1.75,-0.56
-783,98,-625,-1.54,-1.68,-0.77
-782,98,-622,-1.4,-1.54,-0.77
-784,102,-619,-1.47,-1.19,-0.77
-787,105,-618,-1.4,-0.91,-0.77
-787,109,-620,-0.91,-0.49,-0.63
-793,108,-621,-0.35,-0.07,-0.35
-796,112,-620,0.07,0.21,-0.28
-791,116,-615,0.28,0.42,-0.35
-791,110,-614,-0.28,0.84,-0.28
-789,103,-614,0.7,1.19,-0.14
-786,105,-620,2.66,1.61,-0.07
-788,114,-618,3.64,2.1,0.14
-783,109,-617,4.41,2.59,0.42
-777,104,-615,5.32,2.94,0.49
-780,100,-613,6.23,3.43,0.56
-787,104,-616,7.28,3.85,0.77
-784,103,-627,8.4,4.27,0.98
-784,106,-637,9.1,4.55,0.98
-788,111,-635,8.05,4.76,0.98
-782,111,-633,4.34,4.83,0.84
-772,98,-636,0.63,4.69,0.63
-767,88,-641,-3.71,4.69,0.49
-768,79,-647,-7.0,4.62,0.07
-762,71,-661,-7.14,4.41,-0.42
-753,79,-664,-5.18,4.2,-0.56
-750,100,-657,-3.5,4.2,-0.56
-745,107,-654,-2.31,3.99,-0.49
-740,108,-656,-0.84,3.5,-0.28
-741,110,-666,0.77,3.22,0.14
-735,110,-667,2.24,2.94,0.21
-725,110,-663,2.03,2.94,-0.07
-704,98,-659,1.89,3.08,-0.35
-706,84,-659,3.57,2.87,-0.56
-724,84,-659,5.39,3.01,-0.28
-732,86,-668,6.16,3.01,-0.21
-732,88,-676,6.72,2.73,-0.56
-734,93,-678,6.37,2.52,-0.84
-739,102,-674,6.23,1.96,-0.91
-742,107,-670,5.46,1.33,-0.84
-747,98,-666,4.2,0.77,-0.77
-753,90,-667,3.99,0.28,-0.91
-754,91,-669,4.69,-0.21,-0.98
-759,99,-670,5.18,-0.7,-0.77
-763,100,-670,5.11,-1.26,-0.77
-762,98,-665,3.99,-1.75,-0.77
-764,97,-660,2.38,-2.1,-0.84
-759,88,-660,0.98,-2.66,-1.19
-761,87,-658,-0.42,-2.87,-1.33
-758,85,-660,-1.89,-3.01,-1.61
-751,88,-661,-3.43,-3.43,-1.89
-753,86,-663,-5.18,-3.78,-1.96
-756,82,-663,-6.44,-4.2,-2.03
-757,81,-660,-6.65,-4.55,-2.1
-755,88,-654,-5.88,-4.69,-2.1
-756,96,-650,-5.53,-4.83,-1.96
-765,104,-648,-4.41,-4.97,-1.89
-768,104,-646,-4.48,-4.9,-1.61
-766,101,-644,-5.18,-4.97,-1.61
-761,91,-640,-5.04,-4.9,-1.61
-756,90,-642,-4.06,-4.76,-1.61
-758,97,-636,-2.94,-4.62,-1.47
-760,99,-633,-3.15,-4.13,-1.19
-756,96,-634,-3.15,-3.99,-1.05
-758,86,-636,-2.31,-3.57,-0.84
-760,87,-645,-0.28,-3.43,-0.63
-766,96,-649,2.03,-3.43,-0.49
-771,106,-642,2.24,-3.22,-0.49
-768,106,-633,1.19,-3.22,-0.56
-767,92,-630,0.56,-3.22,-0.56
-771,82,-631,0.56,-2.94,-0.21
-776,80,-634,1.19,-2.73,0.0
-769,83,-639,1.19,-2.45,0.0
-772,87,-638,1.33,-2.38,-0.14
-783,91,-632,0.35,-2.17,-0.07
-782,96,-627,-1.26,-2.1,0.0
-783,90,-631,-2.38,-2.1,-0.07
-793,93,-635,-2.45,-2.1,-0.07
-801,102,-641,-2.31,-2.24,0.0
-797,117,-640,-2.52,-2.52,0.0
-792,122,-631,-4.62,-2.52,0.14
-789,114,-626,-6.44,-2.66,0.14
-779,102,-628,-6.37,-2.73,0.21
-777,100,-625,-5.46,-2.38,0.35
-780,100,-616,-4.97,-1.82,0.49
-772,102,-614,-4.9,-1.33,0.63
-768,98,-615,-3.85,-0.84,0.7
-772,95,-613,-3.57,0.14,0.91
-775,94,-611,-3.85,0.98,0.7
-775,85,-617,-2.8,1.4,0.63
-780,85,-623,-1.4,1.96,0.77
-786,93,-622,0.14,2.66,1.12
-783,100,-626,0.77,3.08,1.33
-778,103,-630,1.54,3.43,1.4
-780,107,-636,1.89,3.57,1.4
-779,116,-638,1.75,3.64,1.26
-776,117,-641,0.98,3.43,1.19
-773,117,-646,-0.07,3.15,1.26
-767,109,-647,-0.77,2.94,1.4
-768,100,-650,-0.42,2.73,1.33
-768,97,-647,0.49,2.52,1.19
-762,96,-647,0.84,2.45,0.98
-760,91,-641,0.98,2.38,0.98
-764,87,-643,0.84,2.38,0.98
-759,91,-642,1.19,2.38,0.91
-756,94,-639,0.63,2.73,0.98
-758,94,-638,0.0,3.01,0.98
-758,93,-638,0.28,3.29,0.91
-762,97,-637,0.42,3.57,0.98
-763,102,-637,0.77,3.92,0.98
-764,105,-635,0.98,4.2,1.19
-766,107,-634,1.26,4.48,1.19
-769,111,-635,1.82,4.69,1.26
-775,119,-642,2.66,4.83,1.33
-765,127,-640,2.94,5.04,1.47
-763,128,-642,1.82,5.25,1.54
-758,117,-651,1.89,5.04,1.75
-754,110,-658,2.59,4.9,1.82
-758,102,-663,2.94,4.83,1.96
-757,93,-669,4.06,4.48,1.82
-752,93,-671,4.9,4.13,1.61
-755,98,-664,4.55,3.85,1.47
-750,97,-663,2.8,3.71,1.12
-739,94,-667,2.03,3.29,0.84
-734,91,-673,1.82,3.01,0.77
-737,95,-673,1.96,2.73,0.77
-738,93,-668,0.91,2.8,0.77
-734,83,-663,0.7,2.73,0.63
-727,80,-667,2.1,2.73,0.42
-729,93,-670,4.41,2.87,0.42
-735,115,-674,4.97,2.94,0.49
-735,124,-676,3.36,2.66,0.42
-732,126,-676,1.12,2.17,0.07
-733,120,-672,-2.31,1.89,-0.07
-731,103,-676,-3.85,1.4,-0.07
-733,87,-675,-2.73,0.98,-0.07
-744,85,-671,-2.24,0.98,0.0
-744,86,-675,-0.35,0.63,-0.14
-744,99,-675,1.54,0.28,-0.14
-750,110,-673,1.33,0.21,0.0
-746,115,-669,0.07,-0.21,-0.21
-738,110,-670,-1.19,-0.63,-0.28
-744,100,-670,-1.82,-0.77,-0.14
-746,99,-670,-0.98,-0.91,-0.35
-744,101,-672,0.0,-1.19,-0.42
-749,101,-670,0.7,-1.19,-0.21
-749,105,-670,1.4,-1.26,-0.14
-744,111,-669,1.47,-1.47,-0.49
-747,108,-666,0.56,-1.47,-0.56
-750,106,-664,-0.21,-1.68,-0.63
-741,97,-662,-0.63,-1.75,-0.56
-743,91,-660,-0.56,-1.26,0.0
-741,90,-661,0.56,-1.33,-0.63
-743,93,-661,0.98,-1.26,-0.84
-752,96,-662,0.63,-0.98,-0.63
-751,100,-662,0.49,-0.98,-0.98
-751,106,-658,-0.63,-1.12,-1.19
-754,108,-656,-1.96,-1.19,-1.68
-749,107,-660,-2.31,-1.61,-2.03
-750,108,-663,-2.87,-2.03,-2.03
-755,107,-666,-2.73,-2.52,-1.96
-751,106,-668,-1.89,-2.66,-1.4
-746,107,-663,-1.05,-2.59,-0.91
-748,107,-661,-1.26,-2.45,-0.7
-752,102,-656,-1.61,-3.08,-0.7
-751,99,-655,-2.73,-3.71,-0.84
-755,98,-654,-3.01,-3.57,-0.91
-757,97,-654,-2.87,-3.36,-1.26
-755,100,-653,-3.29,-2.94,-1.26
-750,99,-653,-2.59,-2.66,-1.05
-744,97,-654,-1.4,-2.24,-0.21
-762,110,-647,-0.49,-1.4,-0.98
-764,97,-645,-1.96,-2.66,-2.24
-756,90,-653,-1.82,-3.64,0.63
-758,96,-654,1.05,-2.45,2.52
-770,111,-653,2.8,-0.84,1.33
-765,118,-653,2.17,-0.42,-0.35
-755,108,-654,0.28,-0.63,-0.56
-753,100,-656,-0.56,-0.63,-0.7
-748,96,-658,0.0,-0.42,-0.98
-747,93,-662,0.14,-0.98,-1.05
-749,93,-664,0.56,-1.4,-0.7
-751,95,-660,1.82,-1.05,-0.28
-753,108,-655,2.52,-0.77,-0.21
-744,111,-652,1.75,-0.91,-0.42
-743,106,-655,1.26,-0.7,-0.35
-748,94,-655,1.61,-0.42,-0.28
-748,90,-656,1.82,-0.14,-0.21
-752,91,-661,3.29,-0.21,-0.28
-754,94,-661,3.57,-0.21,-0.21
-755,102,-659,3.01,-0.28,-0.42
-754,106,-655,2.31,-0.49,-0.56
-752,103,-652,0.35,-0.42,-0.49
-750,90,-649,-1.47,-0.56,-0.63
-755,81,-651,-1.05,-0.49,-0.63
-754,86,-656,0.42,-0.28,-0.63
-759,99,-657,1.19,-0.14,-0.56
-764,108,-658,0.84,-0.21,-0.42
-765,108,-655,0.07,-0.35,-0.35
-765,105,-652,-0.7,-0.28,-0.35
-762,103,-650,-0.7,-0.42,-0.42
-759,101,-653,-0.35,-0.35,-0.28
-762,99,-657,0.07,-0.35,0.0
-761,95,-657,0.84,-0.35,0.21
-755,94,-657,1.05,-0.35,0.28
-749,93,-655,1.05,-0.35,0.35
-751,92,-652,0.42,-0.28,0.35
-754,89,-653,-0.21,-0.28,0.28
-750,91,-657,-0.14,-0.21,0.21
-748,102,-661,-0.14,-0.21,0.21
-751,108,-663,-0.35,-0.28,0.21
-751,108,-662,-0.84,-0.28,0.28
-747,103,-663,-0.77,-0.56,0.21
-750,100,-665,0.0,-0.77,0.28
-753,100,-653,0.35,-0.7,0.28
-745,101,-670,0.56,-0.84,0.21
-738,96,-639,-0.21,-0.21,0.28
-751,85,-665,0.56,-0.35,0.21
-746,95,-650,1.61,-0.14,0.28
-750,104,-661,1.54,0.14,0.07
-755,100,-664,0.77,-0.14,0.28
-748,108,-660,1.05,-0.21,0.0
-755,99,-665,0.14,-0.14,0.14
-751,103,-653,0.42,-0.28,-0.07
-754,97,-659,-0.28,-0.42,-0.07
-753,94,-659,0.0,-0.42,0.07
-755,93,-663,0.56,-0.56,0.07
-759,98,-658,0.14,-0.49,0.0
-753,98,-660,-0.56,-0.56,-0.14
-744,95,-660,-0.77,-0.7,-0.28
-751,98,-658,-1.26,-0.77,-0.28
-750,102,-655,-1.61,-0.91,-0.28
-742,103,-649,-2.03,-0.84,-0.35
-745,96,-655,-1.82,-0.84,-0.28
-749,96,-653,-0.63,-0.49,-0.14
-751,101,-662,0.84,-0.28,0.07
-755,104,-665,1.12,-0.14,0.21
-757,103,-666,1.26,-0.21,0.14
-756,98,-665,0.49,-0.49,0.0
-754,98,-663,0.21,-0.7,0.0
-752,94,-661,0.0,-0.91,0.0
-755,94,-661,0.0,-0.91,0.0
-755,96,-661,0.21,-0.98,0.0
-755,99,-659,0.21,-0.91,0.0
-753,102,-656,0.07,-0.91,0.0
-753,102,-652,-0.63,-0.77,0.0
-755,97,-653,-0.7,-0.7,0.0
-752,94,-654,-0.35,-0.56,0.0
-751,95,-653,-0.14,-0.35,-0.07
-749,98,-656,0.07,-0.28,0.0
-746,102,-658,0.28,-0.21,0.0
-748,106,-662,0.63,-0.28,0.0
-750,105,-662,0.56,-0.28,0.0
-749,105,-662,0.56,-0.42,-0.07
-748,102,-661,0.56,-0.56,-0.07
-749,101,-663,0.77,-0.63,-0.07
-751,101,-665,1.05,-0.84,-0.07
-753,103,-663,0.63,-1.05,-0.07
-754,95,-663,-0.21,-1.12,-0.14
-751,86,-662,-0.14,-1.19,-0.21
-751,89,-658,0.14,-1.19,-0.35
-755,93,-656,-0.21,-1.05,-0.35
-753,98,-655,-0.28,-1.05,-0.49
-751,102,-653,-0.98,-0.84,-0.56
-750,102,-653,-1.47,-0.63,-0.42
-752,101,-652,-0.77,-0.63,-0.42
-755,103,-653,-0.63,-0.35,-0.21
-757,100,-654,0.28,-0.28,-0.07
-755,102,-655,1.19,-0.14,0.0
-757,104,-656,1.33,0.0,0.07
-754,101,-660,1.75,-0.07,0.14
-752,102,-664,1.54,-0.14,0.0
-752,99,-664,0.7,-0.28,0.0
-751,94,-663,0.07,-0.35,-0.07
-748,90,-664,-0.14,-0.63,-0.14
-747,90,-667,0.21,-0.77,-0.21
-750,95,-667,0.42,-0.91,-0.14
-750,101,-670,0.35,-1.12,-0.14
-747,104,-667,0.35,-1.47,-0.28
-756,101,-660,-0.7,-1.54,-0.28
-753,105,-655,-1.05,-1.75,-0.49
-752,99,-654,-1.47,-1.75,-0.35
-753,92,-651,-1.19,-1.54,-0.28
-751,93,-653,-0.42,-1.33,-0.28
-749,96,-654,-0.07,-1.12,-0.21
-750,96,-655,-0.28,-0.98,-0.14
-750,98,-656,-0.21,-0.91,-0.07
-747,97,-658,-0.42,-0.77,-0.07
-747,100,-658,-0.28,-0.77,-0.28
-747,101,-658,-0.14,-0.63,-0.28
-747,103,-658,0.14,-0.7,-0.14
-750,101,-662,0.35,-0.7,-0.07
-753,97,-662,0.42,-0.77,0.0
-753,94,-662,0.0,-0.84,-0.07
-751,94,-662,0.49,-1.05,-0.21
-754,96,-663,0.21,-1.12,-0.21
-755,100,-663,0.35,-1.33,-0.28
-753,103,-661,0.0,-1.4,-0.35
-754,100,-653,-1.05,-1.4,-0.28
-753,93,-649,-1.47,-1.26,-0.42
-755,90,-651,-1.05,-1.12,-0.42
-754,91,-653,-0.63,-0.91,-0.35
-759,98,-656,-0.56,-0.77,-0.21
-758,104,-660,0.42,-0.84,-0.07
-754,108,-662,0.21,-0.84,-0.07
-754,111,-656,-0.07,-0.98,-0.28
-751,103,-650,-0.91,-0.91,-0.14
-750,93,-652,-0.84,-0.91,-0.07
-751,87,-654,-0.14,-0.7,0.07
-753,90,-653,0.21,-0.49,0.0
-753,94,-656,0.49,-0.35,0.07
-751,97,-658,0.56,-0.28,0.0
-757,103,-660,0.21,-0.42,0.07
-758,105,-662,-0.28,-0.56,-0.07
-755,105,-663,-0.63,-0.7,-0.21
-755,102,-661,-0.91,-0.84,-0.21
-755,101,-660,-0.7,-1.05,-0.21
-752,100,-657,-0.56,-1.12,-0.14
-750,95,-653,-0.77,-0.98,-0.07
-745,92,-651,-0.28,-0.84,-0.14
-747,94,-655,0.28,-0.7,0.0
-753,99,-658,0.49,-0.63,0.07
-754,100,-657,-0.21,-0.49,0.07
-747,97,-658,-0.21,-0.49,-0.07
-748,98,-659,0.49,-0.42,-0.14
-751,106,-656,0.77,-0.28,-0.07
-752,106,-658,0.63,-0.42,0.0
-750,102,-659,0.49,-0.49,0.0
-756,97,-656,0.35,-0.42,0.0
-761,93,-652,0.28,-0.42,0.0
-757,91,-651,0.56,-0.42,0.07
-757,93,-648,0.84,-0.35,0.14
-759,99,-654,0.7,-0.35,0.14
-754,105,-664,1.05,-0.35,0.14
-757,106,-660,0.49,-0.07,0.21
-762,102,-658,-0.42,-0.07,0.07
-753,99,-660,0.21,-0.42,-0.07
-751,97,-660,0.21,-0.35,0.07
-756,97,-659,0.21,-0.42,0.21
-753,96,-661,0.42,-0.56,0.14
-750,96,-663,0.49,-0.63,0.14
-747,99,-657,0.77,-0.63,0.07
-746,101,-655,0.21,-0.49,0.0
-747,97,-654,0.35,-0.56,0.0
-750,96,-654,0.42,-0.28,0.14
-751,97,-654,0.49,-0.21,0.14
-753,97,-654,0.56,-0.14,0.14
-751,97,-660,0.07,-0.21,0.14
-747,98,-662,0.28,-0.21,0.07
-749,100,-664,0.35,-0.28,0.0
-748,103,-662,0.14,-0.42,-0.07
-745,100,-661,-0.14,-0.42,-0.07
-747,97,-659,0.07,-0.42,-0.07
-752,98,-657,0.35,-0.35,0.0
-752,97,-659,0.49,-0.28,0.0
-753,99,-657,0.49,-0.35,-0.07
-752,97,-655,0.0,-0.07,0.0
-753,92,-656,0.14,-0.07,-0.07
-755,92,-661,0.98,-0.14,0.0
-757,100,-663,1.19,-0.07,0.0
-756,108,-662,0.91,-0.21,-0.07
-753,107,-662,0.07,-0.42,-0.07
-754,100,-666,-0.49,-0.7,-0.07
-751,98,-665,-0.14,-0.91,-0.07
-750,100,-665,-0.35,-1.05,-0.14
-751,96,-659,-0.63,-1.12,-0.07
-749,92,-656,-0.35,-1.12,-0.21
-747,94,-655,-0.07,-0.98,-0.28
-748,100,-654,-0.21,-0.84,-0.21
-749,99,-659,-0.7,-0.77,-0.21
-749,98,-661,-0.91,-0.84,-0.28
-751,99,-662,-0.84,-0.77,-0.35
-752,101,-660,-0.49,-0.84,-0.35
-745,101,-657,0.07,-0.84,-0.35
-744,98,-656,0.21,-0.7,-0.21
-748,96,-651,0.21,-0.42,-0.21
-746,94,-652,0.28,-0.42,-0.14
-748,88,-659,1.05,-0.21,-0.07
-756,84,-666,3.29,-0.07,0.07
-763,105,-670,4.13,-0.21,-0.07
-756,121,-672,2.17,-0.63,-0.28
-755,112,-671,-0.98,-1.19,-0.56
-758,93,-664,-3.5,-1.47,-1.05
-754,89,-660,-3.36,-1.82,-1.33
-751,87,-658,-1.82,-1.75,-1.19
-751,97,-658,0.0,-1.68,-1.05
-748,112,-657,1.26,-1.54,-0.98
-747,122,-659,0.77,-1.61,-1.05
-748,116,-660,-0.42,-1.75,-1.12
-744,103,-655,-1.05,-1.54,-1.05
-747,88,-651,-0.84,-1.33,-1.05
-748,82,-650,0.84,-1.12,-1.12
-748,84,-648,2.38,-0.77,-0.91
-754,95,-654,3.57,-0.56,-0.77
-759,104,-659,3.5,-0.56,-0.63
-758,105,-663,2.24,-0.56,-0.91
-752,100,-659,0.63,-0.7,-1.05
-750,94,-655,0.56,-0.84,-1.19
-750,91,-654,0.63,-0.7,-1.05
-754,89,-655,1.05,-0.63,-0.91
-758,87,-656,1.54,-0.49,-0.77
-760,89,-658,1.68,-0.42,-0.77
-761,91,-658,1.54,-0.42,-0.98
-759,97,-654,0.91,-0.42,-1.12
-752,100,-657,0.07,-0.49,-1.19
-749,96,-657,-0.42,-0.63,-1.12
-758,94,-659,0.0,-0.63,-0.98
-757,91,-659,0.28,-0.63,-0.98
-756,87,-657,0.7,-0.63,-0.98
-759,87,-654,1.47,-0.63,-0.91
-757,94,-653,1.54,-0.56,-0.84
-749,95,-655,1.05,-0.42,-0.7
-744,91,-662,0.63,-0.49,-0.63
-745,91,-664,0.77,-0.56,-0.63
-747,90,-663,0.56,-0.42,-0.63
-746,87,-659,0.56,-0.49,-0.63
-749,84,-657,0.56,-0.42,-0.63
-752,85,-657,0.7,-0.35,-0.63
-754,90,-658,0.91,-0.35,-0.7
-752,96,-665,1.05,-0.35,-0.63
-751,98,-664,0.77,-0.42,-0.56
-753,95,-664,0.42,-0.7,-0.77
-753,88,-659,-0.07,-0.84,-0.7
-754,82,-653,0.0,-0.77,-0.49
-755,76,-651,0.35,-0.7,-0.49
-757,81,-657,0.98,-0.49,-0.63
-754,89,-659,1.33,-0.35,-0.49
-756,100,-660,0.84,-0.42,-0.35
-753,97,-657,-0.49,-0.28,-0.28
-750,86,-656,-1.26,-0.35,-0.35
-751,82,-658,-0.42,-0.42,-0.42
-755,87,-658,0.56,-0.28,-0.21
-759,94,-659,0.56,-0.28,-0.07
-755,89,-659,0.42,-0.35,0.0
-753,89,-658,0.42,-0.21,-0.07
-751,88,-658,0.14,-0.28,0.0
-745,84,-660,0.07,-0.28,0.07
-748,80,-660,0.35,-0.21,0.14
-751,84,-661,0.63,-0.21,0.21
-750,88,-663,0.7,-0.14,0.14
-755,88,-663,0.35,-0.28,0.14
-758,89,-662,0.07,-0.28,0.0
-753,92,-660,-0.21,-0.42,0.0
-751,91,-660,-0.7,-0.42,0.07
-755,89,-661,-0.42,-0.49,0.07
-755,89,-663,-0.28,-0.56,0.14
-752,92,-664,0.21,-0.7,0.14
-751,92,-664,0.07,-0.77,0.28
-750,92,-664,-0.07,-0.91,0.21
-747,90,-661,-0.56,-0.98,0.14
-747,90,-661,-0.84,-1.05,0.07
-748,87,-658,-0.84,-0.98,0.07
-751,87,-660,-0.63,-0.91,0.07
-749,87,-657,0.0,-0.84,0.14
-748,88,-656,0.0,-0.56,0.21
-750,87,-656,0.28,-0.63,0.21
-748,85,-657,0.42,-0.56,0.28
-754,87,-660,0.35,-0.42,0.42
-752,91,-658,0.49,-0.42,0.42
-759,92,-662,0.0,-0.42,0.49
-759,92,-665,0.49,-0.63,0.49
-757,96,-664,-0.14,-0.77,0.28
-758,98,-666,-0.7,-1.05,0.42
-754,93,-664,-1.12,-1.26,0.42
-750,90,-661,-1.61,-1.33,0.28
-750,87,-657,-1.12,-1.4,0.14
-751,88,-655,-0.56,-1.26,0.21
-752,88,-654,-0.28,-1.12,0.35
-753,89,-659,-0.07,-1.05,0.42
-753,91,-660,0.07,-1.05,0.28
-751,96,-661,-0.49,-0.98,0.28
-746,97,-659,-0.91,-1.05,0.14
-746,90,-657,-1.26,-0.98,0.28
-749,87,-658,-0.77,-0.84,0.28
-746,90,-658,0.21,-0.77,0.28
-744,95,-656,0.42,-0.56,0.35
-751,92,-657,0.14,-0.49,0.49
-749,88,-661,0.84,-0.56,0.42
-751,92,-665,1.05,-0.56,0.42
-757,96,-664,0.49,-0.63,0.42
-757,92,-660,-0.28,-0.77,0.21
-754,90,-659,-0.77,-0.77,0.07
-759,91,-660,-0.35,-0.98,0.0
-760,96,-658,-0.28,-0.98,0.14
-754,97,-656,-0.7,-0.91,0.14
-753,93,-654,-0.56,-0.91,0.0
-754,91,-652,0.0,-0.77,0.14
-753,94,-656,1.05,-0.7,0.28
-754,100,-657,0.98,-0.63,0.35
-757,101,-659,0.28,-0.56,0.28
-755,95,-661,-0.14,-0.7,0.14
-752,92,-660,-0.35,-0.77,0.14
-749,89,-661,0.14,-0.7,0.21
-750,88,-657,0.35,-0.63,0.21
-748,86,-655,0.28,-0.42,0.21
-744,86,-656,0.63,-0.35,0.21
-750,90,-660,0.63,-0.28,0.21
-748,94,-657,0.21,-0.28,0.28
-753,94,-668,0.63,-0.21,0.42
-750,98,-672,0.7,-0.56,0.28
-751,106,-667,-0.49,-0.7,-0.21
-752,99,-663,-1.05,-0.84,-0.28
-748,92,-660,-1.47,-1.12,-0.14
-750,85,-656,-1.54,-0.98,-0.07
-757,82,-655,-0.84,-0.84,-0.14
-754,87,-658,0.14,-0.77,-0.21
-755,96,-659,0.49,-0.7,-0.14
-759,100,-655,0.0,-0.56,-0.07
-755,99,-653,-0.77,-0.63,-0.21
-751,95,-652,-1.05,-0.49,-0.28
-749,89,-654,-0.63,-0.28,-0.14
-750,91,-660,0.42,-0.21,0.07
-752,94,-666,0.77,-0.21,0.21
-752,93,-668,0.63,-0.21,0.07
-753,95,-656,-0.07,-0.35,0.07
-752,91,-658,-0.42,-0.42,0.0
-743,90,-657,-0.7,-0.49,-0.21
-751,94,-658,-1.19,-0.35,-0.42
-755,96,-653,-1.12,-0.28,-0.21
-753,94,-658,-0.84,-0.21,-0.14
-754,93,-660,-0.42,-0.07,-0.21
-753,96,-658,0.14,-0.07,-0.28
-756,99,-657,0.42,-0.07,-0.07
-752,99,-663,0.91,-0.21,0.14
-750,98,-666,0.35,-0.28,0.0
-755,98,-664,-0.07,-0.35,-0.14
-750,95,-665,-0.35,-0.63,-0.28
-746,90,-662,-0.91,-0.77,-0.35
-752,83,-658,-0.98,-0.63,-0.21
-750,82,-653,-0.42,-0.56,-0.35
-749,86,-654,-0.28,-0.42,-0.28
-749,91,-659,-0.14,-0.28,-0.28
-755,100,-664,-0.14,-0.35,-0.28
-756,104,-666,-0.63,-0.42,-0.21
-752,100,-663,-1.26,-0.56,-0.42
-752,97,-660,-1.26,-0.7,-0.42
-753,94,-656,-0.63,-0.7,-0.42
-750,95,-656,-0.42,-0.63,-0.21
-747,94,-656,-0.28,-0.49,-0.21
-747,91,-658,-0.28,-0.35,-0.28
-748,89,-660,-0.14,-0.28,-0.28
-749,92,-661,0.28,-0.28,-0.28
-748,95,-662,0.07,-0.28,-0.21
-748,93,-663,-0.14,-0.28,-0.28
-751,91,-662,-0.14,-0.35,-0.35
-751,93,-664,0.07,-0.35,-0.28
-750,93,-662,0.35,-0.42,-0.28
-755,95,-658,0.07,-0.35,-0.28
-752,92,-656,0.0,-0.42,-0.35
-749,92,-658,0.42,-0.42,-0.35
-755,98,-659,0.49,-0.35,-0.28
-755,98,-660,0.14,-0.35,-0.21
-752,94,-660,-0.63,-0.28,-0.35
-749,94,-661,-0.35,-0.35,-0.35
-751,93,-659,-0.07,-0.28,-0.28
-749,93,-660,-0.07,-0.21,-0.21
-749,92,-661,0.14,-0.21,-0.21
-751,92,-663,0.21,-0.14,-0.14
-749,95,-665,0.21,-0.21,-0.21
-747,96,-661,0.14,-0.28,-0.14
-749,91,-665,0.35,-0.28,-0.07
-749,91,-664,0.63,-0.49,-0.21
-750,95,-665,0.63,-0.49,-0.28
-753,96,-663,0.42,-0.56,-0.07
-753,93,-660,-0.42,-0.63,-0.14
-753,87,-657,-1.05,-0.56,-0.21
-756,85,-655,-1.05,-0.49,-0.14
-752,86,-656,-0.63,-0.28,-0.07
-751,90,-661,0.21,-0.28,0.0
-760,99,-662,0.21,-0.28,0.07
-761,103,-663,-0.49,-0.35,0.07
-755,101,-666,-1.12,-0.63,-0.14
-749,98,-666,-1.33,-0.77,-0.07
-744,96,-663,-1.4,-0.91,0.07
-742,91,-663,-1.26,-0.91,0.14
-739,86,-666,-0.56,-1.05,0.07
-740,90,-665,-0.56,-0.91,-0.07
-740,93,-664,-0.77,-0.91,0.0
-737,89,-664,-1.26,-0.98,0.0
-743,87,-661,-1.4,-0.91,-0.21
-750,87,-660,-0.7,-0.77,-0.28
-751,99,-660,0.35,-0.84,-0.28
-759,105,-658,0.07,-0.7,-0.07
-763,103,-657,-0.28,-0.77,-0.07
-762,100,-656,-0.84,-0.84,0.0
-760,98,-657,-0.98,-0.84,0.14
-759,97,-657,-0.77,-0.84,0.35
-761,95,-658,-1.4,-0.91,0.35
-757,93,-658,-1.19,-0.91,0.21
-756,92,-657,-1.19,-0.77,0.21
-753,94,-659,-1.05,-0.77,0.0
-746,97,-663,-0.21,-0.91,0.07
-746,101,-671,-0.35,-1.05,0.42
-742,102,-664,-0.63,-0.91,0.14
-747,95,-664,-1.19,-0.84,-0.21
-742,93,-656,-0.49,-1.05,-0.14
-744,93,-660,0.07,-0.77,-0.07
-746,95,-657,1.12,-0.7,0.28
-745,101,-659,0.7,-0.49,0.21
-745,98,-660,0.28,-0.49,0.0
-750,94,-664,0.35,-0.56,-0.07
-754,95,-662,0.49,-0.56,0.07
-752,95,-656,0.42,-0.42,0.0
-754,93,-656,0.21,-0.49,-0.07
-754,94,-658,0.49,-0.56,-0.07
-755,100,-663,0.35,-0.56,0.0
-754,103,-667,0.14,-0.7,0.07
-752,105,-669,-0.7,-0.91,-0.07
-750,98,-661,-1.68,-1.05,-0.14
-748,87,-653,-2.03,-0.91,-0.14
-747,78,-653,-0.77,-0.84,0.07
-750,83,-656,1.05,-0.63,0.28
-755,95,-658,1.47,-0.35,0.49
-751,104,-663,1.19,-0.35,0.42
-749,106,-664,0.42,-0.49,0.35
-750,100,-661,-0.56,-0.49,0.28
-753,96,-657,-0.7,-0.56,0.14
-749,90,-656,-0.63,-0.42,0.14
-749,90,-657,0.21,-0.42,0.28
-753,96,-659,0.91,-0.28,0.35
-754,104,-662,0.7,-0.21,0.42
-750,103,-661,-0.07,-0.14,0.42
-743,99,-661,-0.63,-0.14,0.28
-742,95,-661,-0.42,-0.07,0.28
-747,94,-661,0.07,-0.07,0.35
-748,94,-663,0.28,0.07,0.28
-751,94,-665,0.49,0.0,0.14
-754,99,-664,0.49,-0.07,0.0
-754,102,-664,0.28,-0.21,0.0
-751,102,-665,0.07,-0.35,-0.14
-748,100,-667,-0.28,-0.56,-0.14
-746,101,-668,-0.35,-0.84,-0.21
-748,98,-665,-0.7,-0.91,-0.14
-744,95,-661,-0.77,-1.05,-0.14
-744,91,-658,-0.49,-0.91,-0.28
-749,96,-655,-0.14,-0.77,-0.35
-751,99,-651,-0.07,-0.56,-0.35
-753,99,-655,-0.07,-0.35,-0.28
-753,101,-659,0.35,-0.28,-0.14
-755,106,-662,0.42,-0.28,-0.07
-754,107,-666,0.42,-0.42,0.0
-750,102,-665,0.07,-0.49,0.0
-748,96,-658,-0.28,-0.49,0.0
-744,87,-654,0.0,-0.35,-0.07
-742,85,-657,0.91,-0.14,-0.07
-745,92,-660,1.61,0.21,0.0
-746,98,-665,1.47,0.21,0.0
-749,101,-671,1.12,0.07,0.0
-747,102,-671,0.63,-0.14,-0.14
-750,99,-668,-0.21,-0.28,-0.28
-753,93,-667,-0.07,-0.56,-0.35
-752,91,-665,0.14,-0.7,-0.35
-753,97,-667,0.07,-0.84,-0.42
-751,100,-664,0.0,-0.98,-0.49
-750,101,-659,-0.7,-0.98,-0.56
-749,98,-656,-0.91,-0.98,-0.56
-746,95,-653,-0.7,-0.84,-0.56
-746,92,-654,-0.28,-0.63,-0.35
-749,95,-664,0.77,-0.56,-0.21
-753,103,-667,1.12,-0.56,-0.28
-753,103,-667,-0.07,-0.56,-0.28
-748,98,-664,-0.91,-0.77,-0.14
-746,89,-658,-1.12,-0.77,-0.42
-744,83,-654,-0.7,-0.56,-0.63
-743,85,-651,0.56,-0.28,-0.21
-746,92,-656,1.54,0.21,0.14
-750,97,-663,2.1,0.35,0.21
-756,106,-668,2.17,0.35,0.07
-758,107,-671,0.98,0.14,-0.28
-756,100,-666,-0.77,-0.14,-0.35
-749,89,-663,-1.47,-0.49,-0.07
-744,87,-663,-0.42,-0.56,0.0
-742,94,-665,0.42,-0.56,-0.28
-747,99,-666,0.56,-0.56,-0.07
-748,100,-665,0.21,-0.63,-0.07
-746,98,-662,-0.35,-0.49,-0.07
-746,91,-659,-0.84,-0.63,-0.49
-746,87,-658,-0.7,-0.77,0.14
-749,93,-661,0.21,-0.42,0.49
-747,99,-665,0.7,-0.35,-0.7
-751,99,-669,0.35,-0.28,-0.49
-751,98,-669,0.28,-0.49,0.42
-749,99,-665,0.28,-0.56,0.21
-750,95,-659,-0.28,-0.56,-0.35
-749,85,-657,-0.14,-0.49,-0.7
-749,85,-659,0.63,-0.28,-0.28
-753,92,-660,1.26,0.0,0.28
-753,99,-659,0.98,0.07,0.14
-750,99,-665,0.07,-0.07,-0.21
-748,96,-666,-0.28,-0.14,-0.21
-752,98,-664,-0.42,-0.14,0.0
-749,99,-661,-0.28,-0.14,0.07
-746,94,-660,-0.28,-0.14,0.14
-747,93,-662,0.21,-0.07,0.07
-746,97,-662,1.05,0.0,0.0
-749,99,-667,0.98,0.0,0.0
-748,95,-668,0.56,-0.14,0.07
-741,93,-668,0.28,-0.28,0.07
-739,91,-667,-0.35,-0.28,0.07
-742,89,-668,-0.42,-0.49,-0.14
-746,92,-669,-0.21,-0.56,-0.07
-747,99,-669,-0.49,-0.56,-0.07
-747,102,-665,-0.42,-0.7,-0.14
-748,102,-659,-1.05,-0.63,-0.07
-749,94,-657,-0.84,-0.56,0.0
-748,89,-658,0.21,-0.42,0.07
-753,94,-661,0.98,-0.21,0.21
-757,98,-663,1.33,-0.14,0.21
-756,102,-665,0.56,-0.07,0.14
-752,99,-661,-0.28,-0.14,0.07
-749,93,-662,-0.77,-0.21,0.0
-746,89,-662,-0.56,-0.21,0.14
-746,90,-663,-0.28,-0.14,0.28
-744,92,-664,-0.07,-0.07,0.42
-744,95,-670,0.49,-0.14,0.35
-747,101,-673,0.77,-0.28,0.28
-748,106,-667,-0.56,-0.21,0.21
-744,101,-664,-1.75,-0.42,0.14
-742,96,-664,-1.68,-0.56,0.0
-749,105,-663,-1.33,-0.49,0.07
-747,95,-666,-2.73,-0.56,0.21
-742,87,-668,-1.68,-0.49,0.07
-745,86,-667,0.07,-0.35,0.0
-744,96,-665,1.05,-0.28,0.21
-739,104,-664,1.47,-0.28,0.35
-740,105,-666,0.28,-0.28,0.35
-743,97,-663,-0.91,-0.21,0.14
-743,95,-661,-1.05,-0.07,-0.07
-745,92,-662,-0.21,-0.07,0.14
-752,91,-662,0.91,0.14,0.35
-752,99,-665,1.82,0.21,0.35
-749,108,-667,1.68,0.07,0.42
-753,103,-671,0.28,-0.14,0.49
-752,96,-673,-0.35,-0.42,0.35
-751,89,-670,-0.91,-0.49,0.28
-748,86,-665,-0.91,-0.63,0.14
-742,89,-661,-0.14,-0.63,0.21
-743,96,-664,0.28,-0.56,0.28
-744,101,-663,0.35,-0.42,0.35
-744,101,-664,0.07,-0.35,0.28
-748,100,-665,0.07,-0.35,0.21
-749,101,-665,-0.07,-0.28,0.21
-746,101,-665,-0.21,-0.21,0.28
-745,99,-669,-0.07,-0.35,0.35
-749,99,-671,0.0,-0.42,0.35
-748,100,-672,-0.35,-0.42,0.35
-743,99,-669,-0.77,-0.56,0.21
-737,97,-665,-1.26,-0.63,0.0
-738,92,-660,-1.4,-0.42,-0.07
-738,95,-664,-0.63,-0.42,0.0
-740,100,-668,0.07,-0.28,0.21
-744,101,-667,-0.07,-0.07,0.28
-743,101,-671,0.0,-0.21,0.14
-739,101,-666,0.14,-0.35,0.14
-746,100,-663,-0.07,0.0,0.35
-736,96,-664,0.7,-0.07,0.21
-740,97,-669,-0.07,-0.07,-0.07
-752,101,-671,0.49,-0.07,0.0
-751,100,-672,0.0,-0.28,0.0
-748,103,-672,-0.7,-0.42,-0.14
-749,94,-666,-0.56,-0.56,-0.21
-746,97,-660,-0.63,-0.56,-0.42
-745,100,-655,-0.35,-0.35,-0.35
-746,95,-656,-0.14,-0.21,-0.07
-748,100,-665,0.7,0.0,0.07
-753,110,-669,1.4,-0.07,0.07
-751,110,-669,0.21,-0.07,0.14
-745,103,-669,-0.28,-0.21,0.07
-740,94,-664,-0.07,-0.21,-0.07
-741,89,-661,0.42,-0.07,0.07
-742,89,-665,1.4,0.0,0.14
-742,99,-673,1.89,0.0,0.14
-743,106,-677,1.05,-0.07,0.14
-744,106,-677,0.35,-0.35,0.0
-739,101,-670,-0.56,-0.49,-0.07
-736,92,-668,-1.19,-0.49,-0.14
-735,90,-667,0.0,-0.63,-0.28
-742,92,-672,0.56,-0.49,-0.07
-745,100,-676,0.98,-0.63,-0.07
-743,106,-676,0.84,-0.77,-0.21
-742,107,-673,-0.28,-0.98,-0.49
-741,104,-667,-1.05,-1.12,-0.63
-740,97,-660,-1.33,-1.12,-0.56
-739,90,-663,-0.91,-0.98,-0.42
-741,90,-667,0.77,-0.84,-0.35
-744,97,-668,1.26,-0.56,-0.28
-747,103,-674,1.47,-0.7,-0.28
-747,105,-673,1.05,-0.98,-0.42
-746,105,-670,-0.14,-0.98,-0.49
-742,99,-667,-0.49,-1.19,-0.63
-742,94,-665,-0.21,-1.19,-0.7
-743,93,-663,0.14,-0.98,-0.56
-742,95,-670,0.84,-1.05,-0.49
-746,97,-673,1.33,-1.12,-0.35
-750,98,-674,0.84,-1.19,-0.42
-747,99,-673,0.14,-1.4,-0.63
-741,99,-670,-0.56,-1.61,-0.77
-742,96,-666,-1.19,-1.68,-0.84
-744,94,-662,-1.4,-1.61,-0.84
-740,91,-664,-1.12,-1.54,-0.84
-740,94,-667,-0.56,-1.4,-0.77
-743,99,-666,-0.42,-1.26,-0.7
-746,98,-664,-0.63,-1.19,-0.7
-744,95,-667,-0.35,-1.26,-0.7
-747,100,-671,0.14,-1.4,-0.63
-752,107,-667,-0.28,-1.4,-0.63
-747,104,-664,-1.4,-1.4,-0.63
-740,93,-666,-1.68,-1.54,-0.77
-745,91,-666,-0.77,-1.54,-0.77
-746,93,-663,-0.07,-1.33,-0.63
-745,97,-665,0.42,-1.33,-0.63
-744,100,-666,0.63,-1.4,-0.63
-749,102,-663,0.28,-1.33,-0.63
-748,101,-661,-0.07,-1.33,-0.7
-746,95,-661,-0.07,-1.33,-0.56
-748,93,-663,0.28,-1.19,-0.56
-746,94,-664,0.84,-1.05,-0.42
-745,95,-668,1.33,-1.12,-0.42
-747,98,-671,1.54,-1.26,-0.49
-750,101,-666,0.63,-1.19,-0.56
-746,96,-662,-0.63,-1.19,-0.7
-736,89,-662,-0.63,-1.26,-0.77
-737,92,-661,-0.14,-1.05,-0.63
-745,93,-660,0.21,-0.84,-0.49
-747,97,-663,0.49,-0.77,-0.49
-747,95,-665,0.42,-0.63,-0.42
-749,97,-668,0.91,-0.7,-0.56
-754,101,-667,0.84,-0.84,-0.56
-753,100,-666,0.49,-0.91,-0.63
-750,99,-664,0.14,-1.19,-0.7
-751,97,-663,0.14,-1.19,-0.63
-753,97,-663,0.49,-1.26,-0.56
-751,96,-661,0.56,-1.26,-0.56
-755,94,-659,0.42,-1.12,-0.49
-752,93,-662,0.7,-1.19,-0.42
-749,91,-662,0.49,-1.05,-0.35
-752,88,-661,-0.14,-0.91,-0.35
-747,89,-664,0.0,-0.98,-0.42
-745,92,-664,-0.14,-0.84,-0.42
-746,95,-665,-0.63,-0.84,-0.42
-746,96,-664,-0.77,-0.91,-0.49
-744,96,-661,-0.98,-0.77,-0.49
-744,91,-656,-0.91,-0.56,-0.35
-741,89,-657,-0.14,-0.42,-0.28
-740,91,-659,0.84,-0.14,-0.28
-747,94,-663,0.84,0.07,-0.14
-750,99,-674,1.61,-0.14,-0.14
-752,101,-673,0.63,-0.28,-0.21
-751,94,-669,-0.98,-0.35,-0.28
-746,85,-666,-0.91,-0.7,-0.49
-749,83,-663,-0.7,-0.7,-0.42
-753,87,-663,-0.35,-0.7,-0.28
-754,99,-667,0.14,-0.84,-0.28
-749,105,-665,-0.56,-0.77,-0.35
-750,103,-661,-1.61,-0.77,-0.42
-749,95,-656,-1.68,-0.84,-0.42
-743,87,-654,-1.05,-0.56,-0.21
-746,83,-658,0.35,-0.28,-0.07
-751,92,-667,1.89,-0.28,0.0
-751,103,-670,1.89,-0.07,0.14
-747,105,-670,0.63,-0.21,-0.07
-745,100,-671,-0.35,-0.56,-0.14
-743,91,-664,-1.33,-0.63,-0.14
-740,81,-657,-1.75,-0.42,-0.14
-738,76,-660,-0.42,-0.35,-0.07
-740,83,-664,0.98,-0.07,0.0
-749,98,-665,1.26,0.14,0.14
-747,101,-669,0.42,0.14,0.14
-746,100,-671,-0.49,-0.07,-0.07
-750,96,-668,-1.05,-0.14,-0.14
-749,95,-666,-0.98,-0.28,-0.21
-747,94,-665,-0.49,-0.42,-0.14
-749,97,-667,0.14,-0.49,-0.07
-750,99,-666,0.63,-0.49,0.0
-749,101,-665,0.42,-0.56,0.07
-748,95,-663,-0.07,-0.56,0.07
-748,87,-662,-0.49,-0.56,0.07
-748,85,-666,0.14,-0.63,0.0
-750,92,-667,0.49,-0.63,0.0
-749,99,-666,-0.21,-0.56,0.0
-746,98,-669,-0.91,-0.7,-0.14
-743,95,-671,-0.98,-0.91,-0.07
-743,97,-671,-0.98,-1.05,0.0
-742,94,-668,-1.19,-1.12,-0.07
-738,91,-664,-1.12,-1.05,-0.21
-738,90,-658,-0.7,-0.91,-0.28
-744,93,-658,-0.07,-0.63,-0.21
-746,99,-660,0.49,-0.49,-0.07
-747,101,-663,0.42,-0.35,0.07
-749,98,-663,0.35,-0.21,0.07
-751,97,-663,0.35,-0.21,0.0
-750,97,-664,0.63,-0.21,0.0
-748,97,-665,0.98,-0.28,0.07
-753,98,-667,0.91,-0.35,0.14
-751,97,-671,0.56,-0.49,0.21
-748,96,-674,0.49,-0.77,0.14
-749,94,-670,0.0,-0.91,0.07
-745,96,-669,-0.28,-1.12,0.0
-741,93,-669,-0.63,-1.33,-0.07
-747,91,-670,-0.91,-1.4,0.0
-751,91,-671,-0.56,-1.61,-0.07
-748,96,-671,-0.49,-1.75,-0.14
-745,99,-666,-0.84,-1.82,-0.21
-747,94,-655,-1.54,-1.61,-0.28
-743,94,-657,-1.4,-1.75,-0.56
-740,94,-656,-1.89,-1.47,-0.42
-744,94,-661,-0.56,-1.12,-0.07
-746,94,-661,-0.07,-0.98,0.14
-750,100,-659,0.28,-0.7,0.07
-750,93,-654,-0.07,-0.49,0.07
-748,94,-651,-0.35,-0.14,0.0
-747,90,-655,0.0,0.14,0.14
-751,92,-661,0.49,0.28,0.28
-756,97,-666,0.84,0.49,0.35
-752,99,-668,0.84,0.49,0.28
-751,98,-666,0.35,0.42,0.28
-753,98,-666,0.42,0.14,0.21
-749,98,-661,0.07,0.14,0.14
-747,96,-663,-0.21,0.14,0.14
-743,94,-669,0.98,-0.07,0.14
-745,100,-667,1.4,0.07,0.35
-745,100,-661,0.98,0.28,0.42
-735,91,-661,1.19,0.28,0.35
-736,91,-665,1.75,0.35,0.28
-745,94,-663,1.96,0.49,0.35
-742,96,-664,1.82,0.7,0.42
-742,94,-667,1.68,0.63,0.49
-751,92,-670,1.75,0.63,0.49
-755,96,-673,1.82,0.42,0.56
-751,100,-674,1.82,0.14,0.56
