acc_x[mg],acc_y[mg],acc_z[mg],gyro_x[dps],gyro_y[dps],gyro_z[dps]
-320,-952,9,-0.07,-0.63,-0.28
-321,-953,9,-0.14,-0.63,-0.35
-319,-953,8,-0.07,-0.63,-0.49
-320,-954,9,-0.14,-0.63,-0.49
-319,-955,8,-0.14,-0.7,-0.56
-319,-957,8,-0.28,-0.7,-0.56
-318,-954,8,-0.14,-0.7,-0.56
-320,-958,8,-0.21,-0.63,-0.49
-318,-956,8,-0.21,-0.7,-0.42
-320,-957,8,-0.07,-0.7,-0.28
-320,-956,9,-0.07,-0.7,-0.21
-320,-956,8,-0.07,-0.7,-0.14
-320,-956,8,-0.14,-0.7,-0.14
-319,-955,7,-0.07,-0.77,-0.07
-319,-956,8,-0.07,-0.77,0.0
-320,-955,8,0.0,-0.77,-0.07
-320,-954,9,0.0,-0.77,0.0
-320,-956,8,0.07,-0.84,-0.07
-320,-955,8,0.07,-0.84,-0.07
-319,-955,7,0.0,-0.84,-0.07
-319,-955,8,0.07,-0.84,-0.14
-320,-956,9,0.07,-0.77,-0.14
-321,-953,8,0.07,-0.77,-0.14
-320,-958,10,-0.14,-0.77,-0.14
-320,-954,8,-0.07,-0.77,-0.21
-320,-956,9,0.07,-0.77,-0.07
-319,-955,9,-0.07,-0.77,0.0
-320,-954,9,0.07,-0.7,0.0
-320,-954,9,0.0,-0.7,0.0
-320,-954,9,-0.07,-0.7,0.07
-320,-957,10,-0.14,-0.7,0.0
-320,-955,8,-0.14,-0.7,0.0
-319,-955,8,-0.07,-0.7,-0.07
-319,-955,8,-0.07,-0.7,0.0
-319,-954,8,0.07,-0.7,-0.07
-319,-955,8,0.07,-0.7,-0.07
-321,-955,8,0.07,-0.7,-0.14
-320,-954,8,0.07,-0.7,-0.14
-319,-954,8,0.0,-0.77,-0.14
-320,-954,8,-0.07,-0.77,-0.14
-320,-954,8,-0.07,-0.77,-0.14
-318,-955,8,-0.14,-0.77,-0.14
-320,-954,8,-0.07,-0.77,-0.14
-319,-955,8,-0.14,-0.77,-0.14
-320,-955,8,-0.14,-0.84,-0.21
-320,-955,8,-0.14,-0.84,-0.21
-320,-954,9,-0.07,-0.77,-0.21
-319,-954,9,0.0,-0.77,-0.21
-319,-955,10,-0.07,-0.77,-0.21
-320,-955,9,-0.14,-0.77,-0.21
-319,-955,9,-0.07,-0.7,-0.14
-318,-956,9,-0.07,-0.63,-0.14
-319,-955,9,0.0,-0.63,-0.14
-319,-955,9,0.0,-0.56,-0.14
-320,-955,9,-0.07,-0.56,-0.14
-319,-953,9,-0.21,-0.49,-0.14
-320,-955,9,-0.21,-0.56,-0.14
-319,-955,8,-0.21,-0.56,-0.14
-320,-957,9,-0.21,-0.56,-0.14
-320,-955,7,-0.14,-0.56,-0.21
-320,-955,7,0.0,-0.56,-0.14
-319,-955,7,0.0,-0.63,-0.14
-320,-955,8,0.0,-0.63,-0.14
-320,-955,8,0.0,-0.7,-0.21
-320,-955,7,-0.07,-0.7,-0.14
-320,-955,8,-0.14,-0.77,-0.14
-320,-955,7,-0.14,-0.77,-0.14
-321,-955,7,-0.07,-0.7,-0.21
-319,-956,7,0.0,-0.77,-0.14
-320,-955,8,0.0,-0.77,-0.07
-319,-955,8,0.07,-0.77,-0.07
-320,-955,9,0.0,-0.84,-0.07
-320,-954,8,0.07,-0.84,-0.07
-320,-955,8,0.07,-0.84,-0.07
-319,-955,8,0.0,-0.84,-0.07
-320,-954,8,0.0,-0.84,-0.14
-320,-955,9,-0.07,-0.84,-0.14
-319,-953,8,-0.14,-0.77,-0.14
-319,-954,8,-0.14,-0.77,-0.21
-320,-955,9,-0.21,-0.77,-0.21
-319,-955,9,-0.21,-0.77,-0.28
-319,-956,8,-0.14,-0.77,-0.28
-319,-955,9,-0.07,-0.7,-0.21
-318,-955,9,-0.07,-0.7,-0.21
-319,-955,8,-0.07,-0.7,-0.28
-319,-955,9,0.0,-0.63,-0.21
-319,-955,8,0.07,-0.63,-0.21
-320,-956,9,0.0,-0.63,-0.14
-318,-954,8,0.0,-0.63,-0.14
-320,-955,8,-0.14,-0.63,-0.07
-319,-956,8,-0.21,-0.63,-0.07
-320,-954,8,-0.21,-0.63,-0.14
-319,-955,8,-0.21,-0.63,-0.14
-320,-955,8,-0.14,-0.63,-0.07
-319,-955,9,-0.14,-0.63,-0.14
-319,-956,8,-0.07,-0.63,-0.14
-321,-955,8,0.0,-0.7,-0.14
-320,-955,8,0.0,-0.63,-0.21
-321,-955,8,0.0,-0.63,-0.21
-320,-955,7,0.0,-0.7,-0.14
-319,-954,8,0.0,-0.7,-0.21
-320,-954,8,-0.14,-0.77,-0.14
-320,-954,8,-0.14,-0.77,-0.21
-321,-955,8,-0.14,-0.7,-0.21
-319,-954,8,-0.14,-0.7,-0.28
-319,-955,9,-0.14,-0.7,-0.28
-318,-956,9,-0.14,-0.77,-0.28
-320,-956,9,-0.07,-0.7,-0.28
-319,-955,9,0.0,-0.77,-0.28
-319,-956,8,0.14,-0.7,-0.21
-319,-956,8,0.14,-0.7,-0.21
-319,-955,8,0.14,-0.7,-0.14
-320,-955,9,0.0,-0.63,-0.14
-319,-954,9,0.0,-0.63,-0.14
-319,-956,9,-0.07,-0.63,-0.14
-319,-955,9,-0.14,-0.7,-0.07
-317,-955,10,-0.14,-0.7,-0.07
-319,-955,8,-0.14,-0.7,-0.07
-320,-954,8,-0.07,-0.7,-0.14
-320,-955,9,-0.07,-0.7,-0.14
-320,-954,8,-0.07,-0.7,-0.21
-320,-954,8,-0.07,-0.7,-0.28
-320,-954,9,-0.14,-0.7,-0.35
-319,-955,9,-0.21,-0.7,-0.35
-319,-955,8,-0.21,-0.63,-0.35
-319,-954,8,-0.21,-0.63,-0.42
-320,-956,8,-0.28,-0.7,-0.42
-320,-956,8,-0.21,-0.7,-0.42
-318,-955,8,-0.14,-0.7,-0.42
-320,-955,8,-0.14,-0.63,-0.42
-318,-955,9,-0.14,-0.63,-0.42
-319,-955,9,-0.21,-0.56,-0.35
-319,-956,8,-0.21,-0.56,-0.35
-319,-956,8,-0.14,-0.63,-0.28
-319,-956,8,-0.14,-0.63,-0.28
-318,-956,9,-0.14,-0.63,-0.21
-319,-955,9,-0.14,-0.56,-0.14
-318,-954,8,-0.14,-0.56,-0.21
-318,-954,8,-0.28,-0.56,-0.14
-319,-955,7,-0.28,-0.63,-0.21
-319,-955,7,-0.28,-0.63,-0.21
-319,-957,7,-0.21,-0.63,-0.28
-318,-956,7,-0.14,-0.63,-0.21
-318,-955,7,-0.07,-0.7,-0.28
-319,-955,8,0.0,-0.7,-0.28
-319,-956,7,-0.07,-0.7,-0.28
-318,-955,7,-0.14,-0.77,-0.21
-319,-956,7,-0.14,-0.84,-0.21
-318,-957,7,-0.14,-0.84,-0.21
-318,-956,8,-0.07,-0.91,-0.21
-319,-957,7,-0.07,-0.91,-0.14
-319,-957,7,-0.07,-0.91,-0.14
-319,-956,8,-0.07,-0.84,0.0
-319,-958,8,0.0,-0.84,0.0
-319,-957,8,0.07,-0.91,0.07
-318,-956,9,0.14,-0.91,0.14
-318,-956,9,0.14,-0.84,0.14
-317,-955,9,0.14,-0.84,0.14
-319,-954,8,0.07,-0.84,0.14
-318,-955,9,0.0,-0.77,0.14
-319,-953,9,-0.07,-0.77,0.07
-320,-954,8,-0.07,-0.77,0.0
-318,-954,9,-0.07,-0.7,-0.07
-319,-954,10,-0.07,-0.63,-0.07
-318,-954,8,-0.07,-0.63,-0.14
-319,-955,7,-0.07,-0.63,-0.14
-319,-954,9,0.0,-0.63,-0.21
-319,-954,9,0.0,-0.7,-0.21
-320,-955,8,-0.07,-0.7,-0.28
-319,-954,9,-0.14,-0.7,-0.28
-319,-954,8,-0.14,-0.7,-0.28
-318,-954,9,-0.14,-0.7,-0.28
-318,-955,8,-0.21,-0.7,-0.28
-319,-956,8,-0.14,-0.7,-0.28
-320,-957,8,-0.14,-0.63,-0.28
-319,-957,9,-0.07,-0.7,-0.21
-319,-956,9,0.0,-0.63,-0.14
-318,-956,8,0.0,-0.7,-0.14
-319,-955,8,0.07,-0.63,-0.07
-318,-955,8,0.0,-0.63,-0.07
-319,-955,8,0.0,-0.7,-0.07
-319,-955,8,-0.07,-0.7,-0.07
-319,-955,8,0.0,-0.63,-0.07
-319,-955,9,-0.14,-0.7,-0.14
-319,-954,8,-0.07,-0.7,-0.14
-319,-955,8,-0.07,-0.7,-0.14
-319,-955,8,-0.07,-0.7,-0.21
-318,-955,9,-0.07,-0.7,-0.21
-319,-954,8,0.0,-0.7,-0.21
-318,-954,9,0.0,-0.7,-0.28
-318,-955,9,0.0,-0.77,-0.28
-319,-955,8,0.0,-0.77,-0.28
-318,-955,8,0.0,-0.7,-0.28
-319,-955,8,-0.07,-0.77,-0.28
-318,-956,8,-0.07,-0.7,-0.21
-318,-955,9,-0.07,-0.7,-0.21
-319,-957,9,-0.07,-0.63,-0.14
-318,-957,8,-0.07,-0.7,-0.07
-318,-956,8,-0.07,-0.7,-0.07
-319,-955,9,-0.07,-0.63,-0.07
-319,-955,8,0.0,-0.63,-0.07
-320,-955,9,0.0,-0.7,-0.07
-319,-955,9,0.0,-0.63,-0.07
-318,-954,8,-0.07,-0.63,-0.14
-318,-955,7,-0.07,-0.63,-0.14
-320,-954,8,0.0,-0.7,-0.21
-320,-955,8,0.0,-0.7,-0.21
-318,-955,8,0.07,-0.7,-0.21
-319,-955,9,0.0,-0.7,-0.28
-318,-955,8,-0.07,-0.77,-0.28
-319,-955,8,-0.14,-0.7,-0.28
-319,-955,8,-0.14,-0.77,-0.28
-318,-956,9,-0.14,-0.77,-0.28
-317,-956,9,-0.21,-0.7,-0.28
-318,-956,8,-0.21,-0.63,-0.28
-318,-956,8,-0.14,-0.7,-0.21
-318,-956,8,-0.14,-0.63,-0.21
-319,-955,8,-0.07,-0.63,-0.14
-319,-956,8,-0.07,-0.56,-0.21
-319,-954,8,0.0,-0.56,-0.14
-318,-956,7,-0.07,-0.56,-0.14
-319,-955,8,-0.07,-0.63,-0.14
-320,-955,8,-0.07,-0.63,-0.14
-318,-955,7,-0.14,-0.7,-0.14
-318,-955,8,-0.21,-0.7,-0.21
-317,-956,9,-0.21,-0.63,-0.21
-317,-954,8,-0.21,-0.7,-0.28
-318,-956,8,-0.14,-0.7,-0.28
-317,-955,8,-0.14,-0.7,-0.28
-317,-955,8,-0.07,-0.7,-0.28
-317,-955,8,-0.07,-0.63,-0.35
-317,-955,8,-0.21,-0.63,-0.42
-317,-957,8,-0.21,-0.63,-0.42
-319,-956,8,-0.21,-0.56,-0.35
-317,-957,8,-0.21,-0.56,-0.35
-318,-958,8,-0.14,-0.56,-0.35
-319,-956,7,-0.07,-0.63,-0.28
-318,-956,7,0.0,-0.63,-0.21
-317,-956,7,-0.07,-0.63,-0.14
-318,-956,8,-0.07,-0.63,-0.07
-317,-956,8,-0.07,-0.63,-0.07
-318,-956,7,-0.07,-0.7,0.0
-318,-955,8,-0.07,-0.7,0.0
-317,-954,8,-0.07,-0.63,0.0
-318,-955,8,-0.07,-0.7,0.0
-318,-955,8,-0.14,-0.7,0.0
-318,-955,8,-0.14,-0.7,-0.07
-319,-954,7,-0.14,-0.7,-0.07
-319,-955,8,-0.07,-0.77,-0.07
-319,-955,8,-0.14,-0.84,-0.14
-318,-954,7,-0.14,-0.77,-0.14
-318,-955,8,-0.14,-0.77,-0.14
-319,-955,8,-0.21,-0.77,-0.21
-319,-956,7,-0.21,-0.77,-0.14
-319,-956,8,-0.14,-0.84,-0.21
-318,-957,9,-0.07,-0.84,-0.21
-317,-956,7,-0.07,-0.84,-0.14
-318,-955,8,0.0,-0.84,-0.14
-317,-956,7,0.0,-0.77,-0.14
-317,-957,9,-0.14,-0.77,-0.07
-318,-955,8,-0.14,-0.77,-0.07
-318,-956,8,-0.07,-0.7,-0.07
-318,-955,8,-0.07,-0.63,-0.07
-318,-956,8,-0.14,-0.7,-0.07
-317,-956,9,-0.14,-0.63,-0.14
-317,-955,8,0.0,-0.56,-0.21
-317,-955,8,0.0,-0.56,-0.28
-318,-954,8,-0.14,-0.56,-0.28
-318,-955,8,-0.14,-0.56,-0.28
-318,-954,8,-0.14,-0.56,-0.35
-318,-955,8,-0.14,-0.56,-0.35
-318,-957,7,-0.21,-0.56,-0.28
-317,-955,9,-0.14,-0.56,-0.35
-318,-955,7,-0.14,-0.49,-0.28
-318,-957,8,-0.21,-0.49,-0.35
-317,-956,8,-0.14,-0.56,-0.35
-317,-956,8,-0.07,-0.49,-0.28
-318,-957,7,-0.07,-0.49,-0.21
-318,-957,8,-0.07,-0.56,-0.14
-319,-955,6,-0.07,-0.63,-0.14
-317,-957,6,0.0,-0.63,-0.07
-318,-956,6,0.0,-0.77,-0.07
-318,-956,7,0.07,-0.7,0.0
-318,-955,6,0.07,-0.77,-0.14
-318,-955,6,0.0,-0.84,-0.07
-319,-953,8,0.0,-0.91,-0.14
-317,-954,8,-0.14,-0.91,-0.21
-316,-953,8,-0.07,-0.84,-0.28
-317,-955,9,-0.21,-0.84,-0.35
-318,-954,9,-0.28,-0.84,-0.42
-317,-954,9,-0.21,-0.77,-0.49
-316,-957,9,-0.35,-0.7,-0.49
-317,-958,7,-0.35,-0.7,-0.49
-317,-957,8,-0.14,-0.63,-0.42
-316,-958,8,-0.07,-0.56,-0.42
-318,-959,8,0.0,-0.49,-0.35
-318,-957,8,0.14,-0.49,-0.21
-317,-955,7,0.07,-0.49,-0.14
-317,-956,7,-0.14,-0.56,-0.07
-318,-956,7,-0.21,-0.56,0.0
-318,-956,7,-0.21,-0.63,0.0
-318,-956,7,-0.21,-0.63,0.0
-318,-955,7,-0.21,-0.7,0.0
-317,-955,7,-0.14,-0.77,0.0
-318,-955,8,-0.14,-0.77,0.0
-319,-956,8,-0.07,-0.77,-0.07
-317,-955,8,0.0,-0.77,-0.14
-317,-955,7,0.0,-0.77,-0.14
-317,-955,8,-0.07,-0.77,-0.28
-317,-955,8,-0.07,-0.77,-0.28
-317,-956,8,-0.07,-0.77,-0.28
-318,-956,8,-0.07,-0.77,-0.28
-317,-955,9,0.07,-0.7,-0.35
-317,-955,9,0.0,-0.7,-0.35
-317,-954,8,-0.07,-0.63,-0.35
-317,-954,8,-0.21,-0.63,-0.35
-317,-956,8,-0.35,-0.63,-0.35
-317,-957,8,-0.28,-0.63,-0.35
-317,-958,7,-0.14,-0.56,-0.35
-317,-958,7,0.0,-0.63,-0.35
-317,-956,7,0.14,-0.63,-0.21
-317,-958,8,0.14,-0.63,-0.14
-317,-956,7,0.14,-0.63,-0.14
-317,-955,7,0.14,-0.63,-0.07
-316,-955,7,0.07,-0.63,-0.07
-318,-955,7,0.0,-0.7,-0.07
-317,-954,7,-0.07,-0.7,-0.14
-317,-953,8,-0.21,-0.7,-0.14
-318,-954,7,-0.35,-0.7,-0.21
-317,-954,7,-0.35,-0.7,-0.21
-316,-957,8,-0.35,-0.7,-0.28
-317,-956,7,-0.28,-0.7,-0.35
-318,-954,7,-0.07,-0.7,-0.35
-317,-956,8,-0.14,-0.7,-0.42
-316,-955,6,-0.14,-0.7,-0.49
-317,-953,9,0.0,-0.7,-0.56
-317,-954,9,-0.14,-0.63,-0.49
-316,-954,9,-0.42,-0.63,-0.56
-316,-956,9,-0.63,-0.56,-0.49
-315,-957,8,-0.77,-0.56,-0.49
-316,-958,8,-0.7,-0.49,-0.49
-316,-956,8,-0.49,-0.42,-0.42
-315,-956,9,-0.35,-0.42,-0.35
-317,-957,7,-0.35,-0.35,-0.35
-316,-959,7,-0.35,-0.35,-0.21
-317,-959,7,-0.28,-0.35,-0.21
-317,-957,8,0.0,-0.35,-0.14
-316,-954,8,0.07,-0.35,-0.07
-317,-957,8,-0.28,-0.35,0.0
-316,-955,3,-0.21,-0.42,-0.07
-317,-953,7,-0.21,-0.28,-0.07
-318,-954,7,-0.63,-0.42,-0.07
-315,-958,5,-0.77,-0.49,-0.07
-318,-957,5,-0.49,-0.49,-0.21
-317,-956,5,-0.14,-0.63,-0.21
-316,-955,5,-0.14,-0.63,-0.21
-316,-956,5,0.0,-0.77,-0.28
-317,-957,4,0.0,-0.91,-0.28
-318,-956,5,0.07,-0.98,-0.28
-318,-956,5,0.0,-1.12,-0.28
-317,-955,5,-0.07,-1.12,-0.21
-317,-957,6,-0.21,-1.19,-0.21
-316,-957,6,-0.28,-1.26,-0.14
-315,-956,6,-0.28,-1.19,-0.21
-315,-955,8,-0.28,-1.19,-0.14
-316,-957,8,-0.42,-1.12,-0.07
-315,-958,8,-0.42,-1.05,-0.07
-315,-958,9,-0.28,-0.91,-0.07
-315,-957,9,-0.14,-0.77,0.0
-315,-957,10,0.07,-0.56,0.0
-315,-957,9,0.21,-0.49,0.07
-314,-956,8,0.28,-0.28,0.07
-316,-956,8,0.28,-0.21,0.14
-316,-955,7,0.28,-0.14,0.14
-317,-956,7,0.21,-0.21,0.14
-316,-956,6,0.07,-0.14,0.21
-318,-955,6,0.0,-0.21,0.21
-317,-957,5,-0.07,-0.28,0.21
-318,-957,5,-0.07,-0.35,0.14
-318,-957,5,0.0,-0.42,0.14
-317,-957,4,0.0,-0.56,0.21
-317,-956,4,0.07,-0.7,0.21
-319,-956,3,0.07,-0.84,0.21
-318,-955,4,0.07,-0.91,0.28
-317,-956,4,0.07,-1.05,0.21
-318,-955,6,0.07,-1.12,0.14
-319,-954,6,0.07,-1.26,0.14
-318,-955,6,0.07,-1.26,0.14
-317,-956,7,0.0,-1.33,0.14
-317,-955,7,0.0,-1.33,0.07
-317,-955,8,0.0,-1.26,0.07
-317,-956,8,0.0,-1.26,0.0
-317,-956,8,0.07,-1.19,0.07
-317,-956,8,0.07,-1.12,0.0
-315,-953,9,0.07,-1.05,0.0
-316,-955,8,-0.07,-0.98,0.0
-317,-955,8,-0.07,-0.91,-0.14
-316,-953,9,0.0,-0.77,-0.14
-315,-955,9,-0.21,-0.63,-0.14
-317,-956,9,-0.21,-0.63,-0.21
-318,-954,8,0.0,-0.49,-0.21
-316,-955,8,-0.07,-0.42,-0.21
-317,-955,8,-0.14,-0.42,-0.28
-317,-954,8,0.0,-0.35,-0.35
-316,-954,7,0.0,-0.35,-0.35
-317,-954,6,-0.14,-0.35,-0.35
-319,-955,6,-0.07,-0.35,-0.42
-317,-954,6,-0.14,-0.42,-0.49
-317,-954,5,-0.28,-0.49,-0.49
-317,-955,6,-0.35,-0.49,-0.63
-318,-955,5,-0.28,-0.56,-0.63
-317,-957,6,-0.35,-0.63,-0.7
-317,-956,6,-0.28,-0.63,-0.7
-316,-956,6,-0.21,-0.7,-0.7
-315,-956,5,-0.21,-0.77,-0.7
-317,-957,6,-0.14,-0.77,-0.7
-316,-957,6,-0.14,-0.84,-0.56
-316,-956,6,-0.14,-0.84,-0.49
-316,-957,7,-0.14,-0.84,-0.42
-316,-957,8,-0.14,-0.77,-0.35
-315,-956,7,-0.21,-0.77,-0.21
-316,-956,7,-0.21,-0.77,-0.14
-315,-956,7,-0.21,-0.7,-0.14
-315,-957,7,-0.21,-0.7,-0.07
-315,-956,7,-0.14,-0.63,-0.07
-316,-956,7,-0.14,-0.56,-0.07
-316,-956,7,-0.14,-0.56,-0.07
-316,-955,6,-0.14,-0.56,-0.07
-316,-956,6,-0.14,-0.56,-0.14
-317,-955,6,0.0,-0.49,-0.21
-316,-955,6,-0.07,-0.56,-0.21
-316,-955,6,-0.07,-0.56,-0.28
-316,-955,6,-0.14,-0.56,-0.35
-317,-955,5,-0.14,-0.63,-0.35
-317,-957,5,-0.14,-0.7,-0.35
-316,-957,5,-0.07,-0.77,-0.42
-317,-956,6,-0.07,-0.77,-0.35
-315,-957,6,0.0,-0.84,-0.35
-316,-956,6,-0.07,-0.84,-0.28
-316,-957,6,-0.07,-0.84,-0.14
-316,-957,7,-0.14,-0.77,-0.14
-315,-958,6,-0.14,-0.84,-0.07
-314,-958,6,-0.07,-0.77,0.0
-315,-959,7,0.0,-0.77,0.14
-315,-958,7,0.07,-0.7,0.21
-315,-957,6,0.14,-0.7,0.28
-316,-957,7,0.21,-0.7,0.35
-316,-956,7,0.21,-0.63,0.35
-317,-956,6,0.21,-0.7,0.42
-317,-955,6,0.07,-0.7,0.42
-318,-955,6,0.0,-0.77,0.42
-317,-955,6,-0.14,-0.77,0.28
-316,-955,7,-0.14,-0.77,0.21
-318,-955,7,-0.14,-0.77,0.14
-316,-955,7,-0.07,-0.84,0.07
-317,-954,7,0.0,-0.84,0.0
-316,-954,7,0.0,-0.84,-0.14
-316,-955,8,0.0,-0.84,-0.28
-315,-954,7,0.0,-0.84,-0.35
-316,-955,6,0.0,-0.77,-0.35
-316,-956,7,-0.07,-0.77,-0.42
-317,-956,7,0.0,-0.77,-0.42
-317,-955,7,0.0,-0.77,-0.35
-318,-957,6,-0.07,-0.77,-0.28
-316,-956,7,-0.07,-0.77,-0.21
-317,-957,7,-0.07,-0.77,-0.14
-316,-957,7,-0.14,-0.77,-0.07
-317,-957,8,-0.14,-0.77,-0.07
-315,-957,7,-0.07,-0.77,0.0
-317,-956,7,-0.14,-0.77,0.07
-316,-956,7,-0.07,-0.7,0.07
-316,-955,7,-0.07,-0.7,0.07
-316,-955,7,-0.07,-0.63,0.0
-317,-954,7,-0.07,-0.63,-0.07
-317,-954,6,-0.07,-0.63,-0.14
-316,-956,6,-0.14,-0.63,-0.21
-316,-955,7,-0.14,-0.63,-0.28
-317,-956,7,-0.21,-0.7,-0.28
-315,-955,6,-0.21,-0.7,-0.35
-316,-955,7,-0.21,-0.63,-0.35
-317,-957,7,-0.21,-0.7,-0.35
-316,-955,6,-0.14,-0.7,-0.35
-316,-956,6,-0.14,-0.77,-0.35
-316,-957,7,-0.14,-0.7,-0.28
-315,-957,6,-0.14,-0.7,-0.28
-316,-956,6,-0.14,-0.7,-0.21
-317,-956,7,-0.14,-0.7,-0.21
-315,-957,6,-0.07,-0.7,-0.14
-315,-957,6,-0.07,-0.7,-0.14
-316,-957,6,-0.14,-0.7,-0.14
-316,-958,7,-0.07,-0.7,-0.07
-317,-956,7,-0.07,-0.7,-0.07
-316,-955,6,-0.07,-0.77,-0.07
-316,-956,6,0.0,-0.7,-0.07
-316,-956,6,0.0,-0.7,-0.07
-316,-955,6,-0.07,-0.7,-0.14
-317,-955,7,-0.07,-0.7,-0.14
-316,-956,7,-0.07,-0.77,-0.21
-317,-955,6,-0.07,-0.77,-0.21
-316,-956,7,-0.07,-0.77,-0.21
-317,-955,7,-0.07,-0.77,-0.21
-317,-956,7,-0.07,-0.77,-0.21
-316,-956,7,-0.07,-0.77,-0.21
-316,-956,7,-0.14,-0.7,-0.21
-316,-957,7,-0.14,-0.77,-0.14
-315,-957,7,-0.07,-0.7,-0.14
-316,-956,7,-0.07,-0.7,-0.14
-316,-955,6,-0.07,-0.7,-0.14
-316,-955,6,-0.14,-0.7,-0.14
-316,-956,6,-0.07,-0.7,-0.14
-317,-956,7,-0.14,-0.7,-0.14
-316,-955,6,-0.14,-0.7,-0.07
-316,-956,7,-0.14,-0.7,-0.14
-316,-956,7,-0.07,-0.7,-0.14
-316,-955,7,-0.07,-0.7,-0.14
-316,-956,6,-0.07,-0.7,-0.21
-316,-955,7,-0.07,-0.7,-0.21
-316,-955,7,-0.14,-0.7,-0.21
-315,-956,7,-0.14,-0.7,-0.21
-316,-955,7,-0.21,-0.7,-0.21
-316,-956,6,-0.21,-0.7,-0.21
-315,-957,6,-0.21,-0.63,-0.21
-315,-957,7,-0.14,-0.56,-0.14
-317,-957,6,0.0,-0.56,-0.14
-317,-956,6,0.0,-0.56,-0.07
-316,-957,6,0.0,-0.56,-0.07
-316,-957,6,0.0,-0.56,-0.07
-317,-956,6,-0.07,-0.56,0.0
-316,-956,5,-0.14,-0.7,0.0
-315,-956,6,-0.21,-0.63,0.0
-317,-956,5,-0.14,-0.77,0.0
-317,-956,6,-0.14,-0.77,0.0
-317,-956,6,-0.14,-0.84,0.0
-317,-956,7,-0.07,-0.84,0.0
-317,-954,6,0.0,-0.84,-0.07
-317,-955,6,0.0,-0.84,-0.14
-317,-956,7,0.0,-0.84,-0.14
-316,-955,7,0.0,-0.84,-0.14
-316,-956,7,-0.07,-0.84,-0.14
-316,-954,7,-0.07,-0.77,-0.21
-316,-956,7,-0.07,-0.84,-0.21
-316,-955,7,-0.07,-0.77,-0.28
-316,-956,7,-0.07,-0.77,-0.28
-316,-956,7,-0.07,-0.77,-0.28
-316,-957,7,-0.14,-0.7,-0.28
-315,-956,7,-0.14,-0.7,-0.28
-315,-955,6,-0.14,-0.63,-0.28
-317,-956,7,-0.14,-0.63,-0.28
-315,-957,6,-0.07,-0.63,-0.28
-316,-956,6,-0.07,-0.63,-0.21
-316,-956,6,-0.14,-0.63,-0.21
-316,-956,6,-0.14,-0.63,-0.21
-316,-956,7,-0.14,-0.56,-0.21
-315,-957,6,-0.14,-0.56,-0.21
-316,-957,6,-0.21,-0.63,-0.21
-317,-956,6,-0.14,-0.63,-0.14
-317,-957,7,-0.14,-0.63,-0.14
-317,-957,6,-0.07,-0.7,-0.14
-316,-956,6,-0.07,-0.7,-0.14
-317,-956,7,-0.07,-0.7,-0.14
-316,-957,6,-0.07,-0.7,-0.14
-317,-956,6,0.0,-0.7,-0.14
-316,-956,6,0.0,-0.7,-0.07
-317,-956,6,0.0,-0.77,-0.07
-315,-956,6,-0.07,-0.77,-0.07
-317,-956,6,-0.07,-0.77,-0.07
-316,-956,6,-0.07,-0.77,0.0
-316,-956,6,-0.07,-0.77,-0.07
-317,-956,6,-0.07,-0.84,-0.07
-316,-956,7,-0.07,-0.77,-0.07
-317,-956,6,0.0,-0.77,-0.07
-317,-955,6,0.0,-0.84,-0.07
-315,-955,6,0.0,-0.77,-0.07
-316,-956,7,-0.07,-0.84,-0.14
-317,-956,7,-0.07,-0.84,-0.14
-316,-955,7,-0.07,-0.77,-0.14
-316,-955,7,-0.14,-0.77,-0.14
-315,-956,6,-0.07,-0.77,-0.21
-315,-957,7,-0.07,-0.7,-0.21
-316,-956,7,-0.07,-0.7,-0.21
-316,-956,8,-0.14,-0.7,-0.21
-317,-957,6,-0.07,-0.7,-0.21
-316,-957,7,-0.07,-0.7,-0.14
-317,-955,7,-0.07,-0.7,-0.14
-315,-956,6,-0.14,-0.7,-0.07
-316,-956,6,-0.14,-0.63,-0.07
-316,-955,6,-0.07,-0.63,-0.07
-315,-956,6,-0.07,-0.63,-0.14
-317,-955,6,0.0,-0.63,-0.14
-317,-955,7,-0.07,-0.63,-0.14
-316,-955,7,-0.14,-0.7,-0.14
-316,-956,6,-0.07,-0.63,-0.21
-316,-957,7,-0.14,-0.7,-0.21
-316,-956,7,-0.14,-0.7,-0.28
-316,-956,6,-0.07,-0.7,-0.28
-316,-956,7,-0.07,-0.7,-0.21
-316,-956,6,-0.07,-0.77,-0.28
-316,-956,6,-0.07,-0.77,-0.28
-316,-956,7,-0.07,-0.77,-0.21
-316,-957,7,0.0,-0.7,-0.21
-316,-956,7,-0.07,-0.7,-0.14
-315,-956,7,-0.14,-0.7,-0.14
-316,-957,7,-0.14,-0.7,-0.14
-316,-957,6,-0.14,-0.63,-0.07
-315,-957,7,-0.07,-0.63,-0.07
-315,-956,7,0.0,-0.56,-0.07
-317,-955,7,-0.07,-0.56,-0.07
-316,-955,7,-0.07,-0.56,-0.07
-316,-955,7,-0.14,-0.56,-0.07
-317,-955,7,-0.14,-0.63,-0.14
-317,-956,5,-0.14,-0.56,-0.07
-316,-956,6,-0.14,-0.63,-0.14
-316,-955,6,-0.07,-0.63,-0.14
-317,-956,6,-0.07,-0.63,-0.14
-315,-956,5,-0.07,-0.7,-0.14
-316,-956,6,0.0,-0.7,-0.14
-315,-956,6,-0.07,-0.7,-0.21
-315,-956,6,-0.14,-0.77,-0.21
-315,-957,6,-0.14,-0.77,-0.21
-315,-956,6,-0.07,-0.77,-0.21
-316,-957,6,-0.07,-0.77,-0.14
-316,-957,6,-0.07,-0.77,-0.14
-316,-956,6,0.07,-0.77,-0.14
-315,-955,7,0.07,-0.77,-0.14
-317,-955,7,0.0,-0.77,-0.14
-315,-954,7,-0.14,-0.77,-0.21
-315,-955,7,-0.21,-0.77,-0.21
-315,-956,7,-0.35,-0.77,-0.28
-317,-957,6,-0.28,-0.7,-0.28
-315,-957,6,-0.21,-0.7,-0.21
-314,-957,6,-0.14,-0.63,-0.21
-316,-958,6,-0.07,-0.63,-0.14
-316,-958,5,0.07,-0.7,-0.14
-316,-955,6,0.0,-0.7,-0.07
-316,-956,6,-0.14,-0.7,0.0
-317,-956,7,-0.21,-0.77,0.0
-317,-956,7,-0.35,-0.77,0.0
-316,-957,7,-0.35,-0.77,0.0
-315,-956,6,-0.28,-0.77,0.0
-315,-957,6,-0.14,-0.77,-0.07
-316,-955,7,0.0,-0.77,-0.07
-316,-955,6,0.0,-0.77,-0.14
-316,-956,7,-0.07,-0.7,-0.21
-316,-955,7,-0.07,-0.7,-0.28
-315,-955,7,-0.07,-0.63,-0.35
-315,-956,6,-0.14,-0.7,-0.42
-316,-955,6,-0.07,-0.63,-0.42
-316,-955,6,-0.07,-0.63,-0.49
-315,-955,5,-0.14,-0.63,-0.56
-315,-955,5,-0.21,-0.63,-0.56
-315,-956,5,-0.28,-0.7,-0.49
-316,-957,7,-0.28,-0.7,-0.35
-315,-958,6,-0.28,-0.7,-0.35
-316,-958,6,-0.21,-0.7,-0.28
-315,-958,6,-0.14,-0.7,-0.21
-315,-958,5,0.0,-0.7,-0.21
-315,-957,6,0.07,-0.7,-0.14
-315,-955,6,0.07,-0.63,-0.14
-314,-955,6,0.0,-0.7,-0.07
-316,-956,7,-0.14,-0.63,-0.14
-315,-956,7,-0.14,-0.63,-0.21
-315,-955,6,-0.21,-0.56,-0.21
-316,-955,6,-0.21,-0.56,-0.28
-315,-957,7,-0.28,-0.49,-0.35
-316,-956,6,-0.21,-0.49,-0.42
-315,-956,6,-0.21,-0.49,-0.42
-316,-956,6,-0.21,-0.56,-0.42
-315,-956,6,-0.21,-0.49,-0.42
-315,-957,5,-0.14,-0.56,-0.49
-315,-958,5,-0.07,-0.56,-0.49
-315,-958,5,-0.14,-0.63,-0.35
-315,-958,5,-0.07,-0.63,-0.28
-315,-957,5,0.0,-0.63,-0.28
-315,-957,5,-0.07,-0.77,-0.21
-315,-957,6,-0.14,-0.77,-0.07
-316,-957,6,-0.07,-0.77,-0.14
-315,-957,6,-0.14,-0.84,-0.07
-314,-956,6,-0.21,-0.84,0.0
-315,-956,6,-0.14,-0.77,0.0
-315,-956,7,-0.21,-0.77,0.0
-315,-957,7,-0.21,-0.77,-0.07
-315,-956,6,-0.21,-0.7,-0.14
-315,-956,6,-0.21,-0.63,-0.14
-315,-958,7,-0.07,-0.63,-0.14
-315,-957,6,0.07,-0.56,-0.14
-315,-956,6,0.07,-0.63,-0.21
-315,-957,6,0.07,-0.63,-0.21
-316,-955,5,0.0,-0.56,-0.14
-314,-957,6,-0.14,-0.63,-0.14
-314,-957,5,-0.21,-0.7,-0.14
-314,-957,5,-0.21,-0.7,0.0
-316,-957,5,-0.14,-0.7,-0.07
-315,-957,5,-0.14,-0.7,0.0
-314,-957,5,-0.14,-0.77,0.0
-315,-957,6,-0.14,-0.77,0.07
-314,-956,6,-0.07,-0.77,0.0
-314,-956,6,-0.07,-0.77,0.0
-315,-955,6,0.07,-0.7,0.0
-315,-956,5,0.0,-0.7,-0.07
-315,-956,6,0.0,-0.7,-0.14
-315,-956,6,0.0,-0.7,-0.21
-315,-956,6,0.0,-0.7,-0.21
-315,-956,5,-0.07,-0.7,-0.28
-316,-957,5,-0.07,-0.7,-0.28
-315,-955,5,-0.14,-0.7,-0.28
-315,-957,6,-0.14,-0.77,-0.21
-315,-958,6,-0.14,-0.77,-0.14
-315,-957,6,-0.07,-0.77,-0.14
-315,-957,7,-0.07,-0.77,-0.14
-314,-958,6,0.0,-0.7,-0.14
-315,-957,6,-0.07,-0.7,-0.14
-315,-956,6,-0.07,-0.7,-0.07
-314,-956,6,-0.07,-0.7,-0.07
-315,-956,6,-0.07,-0.7,-0.07
-315,-955,6,-0.07,-0.7,-0.14
-315,-956,6,-0.14,-0.7,-0.07
-314,-957,6,-0.14,-0.7,-0.07
-315,-957,6,-0.07,-0.7,-0.07
-314,-957,6,-0.07,-0.7,-0.07
-314,-956,6,0.0,-0.63,-0.14
-315,-957,6,0.0,-0.63,-0.14
-315,-956,6,0.0,-0.7,-0.14
-315,-956,6,-0.07,-0.7,-0.14
-315,-956,6,-0.21,-0.7,-0.21
-315,-956,6,-0.21,-0.7,-0.21
-315,-957,6,-0.21,-0.7,-0.21
-314,-957,5,-0.14,-0.7,-0.21
-315,-958,6,-0.14,-0.7,-0.21
-315,-958,6,-0.07,-0.7,-0.28
-314,-957,5,0.0,-0.7,-0.21
-314,-957,6,0.07,-0.7,-0.21
-314,-958,5,0.07,-0.7,-0.14
-315,-958,6,0.0,-0.7,-0.14
-316,-957,5,-0.07,-0.7,-0.14
-315,-956,6,0.0,-0.7,-0.07
-315,-957,6,-0.07,-0.7,-0.07
-315,-956,5,0.0,-0.7,-0.07
-315,-957,5,-0.07,-0.7,-0.07
-315,-956,6,-0.14,-0.7,-0.07
-315,-956,6,-0.14,-0.7,-0.14
-315,-957,6,-0.07,-0.77,-0.07
-315,-956,6,0.0,-0.7,-0.14
-314,-956,6,0.0,-0.7,-0.14
-314,-955,6,-0.07,-0.7,-0.21
-316,-956,6,-0.07,-0.77,-0.21
-314,-956,6,-0.14,-0.7,-0.21
-315,-956,5,-0.14,-0.7,-0.21
-314,-956,5,-0.21,-0.77,-0.28
-315,-956,5,-0.14,-0.7,-0.28
-315,-957,5,-0.07,-0.7,-0.28
-315,-957,6,-0.07,-0.7,-0.14
-315,-958,6,-0.14,-0.77,-0.14
-314,-958,6,0.0,-0.77,-0.14
-314,-957,6,0.0,-0.77,-0.07
-315,-956,7,-0.07,-0.77,-0.07
-315,-955,7,-0.07,-0.77,-0.07
-315,-956,6,-0.14,-0.7,0.0
-315,-955,7,-0.21,-0.7,-0.07
-315,-956,7,-0.35,-0.7,-0.07
-315,-957,7,-0.28,-0.63,-0.07
-315,-958,6,-0.28,-0.63,-0.07
-313,-959,4,-0.14,-0.56,-0.07
-314,-957,6,0.14,-0.49,-0.14
-316,-956,5,0.28,-0.56,-0.14
-316,-956,5,0.14,-0.56,-0.07
-314,-956,5,0.07,-0.56,0.0
-315,-956,5,-0.14,-0.63,0.0
-316,-956,5,-0.21,-0.7,0.0
-316,-956,6,-0.21,-0.7,0.0
-315,-956,5,-0.28,-0.77,0.0
-315,-957,5,-0.28,-0.77,-0.07
-315,-957,5,-0.21,-0.77,0.0
-315,-957,6,-0.07,-0.77,-0.07
-316,-957,5,0.07,-0.77,-0.07
-314,-956,6,0.07,-0.77,-0.14
-316,-956,6,0.07,-0.77,-0.21
-314,-956,6,0.0,-0.84,-0.21
-315,-955,6,0.0,-0.77,-0.28
-315,-954,6,0.0,-0.77,-0.28
-315,-957,6,0.0,-0.84,-0.28
-314,-956,6,-0.07,-0.84,-0.21
-314,-957,5,-0.07,-0.77,-0.21
-315,-957,5,-0.07,-0.77,-0.21
-315,-957,6,-0.14,-0.7,-0.21
-315,-957,6,-0.14,-0.7,-0.21
-315,-957,6,-0.07,-0.7,-0.14
-314,-957,6,-0.07,-0.7,-0.14
-315,-958,6,-0.07,-0.7,-0.14
-314,-957,6,-0.07,-0.63,-0.14
-315,-956,6,0.0,-0.63,-0.14
-315,-956,6,-0.07,-0.63,-0.14
-315,-955,6,-0.14,-0.63,-0.14
-314,-957,6,-0.14,-0.63,-0.14
-314,-956,5,-0.14,-0.63,-0.14
-315,-956,5,-0.07,-0.63,-0.14
-315,-956,5,-0.07,-0.63,-0.21
-315,-957,5,-0.07,-0.7,-0.14
-315,-956,6,-0.07,-0.7,-0.14
-315,-956,5,-0.14,-0.7,-0.14
-315,-957,6,-0.14,-0.7,-0.14
-315,-957,7,-0.07,-0.63,-0.14
-315,-956,6,-0.14,-0.7,-0.14
-315,-957,6,-0.14,-0.7,-0.14
-314,-957,5,-0.07,-0.7,-0.14
-313,-958,6,-0.07,-0.77,-0.21
-314,-957,5,-0.07,-0.7,-0.21
-314,-957,5,0.0,-0.77,-0.14
-316,-956,6,0.0,-0.7,-0.14
-315,-957,5,-0.07,-0.77,-0.14
-315,-957,5,-0.07,-0.77,-0.14
-314,-957,6,-0.07,-0.77,-0.07
-316,-956,6,0.0,-0.77,-0.07
-315,-957,6,-0.07,-0.77,-0.07
-315,-957,6,-0.07,-0.77,-0.07
-316,-956,6,-0.07,-0.77,-0.07
-316,-955,7,0.0,-0.77,-0.07
-314,-958,6,-0.07,-0.77,-0.07
-314,-957,6,-0.07,-0.77,-0.07
-315,-957,7,-0.07,-0.7,-0.07
-315,-956,7,-0.07,-0.7,-0.14
-314,-956,6,-0.07,-0.7,-0.14
-315,-957,6,0.0,-0.63,-0.14
-314,-957,6,-0.07,-0.63,-0.14
-313,-957,6,0.0,-0.7,-0.14
-315,-957,5,-0.07,-0.63,-0.14
-315,-956,6,-0.07,-0.7,-0.07
-316,-956,5,-0.14,-0.63,-0.07
-315,-957,5,-0.07,-0.63,-0.14
-315,-957,6,-0.07,-0.63,-0.07
-316,-956,6,-0.07,-0.7,-0.07
-315,-957,6,0.0,-0.7,-0.07
-315,-957,5,0.0,-0.7,0.0
-315,-957,5,0.0,-0.77,0.0
-315,-957,6,0.0,-0.77,-0.07
-315,-957,6,0.0,-0.77,0.0
-315,-957,5,-0.07,-0.77,0.0
-315,-956,6,-0.07,-0.77,0.0
-316,-957,6,0.0,-0.77,0.0
-315,-956,6,-0.07,-0.77,0.0
-315,-956,7,-0.07,-0.7,0.0
-315,-955,7,-0.14,-0.7,0.07
-314,-956,6,-0.14,-0.7,0.07
-314,-958,6,-0.07,-0.63,0.14
-316,-957,6,0.0,-0.63,0.14
-315,-956,6,0.14,-0.56,0.14
-315,-956,5,0.07,-0.56,0.07
-316,-955,6,0.07,-0.56,0.07
-316,-955,5,0.0,-0.56,0.07
-315,-955,6,-0.07,-0.63,0.07
-316,-955,6,-0.14,-0.63,0.0
-316,-955,6,-0.21,-0.63,-0.07
-315,-956,5,-0.14,-0.7,-0.07
-315,-955,5,-0.21,-0.7,-0.14
-316,-953,6,-0.14,-0.7,-0.21
-316,-955,6,-0.07,-0.7,-0.28
-316,-956,6,-0.14,-0.77,-0.35
-316,-956,6,-0.14,-0.77,-0.42
-315,-957,6,-0.14,-0.77,-0.42
-313,-957,6,-0.07,-0.77,-0.35
-315,-958,5,-0.07,-0.7,-0.35
-315,-958,6,0.0,-0.7,-0.35
-315,-958,6,0.07,-0.7,-0.28
-315,-958,6,0.14,-0.7,-0.21
-316,-956,6,0.07,-0.7,-0.21
-315,-957,6,0.0,-0.7,-0.14
-315,-956,6,-0.07,-0.77,-0.07
-314,-956,7,-0.14,-0.77,-0.07
-315,-957,6,-0.14,-0.7,-0.07
-315,-957,7,-0.14,-0.7,-0.07
-315,-955,6,-0.14,-0.7,-0.14
-315,-955,6,-0.14,-0.7,-0.14
-315,-956,6,-0.14,-0.7,-0.21
-314,-957,6,-0.07,-0.63,-0.21
-315,-956,6,0.0,-0.7,-0.28
-315,-956,6,-0.07,-0.7,-0.28
-315,-957,5,-0.07,-0.63,-0.28
-315,-956,5,-0.07,-0.7,-0.35
-315,-957,6,-0.14,-0.7,-0.35
-314,-957,5,-0.14,-0.7,-0.21
-314,-957,5,-0.14,-0.7,-0.21
-316,-958,6,-0.21,-0.7,-0.21
-315,-958,6,-0.14,-0.77,-0.14
-315,-956,6,-0.14,-0.7,-0.14
-314,-957,6,-0.14,-0.63,-0.21
-314,-957,5,-0.14,-0.7,-0.07
-315,-956,6,-0.07,-0.7,-0.07
-315,-957,6,0.0,-0.7,-0.07
-315,-955,6,0.07,-0.7,0.0
-314,-955,6,0.07,-0.7,-0.07
-315,-954,5,-0.07,-0.77,-0.07
-315,-955,6,-0.07,-0.7,-0.07
-316,-957,6,-0.14,-0.7,-0.21
-315,-955,5,0.0,-0.7,-0.21
-314,-955,7,0.07,-0.77,-0.14
-314,-957,6,-0.14,-0.77,-0.21
-315,-955,5,-0.07,-0.77,-0.21
-314,-957,6,-0.21,-0.77,-0.21
-315,-957,5,-0.28,-0.77,-0.21
-315,-957,6,-0.14,-0.77,-0.28
-315,-958,6,-0.14,-0.7,-0.21
-315,-957,6,-0.14,-0.77,-0.14
-315,-956,6,-0.14,-0.7,-0.14
-314,-956,6,-0.14,-0.7,-0.07
-315,-957,7,-0.21,-0.7,-0.07
-315,-956,6,-0.21,-0.7,-0.07
-315,-958,5,-0.14,-0.7,-0.07
-315,-957,5,-0.07,-0.7,-0.07
-315,-957,6,0.0,-0.7,-0.07
-314,-956,6,0.07,-0.63,-0.07
-315,-956,5,0.07,-0.7,-0.07
-315,-956,5,0.14,-0.7,-0.07
-314,-956,5,0.14,-0.7,-0.07
-315,-956,6,0.07,-0.7,-0.07
-315,-957,4,0.0,-0.7,-0.07
-315,-957,5,0.0,-0.77,0.0
-315,-955,5,0.0,-0.77,0.0
-315,-958,5,0.0,-0.84,0.07
-315,-958,6,-0.07,-0.77,0.0
-316,-957,6,0.0,-0.77,0.0
-316,-957,5,-0.07,-0.77,0.07
-317,-957,7,0.0,-0.84,0.14
-316,-958,7,0.07,-0.77,0.14
-315,-956,6,0.07,-0.77,0.14
-316,-956,8,0.07,-0.77,0.21
-315,-957,6,0.0,-0.77,0.21
-316,-957,7,0.07,-0.7,0.14
-315,-957,7,0.07,-0.63,0.21
-315,-955,7,0.0,-0.63,0.21
-315,-956,6,0.0,-0.56,0.14
-316,-955,7,0.0,-0.49,0.14
-316,-955,6,0.0,-0.56,0.07
-315,-956,6,0.0,-0.56,0.07
-316,-955,5,-0.07,-0.49,-0.07
-317,-954,6,-0.14,-0.56,-0.07
-316,-956,6,-0.21,-0.56,-0.21
-316,-956,6,-0.28,-0.56,-0.21
-315,-956,6,-0.21,-0.63,-0.28
-316,-956,6,-0.21,-0.63,-0.35
-316,-956,6,-0.14,-0.77,-0.42
-315,-956,6,-0.07,-0.77,-0.42
-315,-957,5,-0.14,-0.77,-0.35
-316,-956,5,-0.14,-0.7,-0.42
-315,-956,6,-0.14,-0.84,-0.35
-315,-957,7,-0.14,-0.84,-0.35
-314,-957,6,-0.07,-0.84,-0.28
-315,-958,6,-0.07,-0.77,-0.28
-315,-957,7,0.0,-0.77,-0.21
-314,-956,7,0.07,-0.77,-0.14
-315,-956,6,0.0,-0.77,-0.07
-315,-957,7,0.0,-0.7,-0.07
-316,-957,5,0.0,-0.77,0.0
-316,-957,7,0.0,-0.7,0.0
-316,-955,5,0.0,-0.7,0.0
-316,-956,6,0.0,-0.7,0.0
-315,-956,5,0.0,-0.7,0.0
-315,-956,5,0.0,-0.7,-0.07
-317,-956,6,0.0,-0.7,-0.07
-315,-955,7,-0.07,-0.77,-0.07
-316,-955,6,-0.14,-0.7,-0.14
-315,-955,7,-0.14,-0.7,-0.14
-315,-956,7,-0.14,-0.7,-0.14
-316,-956,6,-0.14,-0.7,-0.21
-316,-956,6,-0.21,-0.7,-0.21
-314,-958,5,-0.14,-0.63,-0.21
-315,-957,6,-0.07,-0.7,-0.14
-315,-956,6,-0.07,-0.7,-0.21
-315,-957,6,-0.07,-0.63,-0.21
-315,-957,5,-0.07,-0.63,-0.21
-315,-956,6,-0.07,-0.63,-0.14
-315,-957,6,-0.07,-0.7,-0.14
-315,-957,6,-0.07,-0.7,-0.07
-314,-957,6,-0.07,-0.63,-0.07
-316,-956,6,-0.07,-0.7,-0.07
-315,-957,6,0.0,-0.7,0.0
-315,-957,6,0.0,-0.7,0.0
-316,-956,7,0.07,-0.7,0.0
-316,-956,6,0.0,-0.77,0.0
-316,-955,7,0.0,-0.7,0.0
-315,-955,6,0.0,-0.7,-0.07
-315,-956,7,-0.07,-0.77,-0.07
-315,-955,7,-0.07,-0.7,-0.14
-316,-956,6,-0.07,-0.77,-0.14
-316,-956,6,-0.07,-0.77,-0.14
-316,-956,6,-0.07,-0.77,-0.21
-315,-957,6,-0.07,-0.7,-0.21
-315,-957,6,-0.14,-0.77,-0.21
-315,-956,6,-0.07,-0.7,-0.21
-315,-956,5,-0.07,-0.63,-0.14
-315,-957,7,-0.07,-0.7,-0.14
-316,-957,6,-0.07,-0.7,-0.14
-315,-956,6,-0.07,-0.7,-0.07
-315,-958,7,-0.14,-0.7,-0.07
-316,-957,6,-0.07,-0.63,-0.07
-315,-956,6,-0.07,-0.63,0.0
-315,-956,6,-0.07,-0.63,0.0
-316,-957,6,-0.07,-0.63,0.0
-315,-956,5,-0.07,-0.63,0.0
-316,-956,6,-0.07,-0.7,-0.07
-315,-956,6,0.0,-0.7,-0.07
-316,-956,5,0.0,-0.7,-0.14
-316,-956,6,-0.07,-0.7,-0.14
-316,-956,6,-0.07,-0.7,-0.21
-316,-956,6,-0.07,-0.7,-0.21
-315,-956,6,0.0,-0.7,-0.14
-316,-956,6,-0.07,-0.77,-0.21
-316,-955,6,-0.07,-0.77,-0.21
-315,-956,6,-0.07,-0.77,-0.14
-315,-957,6,-0.07,-0.77,-0.21
-315,-956,6,-0.07,-0.77,-0.21
-315,-957,6,-0.07,-0.77,-0.14
-314,-957,7,-0.07,-0.77,-0.14
-316,-957,6,0.0,-0.77,-0.07
-315,-957,6,0.07,-0.77,-0.07
-315,-957,6,0.0,-0.77,-0.07
-315,-956,6,0.0,-0.77,-0.14
-316,-955,6,-0.07,-0.77,-0.21
-315,-955,7,-0.14,-0.77,-0.14
-316,-956,8,-0.14,-0.77,-0.21
-314,-956,7,-0.21,-0.7,-0.21
-315,-957,6,-0.21,-0.63,-0.21
-315,-958,6,-0.21,-0.63,-0.21
-316,-958,6,-0.07,-0.56,-0.21
-316,-957,6,0.0,-0.63,-0.14
-316,-957,6,0.0,-0.56,-0.14
-316,-956,6,-0.07,-0.56,-0.14
-316,-957,5,-0.07,-0.56,-0.14
-315,-956,6,-0.14,-0.63,-0.07
-316,-956,5,-0.21,-0.56,-0.07
-316,-957,7,-0.21,-0.63,-0.14
-316,-957,6,-0.21,-0.7,-0.14
-315,-957,5,-0.14,-0.7,-0.14
-315,-955,7,-0.07,-0.7,-0.14
-316,-956,6,-0.07,-0.7,-0.14
-316,-956,6,-0.07,-0.7,-0.21
-315,-957,6,-0.07,-0.7,-0.21
-315,-956,7,-0.07,-0.7,-0.14
-315,-956,6,0.0,-0.77,-0.21
-316,-956,6,0.07,-0.77,-0.21
-315,-956,6,0.0,-0.77,-0.21
-315,-955,5,0.0,-0.77,-0.21
-317,-956,6,-0.07,-0.77,-0.21
-315,-956,7,-0.14,-0.84,-0.21
-315,-957,7,-0.14,-0.77,-0.14
-315,-956,6,-0.14,-0.84,-0.14
-315,-957,7,-0.07,-0.77,-0.14
-315,-956,7,-0.14,-0.7,-0.14
-316,-956,7,-0.14,-0.7,-0.07
-316,-956,6,-0.14,-0.7,-0.07
-316,-957,6,-0.07,-0.7,-0.07
-315,-956,7,-0.07,-0.7,-0.14
-316,-956,6,-0.07,-0.7,-0.07
-316,-956,6,-0.07,-0.63,-0.07
-316,-956,5,-0.07,-0.63,-0.07
-316,-955,6,-0.07,-0.7,-0.14
-316,-955,6,-0.14,-0.63,-0.14
-316,-957,6,-0.14,-0.63,-0.07
-316,-957,6,-0.14,-0.63,-0.14
-315,-957,6,-0.14,-0.63,-0.14
-315,-956,6,-0.07,-0.7,-0.14
-315,-957,6,0.0,-0.7,-0.07
-316,-956,6,0.0,-0.7,-0.07
-315,-956,6,0.0,-0.7,-0.07
-315,-957,6,0.0,-0.7,-0.07
-315,-957,6,0.0,-0.7,-0.07
-316,-956,6,-0.07,-0.63,-0.07
-316,-956,6,0.0,-0.63,0.0
-316,-955,7,0.0,-0.7,0.0
-314,-957,6,-0.07,-0.7,0.0
-316,-956,6,0.0,-0.7,-0.07
-316,-957,7,-0.07,-0.7,0.0
-316,-958,6,-0.14,-0.7,0.0
-315,-958,6,0.07,-0.7,0.0
-314,-956,6,0.28,-0.7,0.07
-316,-955,7,0.21,-0.7,0.14
-314,-956,7,0.07,-0.7,0.07
-316,-957,7,0.07,-0.63,0.07
-316,-956,7,0.07,-0.63,0.07
-316,-954,6,0.0,-0.63,0.07
-316,-955,6,-0.07,-0.63,0.0
-315,-955,7,-0.14,-0.7,-0.07
-315,-955,6,-0.21,-0.7,-0.14
-316,-956,6,-0.14,-0.63,-0.14
-316,-955,6,-0.07,-0.7,-0.14
-317,-955,6,-0.07,-0.7,-0.28
-316,-956,5,0.0,-0.7,-0.28
-316,-954,6,0.0,-0.7,-0.28
-315,-956,7,-0.07,-0.7,-0.35
-315,-955,7,-0.07,-0.7,-0.35
-316,-955,6,-0.14,-0.7,-0.42
-316,-956,6,-0.14,-0.7,-0.42
-316,-957,6,-0.21,-0.7,-0.42
-315,-957,6,-0.14,-0.7,-0.42
-315,-957,6,-0.14,-0.7,-0.35
-316,-958,6,-0.07,-0.7,-0.35
-316,-958,6,0.0,-0.63,-0.28
-316,-958,7,0.07,-0.63,-0.21
-316,-957,7,0.07,-0.7,-0.21
-315,-958,6,0.07,-0.63,-0.14
-315,-956,7,0.0,-0.63,-0.07
-316,-955,6,0.0,-0.7,-0.07
-315,-956,5,-0.07,-0.7,-0.14
-316,-957,6,-0.14,-0.7,-0.07
-316,-956,5,-0.21,-0.7,-0.14
-315,-957,6,-0.07,-0.7,-0.14
-315,-956,6,-0.07,-0.7,-0.14
-316,-955,7,-0.07,-0.77,-0.14
-316,-956,6,-0.07,-0.77,-0.14
-316,-956,6,0.0,-0.7,-0.14
-315,-956,6,0.0,-0.7,-0.21
-316,-956,7,-0.07,-0.7,-0.28
-314,-955,7,-0.14,-0.7,-0.28
-315,-955,6,-0.21,-0.7,-0.28
-315,-957,7,-0.42,-0.7,-0.21
-316,-958,6,-0.49,-0.7,-0.28
-315,-958,7,-0.35,-0.7,-0.21
-315,-958,6,-0.21,-0.63,-0.21
-314,-958,7,-0.07,-0.7,-0.14
-315,-957,6,0.07,-0.63,-0.14
-315,-958,5,0.0,-0.7,-0.07
-315,-957,4,0.07,-0.63,0.0
-316,-956,5,0.0,-0.7,0.07
-317,-957,7,0.0,-0.7,0.07
-315,-956,6,-0.07,-0.63,0.07
-316,-955,5,0.0,-0.7,0.0
-316,-955,5,-0.07,-0.77,0.07
-315,-956,5,-0.07,-0.77,0.0
-316,-955,5,-0.07,-0.77,-0.07
-316,-955,6,0.0,-0.84,-0.07
-316,-955,7,-0.07,-0.77,-0.21
-315,-955,7,-0.07,-0.77,-0.21
-316,-956,6,-0.07,-0.77,-0.21
-315,-957,6,0.0,-0.77,-0.35
-315,-956,6,0.07,-0.77,-0.28
-315,-957,7,0.07,-0.77,-0.28
-316,-957,6,0.0,-0.77,-0.35
-315,-955,7,-0.07,-0.77,-0.35
-315,-956,7,-0.07,-0.77,-0.35
-315,-957,7,-0.21,-0.77,-0.28
-315,-958,6,-0.28,-0.77,-0.28
-316,-957,7,-0.28,-0.77,-0.28
-314,-957,7,-0.14,-0.77,-0.28
-315,-957,7,-0.07,-0.77,-0.21
-316,-956,7,0.0,-0.7,-0.21
-316,-956,7,0.0,-0.7,-0.21
-315,-957,7,-0.07,-0.63,-0.21
-316,-957,6,-0.07,-0.7,-0.14
-315,-956,6,-0.07,-0.63,-0.14
-316,-956,6,-0.14,-0.7,-0.14
-315,-957,7,-0.14,-0.63,-0.14
-315,-957,7,-0.21,-0.7,-0.21
-315,-956,6,-0.21,-0.7,-0.21
-315,-956,6,-0.21,-0.7,-0.21
-315,-956,6,-0.21,-0.7,-0.21
-315,-957,6,-0.14,-0.63,-0.21
-316,-956,5,-0.07,-0.63,-0.21
-316,-956,5,-0.07,-0.7,-0.28
-315,-957,6,-0.07,-0.63,-0.28
-316,-956,6,0.0,-0.63,-0.28
-315,-956,7,-0.07,-0.7,-0.28
-315,-957,5,-0.14,-0.7,-0.28
-314,-956,6,-0.14,-0.7,-0.28
-314,-957,7,-0.07,-0.7,-0.28
-315,-957,6,-0.14,-0.7,-0.21
-315,-957,6,-0.07,-0.7,-0.21
-315,-958,6,0.0,-0.7,-0.21
-314,-956,7,0.0,-0.7,-0.14
-315,-956,6,0.07,-0.7,-0.14
-315,-955,7,0.0,-0.7,-0.14
-315,-957,6,-0.07,-0.7,-0.14
-315,-955,7,-0.07,-0.7,-0.07
-316,-956,6,-0.07,-0.7,-0.14
-314,-955,6,-0.14,-0.7,-0.21
-314,-957,6,-0.14,-0.7,-0.21
-315,-956,6,-0.14,-0.7,-0.21
-314,-957,6,-0.14,-0.7,-0.28
-315,-957,6,-0.07,-0.63,-0.28
-315,-956,6,0.0,-0.63,-0.28
-315,-957,6,-0.07,-0.7,-0.21
-314,-957,6,-0.14,-0.7,-0.21
-315,-957,6,-0.07,-0.7,-0.21
-314,-956,6,-0.07,-0.7,-0.14
-314,-957,6,-0.07,-0.7,-0.14
-316,-957,6,-0.07,-0.7,-0.14
-315,-955,6,-0.07,-0.7,-0.21
-315,-956,6,-0.21,-0.7,-0.14
-315,-955,6,-0.21,-0.7,-0.14
-315,-956,6,-0.28,-0.7,-0.21
-315,-956,5,-0.28,-0.63,-0.21
-314,-956,6,-0.21,-0.7,-0.21
-314,-956,5,-0.14,-0.7,-0.28
-315,-957,6,-0.14,-0.7,-0.35
-315,-957,5,-0.14,-0.7,-0.42
-316,-956,6,-0.07,-0.7,-0.42
-315,-955,5,-0.14,-0.77,-0.49
-314,-956,5,-0.21,-0.77,-0.56
-315,-956,6,-0.28,-0.84,-0.63
-313,-955,6,-0.28,-0.77,-0.63
-314,-957,7,-0.35,-0.84,-0.63
-313,-957,6,-0.35,-0.77,-0.63
-314,-958,6,-0.28,-0.77,-0.63
-315,-958,6,-0.28,-0.7,-0.56
-315,-958,6,-0.28,-0.7,-0.56
-313,-960,6,-0.21,-0.7,-0.49
-313,-959,6,-0.28,-0.63,-0.42
-312,-959,6,-0.21,-0.56,-0.28
-313,-958,6,-0.14,-0.56,-0.21
-313,-958,6,-0.07,-0.49,-0.07
-313,-959,5,-0.07,-0.49,0.0
-313,-957,6,-0.07,-0.49,0.07
-314,-957,5,-0.07,-0.49,0.14
-314,-957,5,-0.07,-0.49,0.14
-315,-956,6,-0.14,-0.49,0.14
-315,-955,5,-0.21,-0.56,0.14
-314,-956,4,-0.14,-0.56,0.0
-314,-958,5,-0.14,-0.56,-0.07
-314,-956,4,-0.07,-0.63,-0.14
-314,-955,5,-0.07,-0.7,-0.21
-315,-955,5,-0.14,-0.77,-0.28
-314,-956,6,-0.21,-0.77,-0.35
-314,-957,4,-0.21,-0.77,-0.42
-314,-957,5,-0.21,-0.77,-0.42
-314,-958,5,-0.14,-0.84,-0.42
-315,-958,5,-0.07,-0.84,-0.42
-314,-957,6,0.0,-0.84,-0.35
-312,-958,5,-0.14,-0.84,-0.35
-313,-958,5,-0.14,-0.91,-0.28
-315,-958,5,-0.14,-0.84,-0.28
-314,-958,5,-0.14,-0.91,-0.21
-313,-958,6,-0.07,-0.84,-0.21
-314,-957,6,-0.14,-0.77,-0.21
-313,-958,6,-0.21,-0.77,-0.21
-313,-957,6,-0.21,-0.77,-0.21
-313,-957,6,-0.14,-0.7,-0.14
-313,-957,6,-0.14,-0.63,-0.21
-313,-958,5,-0.14,-0.63,-0.21
-315,-957,5,-0.07,-0.56,-0.21
-314,-956,6,0.0,-0.56,-0.28
-314,-955,6,-0.07,-0.56,-0.28
-314,-956,5,-0.14,-0.49,-0.35
-315,-955,5,-0.21,-0.56,-0.35
-313,-957,4,-0.21,-0.56,-0.35
-314,-958,5,-0.28,-0.56,-0.42
-314,-958,5,-0.28,-0.56,-0.42
-314,-957,5,-0.28,-0.63,-0.42
-313,-957,5,-0.28,-0.63,-0.49
-314,-958,5,-0.28,-0.63,-0.49
-313,-958,5,-0.28,-0.63,-0.42
-312,-957,4,-0.21,-0.63,-0.42
-313,-958,5,-0.14,-0.56,-0.35
-312,-958,5,-0.14,-0.63,-0.35
-312,-958,4,-0.07,-0.63,-0.28
-312,-958,5,-0.07,-0.7,-0.28
-313,-958,5,-0.14,-0.7,-0.28
-313,-957,5,-0.21,-0.63,-0.21
-312,-957,5,-0.28,-0.63,-0.21
-313,-958,4,-0.21,-0.63,-0.14
-313,-958,4,-0.21,-0.63,-0.14
-314,-958,3,-0.07,-0.7,-0.14
-313,-956,5,0.0,-0.7,-0.14
-313,-955,5,0.0,-0.7,-0.14
-312,-957,5,-0.14,-0.7,-0.21
-312,-956,5,-0.21,-0.7,-0.14
-312,-957,5,-0.28,-0.7,-0.14
-312,-957,4,-0.21,-0.7,-0.21
-312,-957,5,-0.14,-0.7,-0.28
-313,-956,6,-0.21,-0.7,-0.28
-312,-956,5,-0.28,-0.7,-0.35
-312,-956,4,-0.28,-0.7,-0.35
-312,-957,5,-0.35,-0.63,-0.42
-313,-957,5,-0.35,-0.63,-0.42
-312,-957,4,-0.28,-0.63,-0.42
-313,-957,5,-0.28,-0.63,-0.42
-313,-958,5,-0.28,-0.56,-0.42
-312,-958,5,-0.35,-0.56,-0.49
-312,-959,4,-0.28,-0.56,-0.49
-312,-957,5,-0.28,-0.56,-0.49
-312,-959,5,-0.42,-0.56,-0.42
-312,-958,1,-0.28,-0.63,-0.49
-311,-956,4,-0.07,-0.56,-0.49
-312,-956,5,-0.56,-0.56,-0.49
-311,-958,5,-0.63,-0.63,-0.35
-313,-962,0,-0.63,-0.7,-0.35
-311,-958,4,-0.28,-0.63,-0.42
-316,-957,8,-0.07,-0.56,-0.28
-312,-956,4,-0.28,-0.7,-0.21
-311,-959,3,-0.42,-0.56,-0.14
-311,-959,5,-0.35,-0.63,-0.14
-311,-958,5,-0.21,-0.56,-0.14
-311,-957,4,-0.28,-0.56,-0.07
-312,-957,4,-0.35,-0.49,0.0
-311,-957,4,-0.35,-0.49,0.07
-310,-959,5,-0.21,-0.42,0.07
-312,-960,3,-0.14,-0.35,0.0
-311,-958,4,0.0,-0.35,0.0
-313,-957,4,0.07,-0.42,0.0
-313,-957,3,-0.07,-0.42,0.0
-313,-957,3,-0.21,-0.49,-0.07
-312,-956,2,-0.28,-0.56,-0.07
-312,-958,2,-0.28,-0.63,-0.14
-313,-958,3,-0.28,-0.7,-0.21
-313,-957,1,-0.28,-0.77,-0.28
-312,-958,2,-0.28,-0.91,-0.28
-312,-958,3,-0.28,-0.91,-0.35
-312,-957,5,-0.21,-0.84,-0.42
-311,-957,3,-0.21,-0.98,-0.42
-311,-957,4,-0.21,-0.98,-0.49
-311,-959,3,-0.28,-0.91,-0.49
-311,-959,2,-0.07,-0.91,-0.42
-310,-959,4,0.07,-0.84,-0.49
-312,-957,4,0.07,-0.84,-0.42
-311,-958,5,0.0,-0.84,-0.35
-312,-959,4,-0.14,-0.77,-0.35
-311,-958,4,-0.21,-0.7,-0.35
-310,-957,4,-0.21,-0.7,-0.28
-311,-958,4,-0.21,-0.63,-0.28
-312,-958,4,-0.14,-0.63,-0.28
-310,-958,3,-0.14,-0.56,-0.35
-311,-958,4,-0.14,-0.56,-0.28
-311,-958,3,-0.14,-0.49,-0.21
-311,-958,4,-0.21,-0.49,-0.21
-310,-959,2,-0.21,-0.49,-0.21
-310,-959,2,-0.07,-0.49,-0.21
-312,-959,2,0.0,-0.49,-0.21
-311,-957,2,-0.07,-0.49,-0.14
-311,-958,3,-0.07,-0.56,-0.14
-311,-958,2,-0.14,-0.63,-0.07
-312,-958,2,-0.21,-0.7,-0.07
-311,-959,3,-0.21,-0.7,-0.07
-311,-957,3,-0.21,-0.7,-0.07
-311,-956,2,-0.28,-0.77,-0.07
-311,-958,2,-0.28,-0.77,-0.07
-312,-958,3,-0.28,-0.84,-0.07
-311,-958,3,-0.07,-0.84,-0.07
-311,-958,3,0.0,-0.77,-0.14
-312,-957,5,0.0,-0.77,-0.14
-311,-956,3,-0.07,-0.77,-0.14
-311,-958,3,-0.14,-0.7,-0.14
-311,-958,4,-0.07,-0.7,-0.14
-311,-958,3,-0.07,-0.7,-0.14
-312,-957,2,-0.07,-0.7,-0.14
-311,-956,4,-0.07,-0.7,-0.14
-310,-958,3,-0.14,-0.7,-0.07
-311,-958,2,-0.07,-0.7,-0.14
-311,-958,3,-0.07,-0.7,-0.07
-311,-958,3,-0.07,-0.7,-0.07
-311,-958,2,-0.07,-0.77,-0.14
-310,-958,2,-0.07,-0.7,-0.14
-312,-957,3,-0.07,-0.77,-0.14
-311,-956,3,-0.07,-0.77,-0.14
-311,-957,3,-0.14,-0.7,-0.21
-311,-958,3,-0.21,-0.77,-0.28
-312,-959,2,-0.21,-0.7,-0.21
-310,-957,4,-0.14,-0.7,-0.28
-311,-959,3,-0.14,-0.7,-0.28
-311,-958,4,-0.07,-0.7,-0.28
-311,-957,3,0.0,-0.63,-0.28
-311,-958,3,-0.07,-0.63,-0.21
-311,-958,3,-0.14,-0.63,-0.21
-311,-959,2,-0.07,-0.63,-0.21
-310,-958,1,-0.07,-0.63,-0.14
-311,-958,2,-0.07,-0.7,-0.14
-311,-958,2,-0.14,-0.7,-0.07
-312,-958,1,-0.14,-0.7,-0.07
-311,-959,2,-0.14,-0.7,0.0
-312,-959,2,-0.07,-0.77,0.0
-311,-959,2,0.0,-0.77,0.0
-311,-958,3,0.0,-0.77,0.0
-312,-957,3,0.0,-0.77,-0.07
-311,-957,3,0.0,-0.84,-0.07
-310,-956,3,-0.07,-0.77,-0.07
-311,-956,3,-0.14,-0.77,-0.14
-311,-957,4,-0.21,-0.77,-0.21
-311,-958,3,-0.28,-0.7,-0.28
-311,-959,3,-0.28,-0.7,-0.21
-312,-958,4,-0.21,-0.7,-0.21
-311,-960,4,-0.07,-0.63,-0.21
-311,-960,2,0.0,-0.63,-0.14
-312,-958,2,0.14,-0.63,-0.07
-311,-959,2,0.14,-0.7,0.0
-311,-957,3,0.0,-0.7,0.0
-311,-957,4,-0.07,-0.7,0.07
-312,-957,3,-0.21,-0.77,0.14
-311,-957,2,-0.28,-0.77,0.07
-312,-959,3,-0.21,-0.77,0.07
-312,-957,3,-0.21,-0.77,0.07
-311,-957,3,-0.14,-0.77,0.0
-312,-956,3,-0.14,-0.77,0.0
-311,-956,4,-0.14,-0.77,-0.07
-311,-960,4,-0.14,-0.77,-0.07
-310,-958,3,0.0,-0.77,-0.14
-310,-957,4,0.14,-0.7,-0.21
-311,-958,3,0.07,-0.7,-0.21
-311,-957,4,-0.07,-0.7,-0.14
-312,-958,4,-0.14,-0.63,-0.21
-311,-958,4,-0.14,-0.56,-0.14
-310,-957,4,-0.21,-0.49,-0.14
-310,-958,3,-0.14,-0.49,-0.14
-311,-958,3,-0.21,-0.42,-0.14
-312,-958,3,-0.14,-0.49,-0.14
-311,-957,2,-0.07,-0.49,-0.21
-311,-958,3,-0.07,-0.49,-0.21
-313,-957,2,-0.07,-0.56,-0.28
-311,-957,2,-0.14,-0.56,-0.28
-311,-957,1,-0.21,-0.56,-0.28
-311,-958,2,-0.21,-0.63,-0.35
-311,-958,3,-0.28,-0.7,-0.35
-313,-960,2,-0.35,-0.7,-0.28
-312,-959,1,-0.28,-0.7,-0.28
-311,-960,2,-0.28,-0.77,-0.14
-311,-960,2,-0.21,-0.84,-0.14
-310,-961,3,-0.14,-0.84,0.0
-310,-960,3,-0.14,-0.84,0.07
-311,-959,3,-0.14,-0.91,0.28
-312,-960,3,-0.14,-0.84,0.35
-311,-959,2,-0.07,-0.84,0.42
-312,-959,3,0.0,-0.84,0.56
-311,-958,4,0.07,-0.77,0.63
-311,-958,3,0.0,-0.7,0.63
-311,-957,4,-0.07,-0.77,0.63
-313,-957,1,0.0,-0.7,0.56
-313,-957,4,0.07,-0.56,0.49
-313,-956,4,0.07,-0.63,0.49
-313,-955,2,0.07,-0.63,0.42
-312,-954,2,0.0,-0.63,0.28
-314,-955,2,0.0,-0.63,0.14
-312,-954,2,0.0,-0.7,-0.07
-313,-955,3,-0.07,-0.7,-0.21
-312,-954,2,-0.14,-0.7,-0.35
-313,-955,2,-0.21,-0.7,-0.49
-313,-956,3,-0.28,-0.77,-0.56
-312,-956,3,-0.28,-0.84,-0.7
-311,-957,3,-0.21,-0.77,-0.7
-312,-959,2,-0.28,-0.77,-0.7
-312,-959,3,-0.21,-0.77,-0.7
-310,-958,3,-0.07,-0.63,-0.63
-313,-960,4,-0.21,-0.63,-0.63
-311,-958,3,-0.14,-0.63,-0.49
-311,-959,3,-0.14,-0.56,-0.49
-311,-960,4,-0.21,-0.56,-0.35
-311,-960,3,-0.14,-0.49,-0.28
-311,-959,3,-0.14,-0.49,-0.14
-311,-959,3,-0.14,-0.49,-0.07
-312,-959,5,-0.21,-0.42,0.0
-313,-960,-2,-0.07,-0.56,0.0
-309,-954,2,0.21,-0.49,-0.07
-316,-953,5,-0.35,-0.49,0.0
-310,-958,1,-0.63,-0.63,0.0
-310,-960,0,-0.42,-0.56,-0.14
-314,-959,1,-0.07,-0.63,-0.28
-312,-957,1,0.07,-0.63,-0.21
-311,-956,1,-0.14,-0.7,-0.28
-313,-959,2,-0.14,-0.77,-0.35
-312,-958,2,-0.07,-0.77,-0.35
-312,-956,2,0.0,-0.7,-0.35
-311,-956,2,-0.14,-0.77,-0.35
-312,-957,2,-0.21,-0.77,-0.35
-311,-958,2,-0.21,-0.77,-0.28
-311,-959,4,-0.35,-0.77,-0.28
-310,-957,3,-0.35,-0.7,-0.21
-309,-959,3,-0.35,-0.7,-0.21
-310,-960,3,-0.28,-0.63,-0.07
-311,-960,4,-0.14,-0.63,0.0
-310,-959,3,0.0,-0.56,0.07
-311,-959,2,0.14,-0.49,0.14
-311,-958,2,0.14,-0.49,0.21
-311,-957,1,0.14,-0.56,0.21
-311,-958,2,0.07,-0.56,0.21
-313,-957,1,0.0,-0.56,0.21
-312,-956,2,0.0,-0.63,0.21
-313,-956,2,-0.07,-0.7,0.14
-313,-956,0,-0.14,-0.77,0.07
-311,-957,2,-0.14,-0.77,0.0
-312,-957,2,-0.21,-0.84,-0.14
-313,-955,2,-0.14,-0.84,-0.21
-312,-958,2,-0.14,-0.84,-0.21
-311,-958,2,-0.07,-0.91,-0.21
-312,-958,2,0.0,-0.84,-0.28
-311,-960,2,0.0,-0.84,-0.21
-311,-960,1,0.07,-0.84,-0.14
-310,-960,2,0.07,-0.84,-0.14
-312,-958,2,0.07,-0.84,0.0
-312,-961,3,0.07,-0.84,0.14
-312,-958,3,0.14,-0.84,0.21
-312,-960,2,0.07,-0.77,0.35
-312,-958,2,-0.07,-0.84,0.35
-312,-957,2,0.14,-0.84,0.42
-312,-958,2,0.0,-0.77,0.49
-313,-956,2,0.07,-0.84,0.42
-313,-957,4,0.07,-0.77,0.42
-312,-955,2,0.07,-0.84,0.42
