acc_x[mg],acc_y[mg],acc_z[mg],gyro_x[dps],gyro_y[dps],gyro_z[dps]
-314,-958,37,0.14,-0.84,-0.07
-313,-956,37,0.07,-0.84,0.0
-314,-956,36,0.07,-0.84,0.0
-313,-954,37,0.14,-0.84,-0.07
-314,-956,37,0.0,-0.84,-0.07
-313,-954,37,-0.07,-0.84,-0.21
-314,-954,37,0.0,-0.91,-0.28
-313,-955,38,0.0,-0.84,-0.42
-314,-955,38,-0.07,-0.84,-0.42
-313,-956,39,-0.07,-0.84,-0.42
-312,-955,38,0.0,-0.7,-0.49
-311,-956,38,-0.21,-0.7,-0.42
-312,-956,38,-0.28,-0.63,-0.49
-312,-957,38,-0.28,-0.56,-0.35
-313,-959,37,-0.14,-0.49,-0.35
-313,-960,38,0.0,-0.49,-0.28
-313,-957,37,0.14,-0.49,-0.21
-312,-957,38,0.21,-0.49,-0.07
-313,-958,37,0.07,-0.49,-0.07
-313,-957,36,0.07,-0.56,-0.07
-315,-954,36,0.07,-0.56,0.0
-314,-956,36,-0.07,-0.63,0.0
-315,-958,37,-0.21,-0.7,0.0
-313,-957,37,-0.21,-0.7,0.0
-314,-955,36,-0.07,-0.7,0.07
-314,-955,42,-0.14,-0.7,0.0
-315,-950,47,-0.84,-0.77,0.14
-302,-959,12,-0.14,-1.33,0.07
-323,-957,36,0.84,-0.28,-0.63
-321,-952,52,-0.35,-0.42,-0.35
-304,-951,40,-0.56,-1.33,-0.21
-308,-951,37,0.0,-0.91,-0.63
-328,-944,42,-0.91,-0.84,-0.7
-316,-956,34,-1.47,-1.05,-0.42
-304,-959,34,-1.61,-0.84,-0.98
-310,-958,34,-1.4,-0.77,-1.19
-309,-959,36,-0.84,-0.77,-1.26
-312,-956,40,-0.56,-0.63,-1.33
-313,-955,39,-0.77,-0.7,-1.12
-309,-957,35,-0.91,-0.84,-1.12
-311,-961,34,-1.12,-0.7,-1.12
-313,-963,36,-0.91,-0.7,-1.05
-312,-963,36,-0.42,-0.7,-0.91
-311,-958,38,-0.07,-0.63,-0.7
-312,-957,38,-0.28,-0.7,-0.49
-309,-959,35,-0.42,-0.77,-0.28
-310,-962,34,-0.42,-0.7,-0.21
-311,-961,37,-0.35,-0.56,0.0
-311,-961,36,-0.14,-0.63,0.21
-310,-958,35,-0.14,-0.63,0.28
-312,-958,35,0.0,-0.56,0.42
-311,-956,37,0.0,-0.63,0.42
-312,-958,34,0.07,-0.56,0.42
-311,-956,34,0.42,-0.56,0.28
-313,-954,35,0.35,-0.56,0.14
-312,-953,36,0.35,-0.63,0.0
-312,-951,35,0.14,-0.7,-0.21
-311,-952,34,-0.28,-0.77,-0.35
-313,-955,34,-0.35,-0.77,-0.56
-313,-955,33,-0.35,-0.91,-0.77
-312,-958,34,-0.28,-0.91,-0.91
-312,-957,35,-0.14,-0.91,-0.98
-311,-956,38,-0.14,-0.91,-0.98
-312,-956,36,-0.14,-0.91,-0.98
-310,-957,36,-0.21,-0.91,-0.98
-309,-960,36,-0.35,-0.84,-0.84
-309,-961,34,-0.07,-0.77,-0.84
-310,-959,37,0.07,-0.7,-0.77
-309,-960,35,0.07,-0.77,-0.63
-309,-959,37,0.28,-0.63,-0.63
-310,-957,36,0.07,-0.63,-0.42
-310,-959,36,-0.14,-0.56,-0.28
-312,-958,36,-0.14,-0.56,-0.28
-310,-957,36,-0.21,-0.49,-0.21
-311,-957,36,-0.21,-0.49,-0.21
-310,-956,36,-0.21,-0.49,-0.21
-310,-955,37,-0.35,-0.49,-0.28
-310,-956,36,-0.42,-0.49,-0.42
-310,-958,33,-0.42,-0.49,-0.42
-311,-956,33,-0.28,-0.49,-0.63
-311,-956,33,-0.07,-0.56,-0.77
-311,-956,34,0.0,-0.63,-0.84
-313,-955,34,-0.14,-0.7,-0.84
-310,-955,34,-0.35,-0.84,-0.91
-310,-955,34,-0.49,-0.91,-1.05
-309,-954,35,-0.7,-1.05,-1.12
-308,-957,33,-0.98,-1.12,-1.19
-308,-955,37,-1.12,-1.19,-1.12
-311,-961,32,-1.47,-1.33,-0.91
-308,-963,33,-1.47,-1.33,-0.91
-309,-961,34,-0.98,-1.26,-0.91
-307,-960,35,-0.84,-1.33,-0.77
-308,-960,34,-0.91,-1.26,-0.56
-307,-960,35,-0.91,-1.19,-0.49
-308,-961,36,-0.77,-1.19,-0.42
-309,-959,33,-0.63,-1.19,-0.28
-307,-961,33,-0.42,-1.12,-0.21
-306,-960,33,-0.21,-0.98,-0.21
-305,-958,36,-0.14,-0.84,-0.21
-309,-953,37,-0.35,-0.77,-0.14
-313,-950,37,-0.77,-0.77,0.0
-310,-955,36,-1.47,-0.63,0.21
-301,-962,34,-1.75,-0.7,-0.07
-306,-954,34,-1.33,-0.63,-0.28
-309,-958,30,-1.19,-0.63,-0.35
-305,-964,30,-1.19,-0.49,-0.56
-306,-963,32,-0.7,-0.35,-0.7
-307,-958,34,0.0,-0.21,-0.77
-309,-956,35,0.14,-0.14,-0.77
-310,-954,37,-0.28,-0.14,-0.63
-310,-955,34,-0.63,-0.28,-0.49
-307,-959,29,-0.84,-0.28,-0.56
-308,-963,26,-0.77,-0.21,-0.7
-306,-968,27,-0.28,-0.21,-0.91
-304,-960,32,0.49,-0.07,-0.98
-308,-949,44,0.42,0.0,-0.63
-310,-948,37,-0.56,-0.49,-0.28
-304,-962,21,-1.47,-0.77,-0.35
-305,-970,22,-1.12,-0.35,-0.77
-309,-963,33,0.0,0.0,-0.7
-310,-955,40,0.35,-0.07,-0.42
-307,-952,36,-0.35,-0.49,-0.14
-306,-957,29,-0.91,-0.56,0.0
-305,-964,26,-1.05,-0.42,-0.21
-306,-965,28,-0.7,-0.21,-0.28
-308,-961,31,-0.14,-0.21,-0.07
-309,-958,33,0.0,-0.28,0.14
-308,-956,32,-0.42,-0.35,0.28
-304,-961,27,-0.7,-0.35,0.28
-302,-958,29,-0.35,-0.21,0.14
-308,-958,32,-0.21,-0.21,0.21
-309,-957,32,-0.35,-0.35,0.35
-310,-956,29,-0.56,-0.42,0.42
-308,-958,29,-0.49,-0.42,0.35
-310,-957,28,-0.35,-0.49,0.14
-309,-956,28,-0.21,-0.42,0.07
-309,-957,30,-0.49,-0.35,0.0
-305,-954,33,-0.77,-0.49,-0.21
-306,-952,33,-1.05,-0.63,-0.28
-308,-952,28,-1.54,-0.77,-0.49
-309,-958,24,-1.75,-0.63,-0.63
-309,-965,27,-1.68,-0.56,-0.63
-307,-963,32,-1.12,-0.56,-0.63
-306,-959,33,-0.77,-0.63,-0.63
-305,-957,29,-0.98,-0.77,-0.56
-305,-961,25,-1.19,-0.77,-0.49
-306,-963,28,-1.47,-0.63,-0.42
-305,-963,28,-1.47,-0.42,0.07
-303,-969,27,-1.19,-0.42,0.21
-306,-964,28,-0.63,-0.35,0.07
-309,-963,33,-0.21,-0.21,0.49
-307,-962,33,-0.35,-0.21,0.84
-305,-964,27,-0.63,-0.21,1.12
-306,-965,27,-0.56,-0.07,1.33
-306,-967,25,-0.49,0.07,1.61
-305,-969,29,0.21,0.07,1.82
-310,-962,29,0.77,0.21,2.1
-308,-957,27,0.7,0.07,2.38
-308,-958,27,0.49,0.0,2.45
-311,-960,27,0.28,-0.07,2.52
-311,-960,21,0.42,-0.07,2.59
-312,-958,28,0.77,-0.07,2.59
-315,-952,32,0.56,-0.28,2.8
-316,-951,27,0.28,-0.56,2.8
-313,-949,29,-0.14,-0.63,2.73
-317,-945,29,-1.19,-0.84,2.8
-315,-960,13,-1.75,-1.19,2.52
-311,-960,23,-1.4,-0.98,1.82
-317,-957,24,-0.84,-1.05,1.75
-309,-956,31,-0.42,-1.26,1.33
-318,-946,26,-0.49,-1.19,1.4
-314,-964,19,-0.49,-1.4,1.12
-310,-965,24,0.77,-0.84,0.56
-311,-954,39,1.19,-0.42,0.56
-318,-943,50,0.7,-0.63,0.91
-320,-929,41,-0.7,-1.05,1.33
-315,-947,12,-2.31,-1.47,1.47
-308,-977,2,-2.87,-0.42,0.84
-311,-973,28,-1.33,0.42,0.21
-313,-970,37,0.07,0.21,0.28
-310,-956,37,1.12,0.28,0.28
-322,-925,56,0.42,0.77,0.98
-329,-929,33,-2.03,-0.35,2.24
-313,-961,13,-4.62,-0.28,2.24
-313,-966,15,-5.18,0.49,2.03
-308,-985,23,-3.85,0.35,1.96
-310,-987,35,-1.75,0.14,1.26
-313,-960,37,0.28,-0.07,1.12
-323,-941,58,0.42,0.07,1.82
-330,-924,63,-2.17,-1.12,2.59
-320,-931,24,-4.83,-2.17,3.85
-311,-946,-25,-5.88,-1.19,4.41
-310,-984,-28,-6.79,0.42,4.06
-317,-991,0,-5.32,1.4,3.01
-325,-962,21,-1.19,1.19,2.66
-322,-946,21,0.7,0.84,2.59
-323,-941,19,-0.28,0.63,2.52
-323,-953,18,-1.19,0.7,2.31
-324,-960,18,-0.35,0.63,1.89
-328,-960,17,0.98,0.56,1.82
-330,-955,14,1.82,0.49,2.17
-329,-951,14,2.03,0.56,2.17
-326,-945,18,1.75,0.56,1.96
-326,-940,19,0.77,0.49,1.89
-327,-941,20,-0.49,0.35,1.89
-326,-948,19,-1.68,0.28,1.75
-325,-950,17,-2.24,0.28,1.61
-330,-937,39,-2.52,0.28,1.4
-344,-909,36,-4.27,-0.35,2.1
-332,-940,4,-7.0,-1.47,2.59
-312,-982,-1,-8.61,-0.98,1.33
-316,-972,19,-6.86,0.07,0.42
-327,-950,25,-3.71,-0.07,0.49
-333,-942,18,-3.01,-0.63,0.84
-333,-948,15,-4.34,-0.77,1.05
-324,-961,14,-4.62,-0.7,0.91
-320,-963,12,-3.71,-0.35,0.77
-325,-967,9,-2.8,0.0,0.91
-327,-970,8,-1.68,0.14,1.05
-325,-966,7,-0.42,0.28,1.12
-323,-965,9,0.63,0.42,1.33
-325,-961,10,1.4,0.63,1.61
-327,-961,9,2.03,0.7,2.17
-327,-961,6,2.38,0.77,2.59
-329,-956,3,3.01,1.05,2.94
-332,-949,12,3.08,1.26,3.36
-330,-954,20,1.68,1.12,3.85
-325,-952,15,0.98,0.84,3.71
-331,-949,6,1.33,0.84,3.5
-337,-947,2,1.68,0.91,3.43
-343,-941,12,1.89,1.05,3.57
-340,-942,15,1.05,0.77,3.85
-329,-947,2,0.14,0.42,3.5
-326,-955,8,-0.21,0.63,2.8
-329,-951,7,0.0,0.84,2.59
-330,-946,2,0.7,1.33,2.52
-341,-935,6,0.42,2.17,2.52
-353,-930,38,-0.35,1.75,2.59
-354,-929,48,-2.17,0.14,2.66
-340,-948,15,-3.64,-1.47,2.17
-328,-965,-16,-2.52,-0.91,1.19
-334,-965,-1,-0.28,0.84,0.49
-345,-948,26,0.91,1.19,0.84
-342,-935,26,1.05,0.28,1.26
-334,-936,10,0.28,-0.14,1.47
-336,-955,3,-0.49,0.14,1.33
-343,-968,8,-0.35,0.35,1.12
-343,-958,10,0.98,0.28,1.05
-343,-943,10,1.82,0.21,1.4
-345,-940,9,1.19,-0.14,1.75
-344,-949,8,0.21,-0.42,1.89
-340,-956,6,-0.14,-0.56,1.89
-344,-956,7,0.28,-0.77,2.1
-347,-953,6,0.98,-1.19,2.31
-347,-951,3,1.4,-1.61,2.45
-346,-947,3,1.82,-1.96,2.38
-349,-943,4,2.1,-2.45,2.31
-348,-942,6,1.75,-2.94,2.24
-347,-941,7,1.19,-3.36,2.17
-347,-938,10,0.91,-3.64,1.89
-346,-932,11,0.56,-3.85,1.47
-346,-928,16,-0.07,-3.92,1.05
-344,-932,20,-1.19,-3.71,0.56
-339,-934,21,-1.82,-3.43,0.0
-338,-935,23,-1.89,-2.94,-0.7
-337,-939,26,-1.96,-2.38,-1.19
-338,-943,27,-1.89,-1.75,-1.61
-338,-943,27,-1.33,-0.98,-1.96
-338,-945,27,-0.91,-0.42,-2.17
-337,-948,25,-0.77,0.21,-2.31
-339,-948,22,-0.56,0.77,-2.31
-340,-950,19,-0.42,1.26,-2.31
-342,-953,15,-0.63,1.54,-2.03
-341,-953,12,-0.7,1.75,-1.68
-340,-953,11,-0.7,1.89,-1.4
-341,-951,9,-0.84,1.96,-1.12
-340,-951,8,-1.05,1.96,-0.84
-342,-951,7,-1.26,1.82,-0.63
-345,-948,7,-1.05,1.68,-0.42
-345,-947,6,-0.98,1.33,-0.28
-344,-947,7,-1.05,1.12,-0.21
-344,-946,6,-1.05,0.91,-0.35
-343,-944,5,-0.91,0.77,-0.63
-342,-942,8,-0.98,0.7,-0.84
-342,-941,9,-1.19,0.56,-1.12
-341,-940,10,-1.26,0.63,-1.33
-342,-939,11,-1.26,0.63,-1.68
-343,-940,11,-1.4,0.63,-1.89
-341,-942,12,-1.75,0.7,-2.03
-339,-943,10,-1.96,0.84,-2.17
-337,-945,10,-2.17,0.91,-2.38
-336,-945,6,-2.45,1.05,-2.38
-335,-950,6,-2.38,1.12,-2.31
-338,-954,5,-2.45,1.12,-2.59
-336,-955,5,-2.24,1.12,-2.59
-336,-956,4,-1.82,1.12,-2.45
-337,-957,3,-1.26,0.98,-2.38
-337,-956,1,-0.84,0.91,-2.24
-339,-953,1,-0.56,0.77,-2.1
-339,-952,2,-0.56,0.63,-1.89
-338,-953,2,-0.63,0.42,-1.68
-337,-955,2,-0.63,0.28,-1.54
-339,-954,3,-0.49,0.07,-1.33
-337,-953,3,-0.35,0.0,-1.05
-337,-958,3,-0.56,-0.21,-0.7
-338,-955,3,-0.42,-0.35,-0.56
-335,-955,3,-0.07,-0.42,-0.14
-333,-958,3,-0.07,-0.49,0.14
-335,-955,3,0.35,-0.56,0.21
-336,-951,3,0.63,-0.56,0.42
-335,-949,3,0.28,-0.7,0.56
-336,-951,4,0.07,-0.63,0.7
-337,-949,3,0.07,-0.7,0.7
-335,-950,3,0.14,-0.77,0.77
-336,-949,3,0.14,-0.77,0.7
-336,-948,4,0.28,-0.77,0.7
-334,-949,4,0.21,-0.77,0.7
-335,-948,4,0.28,-0.7,0.56
-335,-948,4,0.49,-0.7,0.42
-336,-949,5,0.49,-0.63,0.35
-337,-950,5,0.56,-0.63,0.28
-335,-949,6,0.77,-0.56,0.21
-335,-947,6,0.77,-0.49,0.07
-335,-947,6,0.7,-0.42,0.0
-334,-949,6,0.49,-0.35,0.0
-333,-951,5,0.42,-0.21,0.0
-333,-953,4,0.63,-0.14,-0.07
-332,-953,3,1.12,0.0,-0.21
-333,-953,3,1.47,0.0,-0.35
-336,-952,4,1.89,0.0,-0.35
-336,-949,4,2.1,-0.07,-0.42
-336,-948,5,2.1,-0.14,-0.42
-340,-943,6,2.1,-0.21,-0.49
-342,-943,8,1.75,-0.42,-0.49
-341,-945,8,0.91,-0.56,-0.28
-339,-947,7,0.28,-0.63,-0.21
-338,-949,7,0.07,-0.7,-0.07
-336,-951,7,-0.07,-0.7,0.14
-336,-953,7,-0.14,-0.77,0.35
-334,-954,7,0.07,-0.77,0.49
-335,-954,8,0.35,-0.7,0.77
-336,-954,8,0.63,-0.7,0.91
-336,-954,8,0.84,-0.7,1.12
-337,-952,7,1.12,-0.7,1.19
-338,-948,7,1.4,-0.63,1.12
-339,-947,9,1.26,-0.63,1.19
-338,-945,9,0.91,-0.7,1.19
-337,-944,7,0.7,-0.7,1.05
-338,-942,8,0.49,-0.7,0.77
-340,-942,9,0.14,-0.63,0.63
-339,-942,10,-0.14,-0.63,0.49
-339,-943,9,-0.35,-0.7,0.21
-339,-945,9,-0.56,-0.7,0.0
-338,-948,8,-0.56,-0.63,-0.14
-337,-949,9,-0.21,-0.56,-0.35
-338,-946,8,0.07,-0.56,-0.49
-339,-945,8,0.14,-0.49,-0.63
-339,-946,9,0.0,-0.49,-0.7
-338,-946,9,-0.07,-0.42,-0.84
-336,-946,9,-0.07,-0.35,-1.05
-336,-947,10,-0.21,-0.28,-1.12
-336,-951,5,-0.49,-0.28,-1.19
-334,-948,6,-0.35,-0.14,-1.33
-338,-947,13,-0.07,-0.14,-1.33
-340,-948,10,-0.42,-0.21,-1.12
-338,-949,8,-0.84,-0.14,-0.98
-337,-954,7,-0.77,-0.14,-0.98
-337,-955,8,-0.42,-0.07,-0.91
-335,-953,7,-0.14,-0.07,-0.77
-335,-953,7,0.07,-0.07,-0.63
-337,-951,7,0.21,-0.14,-0.49
-337,-951,6,0.14,-0.21,-0.35
-335,-951,6,0.14,-0.21,-0.35
-337,-950,6,0.28,-0.28,-0.28
-338,-947,5,0.28,-0.35,-0.28
-337,-947,6,0.21,-0.42,-0.35
-337,-947,6,0.0,-0.56,-0.42
-337,-947,7,-0.07,-0.7,-0.42
-339,-949,6,-0.21,-0.77,-0.42
-337,-950,7,-0.28,-0.84,-0.49
-336,-949,7,-0.21,-0.84,-0.56
-336,-949,6,-0.07,-0.91,-0.56
-336,-950,6,-0.21,-0.91,-0.49
-337,-950,8,-0.07,-0.91,-0.49
-336,-952,9,-0.14,-0.98,-0.35
-334,-953,8,-0.07,-0.98,-0.28
-335,-952,8,0.07,-0.91,-0.21
-334,-950,9,0.14,-0.84,-0.07
-334,-950,9,0.14,-0.77,0.0
-334,-950,8,0.07,-0.7,0.0
-336,-952,8,0.07,-0.7,0.07
-335,-951,9,0.21,-0.63,0.14
-336,-949,8,0.35,-0.63,0.14
-337,-947,9,0.28,-0.56,0.14
-337,-946,9,0.07,-0.56,0.14
-336,-947,8,-0.07,-0.49,0.0
-335,-947,9,-0.14,-0.49,-0.07
-335,-947,8,-0.14,-0.42,-0.21
-335,-949,8,0.0,-0.42,-0.35
-334,-950,6,0.21,-0.28,-0.56
-335,-946,7,0.35,-0.28,-0.7
-336,-945,10,0.35,-0.35,-0.84
-337,-946,9,-0.07,-0.35,-0.84
-338,-948,7,-0.35,-0.49,-0.84
-337,-952,7,-0.42,-0.49,-0.84
-337,-952,8,-0.21,-0.49,-0.84
-335,-951,8,-0.07,-0.56,-0.7
-335,-951,8,-0.21,-0.56,-0.49
-335,-952,7,-0.35,-0.56,-0.28
-334,-953,7,-0.35,-0.56,-0.14
-336,-953,7,-0.21,-0.56,0.0
-335,-953,7,0.0,-0.63,0.14
-335,-951,7,0.21,-0.63,0.14
-334,-950,7,0.28,-0.63,0.14
-334,-947,7,0.21,-0.7,0.07
-335,-947,6,0.21,-0.7,0.0
-334,-947,7,0.28,-0.63,-0.28
-334,-945,6,0.21,-0.63,-0.42
-334,-945,7,0.21,-0.56,-0.63
-334,-946,6,0.07,-0.63,-0.98
-333,-948,7,0.14,-0.56,-1.19
-335,-947,8,0.28,-0.56,-1.47
-336,-946,7,0.35,-0.7,-1.61
-335,-946,7,0.35,-0.77,-1.82
-335,-948,8,0.07,-0.84,-1.89
-334,-949,8,-0.07,-0.84,-1.96
-333,-950,7,-0.35,-0.84,-1.96
-333,-951,9,-0.28,-0.91,-1.96
-335,-952,11,-0.56,-0.77,-1.75
-332,-955,10,-0.77,-0.84,-1.47
-332,-957,9,-0.63,-0.77,-1.12
-331,-956,10,-0.35,-0.7,-0.91
-331,-956,10,-0.21,-0.63,-0.56
-331,-956,10,-0.14,-0.56,-0.21
-331,-954,10,-0.07,-0.49,0.07
-331,-953,9,0.14,-0.42,0.28
-331,-953,9,0.14,-0.35,0.42
-332,-954,9,0.14,-0.28,0.56
-333,-951,8,0.21,-0.28,0.63
-332,-949,7,0.21,-0.28,0.63
-333,-948,7,0.28,-0.28,0.56
-333,-947,7,0.21,-0.35,0.49
-334,-947,8,0.07,-0.42,0.28
-334,-947,8,0.0,-0.42,0.14
-334,-947,7,-0.14,-0.56,0.0
-333,-948,7,-0.21,-0.63,-0.21
-332,-947,6,-0.21,-0.63,-0.28
-333,-948,7,-0.14,-0.63,-0.49
-333,-949,7,0.0,-0.77,-0.56
-333,-949,7,0.0,-0.77,-0.63
-332,-951,7,-0.07,-0.77,-0.7
-333,-950,8,-0.14,-0.84,-0.7
-332,-951,8,-0.14,-0.77,-0.7
-334,-951,8,-0.28,-0.77,-0.77
-333,-951,8,-0.28,-0.84,-0.7
-331,-952,7,-0.28,-0.77,-0.7
-332,-952,7,-0.21,-0.77,-0.63
-332,-952,8,-0.14,-0.77,-0.63
-332,-950,9,0.0,-0.77,-0.63
-331,-952,8,0.0,-0.77,-0.56
-332,-951,8,-0.07,-0.84,-0.56
-331,-953,8,-0.07,-0.84,-0.49
-332,-951,8,0.0,-0.84,-0.35
-331,-950,8,0.0,-0.84,-0.28
-330,-952,8,-0.14,-0.84,-0.21
-331,-952,9,-0.14,-0.84,-0.14
-330,-953,8,0.0,-0.84,0.0
-330,-952,9,0.0,-0.84,0.0
-331,-951,9,0.07,-0.84,0.0
-331,-951,9,0.0,-0.84,0.07
-331,-950,9,0.0,-0.84,0.07
-331,-950,9,-0.07,-0.77,0.07
-333,-950,9,-0.07,-0.7,-0.07
-331,-950,9,-0.07,-0.7,-0.07
-332,-950,8,-0.14,-0.7,-0.14
-332,-950,8,-0.14,-0.7,-0.21
-331,-949,8,-0.07,-0.63,-0.28
-332,-950,9,-0.07,-0.63,-0.28
-331,-949,8,-0.07,-0.63,-0.42
-332,-950,8,-0.07,-0.63,-0.42
-332,-952,7,-0.14,-0.63,-0.42
-332,-952,8,-0.14,-0.7,-0.49
-332,-951,7,-0.07,-0.7,-0.42
-331,-951,7,-0.14,-0.7,-0.42
-331,-951,8,-0.21,-0.7,-0.42
-331,-951,8,-0.28,-0.7,-0.35
-332,-952,8,-0.28,-0.7,-0.35
-331,-952,7,-0.28,-0.7,-0.42
-332,-951,8,-0.21,-0.7,-0.35
-330,-952,8,-0.14,-0.7,-0.35
-331,-952,7,-0.14,-0.63,-0.42
-331,-950,7,-0.07,-0.7,-0.35
-332,-950,8,0.0,-0.7,-0.35
-331,-950,8,0.0,-0.7,-0.42
-331,-950,8,-0.07,-0.7,-0.42
-331,-950,8,-0.14,-0.7,-0.49
-330,-950,8,-0.21,-0.77,-0.56
-330,-950,8,-0.28,-0.77,-0.56
-330,-951,8,-0.35,-0.77,-0.63
-328,-954,6,-0.49,-0.7,-0.63
-326,-954,6,-0.14,-0.56,-0.84
-332,-947,13,0.42,-0.49,-0.77
-335,-948,12,-0.14,-0.7,-0.49
-330,-953,7,-0.63,-0.7,-0.49
-329,-957,7,-0.49,-0.49,-0.49
-331,-955,7,0.0,-0.56,-0.49
-329,-951,6,0.21,-0.56,-0.49
-330,-950,7,-0.07,-0.63,-0.35
-330,-952,7,-0.35,-0.63,-0.28
-330,-953,7,-0.35,-0.63,-0.21
-330,-954,8,-0.28,-0.63,-0.14
-331,-954,8,-0.21,-0.63,-0.07
-329,-953,7,-0.07,-0.7,0.0
-329,-952,7,0.07,-0.7,0.0
-329,-950,7,-0.07,-0.7,0.07
-330,-950,8,-0.14,-0.7,0.14
-329,-952,8,-0.07,-0.7,0.07
-329,-951,7,0.0,-0.7,0.0
-331,-951,8,0.14,-0.7,-0.07
-330,-950,8,0.14,-0.77,-0.14
-331,-949,7,0.0,-0.77,-0.21
-332,-949,8,0.0,-0.77,-0.28
-329,-949,8,-0.14,-0.77,-0.35
-329,-950,8,-0.21,-0.77,-0.49
-329,-951,8,-0.28,-0.84,-0.56
-330,-951,7,-0.28,-0.84,-0.63
-330,-952,7,-0.21,-0.77,-0.63
-329,-952,7,-0.07,-0.77,-0.56
-330,-953,8,-0.07,-0.77,-0.56
-329,-952,8,-0.07,-0.77,-0.49
-329,-952,9,-0.14,-0.7,-0.42
-330,-952,8,-0.21,-0.7,-0.42
-328,-952,8,-0.14,-0.7,-0.35
-329,-953,8,-0.14,-0.7,-0.35
-329,-954,8,-0.21,-0.7,-0.28
-329,-953,8,-0.14,-0.7,-0.14
-329,-951,7,-0.07,-0.63,-0.14
-328,-952,7,0.0,-0.63,-0.07
-329,-952,8,-0.07,-0.63,-0.07
-330,-952,7,-0.14,-0.7,0.0
-329,-952,7,-0.07,-0.63,0.07
-329,-952,7,0.0,-0.63,0.07
-330,-951,8,0.0,-0.63,0.07
-330,-951,7,-0.07,-0.63,0.0
-330,-952,7,0.0,-0.63,-0.07
-330,-950,7,0.0,-0.7,-0.07
-331,-950,7,0.0,-0.77,-0.21
-329,-950,7,-0.07,-0.77,-0.21
-329,-950,7,-0.07,-0.77,-0.28
-329,-951,6,-0.14,-0.77,-0.35
-330,-952,7,-0.21,-0.77,-0.42
-329,-951,7,-0.14,-0.77,-0.49
-330,-952,7,-0.14,-0.77,-0.49
-329,-953,8,-0.14,-0.77,-0.42
-329,-953,8,-0.14,-0.84,-0.42
-330,-952,8,-0.07,-0.77,-0.35
-330,-953,8,-0.14,-0.77,-0.35
-329,-952,8,-0.07,-0.77,-0.28
-329,-951,8,-0.07,-0.77,-0.28
-329,-952,8,-0.07,-0.7,-0.21
-329,-951,7,-0.14,-0.7,-0.14
-329,-952,8,-0.14,-0.7,-0.14
-329,-952,8,-0.14,-0.7,-0.07
-329,-951,8,-0.14,-0.7,-0.07
-329,-952,8,-0.21,-0.7,-0.07
-329,-952,8,-0.14,-0.63,-0.07
-330,-950,8,-0.07,-0.7,-0.07
-329,-951,8,-0.07,-0.7,-0.14
-328,-951,7,-0.07,-0.7,-0.14
-329,-951,7,-0.07,-0.63,-0.14
-328,-950,7,-0.07,-0.7,-0.21
-328,-950,8,-0.21,-0.7,-0.28
-329,-949,7,-0.21,-0.63,-0.21
-328,-951,7,-0.28,-0.63,-0.28
-330,-953,8,-0.28,-0.56,-0.35
-329,-953,7,-0.28,-0.56,-0.28
-330,-954,7,-0.07,-0.56,-0.28
-329,-952,7,0.0,-0.56,-0.21
-329,-953,7,0.0,-0.56,-0.21
-330,-952,6,0.0,-0.56,-0.14
-329,-952,7,-0.07,-0.63,-0.14
-329,-952,7,-0.14,-0.63,-0.07
-329,-952,6,-0.14,-0.7,0.0
-329,-953,7,-0.14,-0.7,0.0
-328,-951,7,-0.07,-0.77,0.0
-329,-951,6,-0.07,-0.77,0.0
-329,-951,7,-0.14,-0.84,0.0
-330,-951,7,-0.14,-0.84,0.0
-330,-952,8,-0.07,-0.77,-0.07
-328,-951,7,0.0,-0.84,-0.14
-329,-951,8,-0.07,-0.84,-0.14
-329,-952,8,-0.07,-0.84,-0.14
-329,-952,8,0.0,-0.84,-0.21
-328,-952,9,0.07,-0.84,-0.21
-329,-952,8,0.0,-0.84,-0.21
-329,-950,8,0.0,-0.77,-0.28
-330,-952,7,-0.07,-0.84,-0.28
-329,-951,8,-0.21,-0.77,-0.28
-328,-952,7,-0.14,-0.7,-0.28
-328,-951,8,-0.14,-0.7,-0.28
-328,-951,8,-0.14,-0.7,-0.21
-329,-952,8,-0.14,-0.7,-0.14
-329,-951,7,-0.07,-0.63,-0.14
-329,-952,8,-0.07,-0.7,-0.14
-329,-953,7,-0.07,-0.63,0.0
-329,-953,7,0.0,-0.63,0.0
-329,-952,7,0.0,-0.63,0.07
-327,-952,7,0.07,-0.7,0.07
-328,-953,6,0.0,-0.7,0.07
-330,-953,6,0.07,-0.7,0.07
-331,-953,6,0.21,-0.77,0.14
-329,-952,6,0.35,-0.84,0.21
-328,-952,8,0.35,-0.84,0.14
-328,-950,7,0.28,-0.91,0.07
-329,-949,8,0.28,-0.98,0.0
-330,-949,8,0.14,-0.98,-0.07
-330,-949,7,0.0,-1.05,-0.14
-330,-948,8,-0.14,-1.05,-0.28
-329,-949,8,-0.14,-1.05,-0.35
-330,-949,10,-0.28,-0.98,-0.42
-329,-951,8,-0.49,-1.05,-0.42
-329,-953,8,-0.49,-0.98,-0.42
-328,-951,7,-0.42,-0.91,-0.42
-328,-951,9,-0.21,-0.91,-0.42
-329,-951,9,-0.21,-0.84,-0.42
-330,-949,9,-0.35,-0.84,-0.35
-329,-948,9,-0.56,-0.84,-0.35
-330,-950,10,-0.98,-0.77,-0.28
-329,-951,7,-1.4,-0.7,-0.28
-326,-949,7,-1.33,-0.7,-0.28
-329,-949,9,-1.75,-0.56,-0.28
-327,-954,8,-1.96,-0.63,-0.21
-328,-956,6,-1.75,-0.56,-0.21
-328,-955,5,-1.19,-0.56,-0.21
-329,-954,6,-0.7,-0.56,-0.21
-329,-950,5,-0.49,-0.56,-0.28
-328,-948,4,-0.49,-0.63,-0.28
-330,-947,4,-0.84,-0.63,-0.35
-329,-949,5,-1.33,-0.77,-0.35
-328,-950,5,-1.75,-0.77,-0.35
-327,-953,5,-1.75,-0.84,-0.42
-327,-953,4,-1.61,-0.84,-0.42
-328,-955,2,-1.26,-0.84,-0.42
-328,-954,5,-0.77,-0.84,-0.49
-329,-950,5,-0.56,-0.84,-0.49
-329,-948,4,-0.42,-0.98,-0.56
-330,-948,4,-0.77,-1.05,-0.56
-330,-950,4,-1.19,-1.05,-0.63
-327,-952,4,-1.47,-0.98,-0.7
-326,-952,4,-1.61,-0.98,-0.77
-326,-953,4,-1.54,-0.98,-0.77
-324,-955,3,-1.33,-0.91,-0.84
-326,-956,4,-0.98,-0.77,-0.91
-327,-955,3,-0.63,-0.77,-0.91
-326,-955,2,-0.35,-0.7,-0.84
-327,-953,3,-0.14,-0.7,-0.84
-328,-953,2,-0.07,-0.7,-0.77
-329,-948,4,-0.14,-0.77,-0.7
-329,-949,3,-0.7,-0.84,-0.56
-326,-954,4,-1.26,-0.77,-0.35
-325,-951,4,-1.47,-0.7,0.07
-326,-959,4,-1.54,-0.63,0.63
-327,-961,3,-1.47,-0.7,0.14
-327,-955,2,-0.84,-0.63,0.14
-326,-955,3,-0.42,-0.56,0.28
-325,-953,2,-0.42,-0.63,0.35
-326,-952,2,-0.35,-0.49,0.42
-327,-952,1,-0.35,-0.49,0.28
-326,-949,1,-0.21,-0.42,0.14
-328,-948,1,-0.35,-0.42,0.14
-327,-949,0,-0.56,-0.56,0.0
-327,-950,0,-0.84,-0.63,-0.21
-328,-952,0,-0.84,-0.63,-0.35
-328,-951,0,-0.63,-0.7,-0.56
-329,-950,0,-0.56,-0.77,-0.63
-329,-953,0,-0.77,-0.91,-0.63
-327,-956,0,-0.7,-0.98,-0.7
-327,-954,0,-0.28,-1.05,-0.77
-328,-954,0,-0.07,-1.19,-0.7
-327,-953,0,-0.14,-1.26,-0.63
-326,-955,2,-0.21,-1.33,-0.49
-327,-955,0,-0.49,-1.47,-0.35
-324,-957,0,-0.35,-1.4,-0.21
-325,-957,2,-0.07,-1.26,-0.14
-326,-955,3,0.07,-1.26,0.07
-326,-954,3,0.0,-1.26,0.21
-326,-954,3,-0.07,-1.12,0.35
-326,-956,4,-0.07,-1.05,0.42
-324,-953,3,0.14,-0.91,0.49
-326,-951,4,0.35,-0.7,0.49
-328,-950,3,0.28,-0.7,0.42
-326,-950,3,0.14,-0.56,0.42
-326,-951,2,0.07,-0.49,0.28
-327,-950,1,0.21,-0.35,0.14
-330,-950,1,0.28,-0.28,0.07
-329,-949,1,0.07,-0.28,0.0
-327,-948,2,-0.14,-0.21,-0.14
-328,-948,2,-0.28,-0.21,-0.21
-328,-950,2,-0.42,-0.14,-0.42
-328,-951,2,-0.42,-0.14,-0.49
-327,-953,0,-0.49,-0.21,-0.56
-326,-953,0,-0.49,-0.28,-0.49
-327,-952,0,-0.42,-0.28,-0.63
-328,-951,0,-0.35,-0.35,-0.7
-329,-954,0,-0.56,-0.42,-0.56
-327,-953,0,-0.42,-0.49,-0.56
-327,-952,0,-0.21,-0.56,-0.63
-328,-952,0,-0.35,-0.63,-0.56
-327,-953,0,-0.42,-0.7,-0.56
-326,-953,0,-0.42,-0.77,-0.56
-327,-954,0,-0.35,-0.7,-0.56
-325,-956,0,-0.28,-0.7,-0.49
-325,-955,1,-0.14,-0.7,-0.42
-325,-956,1,0.07,-0.7,-0.35
-325,-955,0,0.21,-0.63,-0.35
-325,-955,0,0.42,-0.63,-0.28
-325,-954,0,0.63,-0.56,-0.35
-326,-952,0,0.77,-0.56,-0.28
-326,-953,1,0.63,-0.63,-0.35
-327,-952,0,0.56,-0.7,-0.35
-327,-951,1,0.56,-0.63,-0.35
-326,-951,1,0.42,-0.7,-0.42
-328,-952,2,0.14,-0.7,-0.35
-327,-953,2,0.07,-0.7,-0.35
-328,-954,1,0.14,-0.77,-0.35
-327,-955,1,0.07,-0.77,-0.21
-327,-955,2,0.14,-0.77,-0.07
-326,-954,2,0.07,-0.84,0.0
-325,-954,2,0.07,-0.77,0.07
-326,-955,2,0.14,-0.77,0.21
-325,-954,1,0.14,-0.7,0.28
-325,-953,0,0.42,-0.7,0.28
-326,-952,1,0.49,-0.77,0.28
-326,-952,1,0.42,-0.77,0.28
-325,-951,2,0.42,-0.77,0.28
-325,-951,1,0.28,-0.84,0.21
-327,-952,1,0.21,-0.84,0.14
-326,-953,1,0.21,-0.91,0.07
-326,-952,2,0.42,-0.91,-0.07
-324,-952,1,0.63,-0.91,-0.14
-325,-952,2,0.77,-0.84,-0.28
-326,-952,1,0.91,-0.91,-0.35
-328,-949,1,0.98,-0.98,-0.49
-327,-949,2,1.12,-0.98,-0.63
-329,-949,2,0.91,-1.05,-0.7
-327,-949,2,0.63,-1.12,-0.77
-327,-949,3,0.35,-1.12,-0.84
-327,-951,4,-0.07,-1.19,-0.7
-326,-953,3,-0.35,-1.19,-0.7
-326,-954,4,-0.42,-1.12,-0.63
-326,-956,5,-0.49,-1.12,-0.49
-325,-957,4,-0.35,-1.05,-0.35
-324,-956,4,-0.14,-0.98,-0.21
-324,-955,4,0.0,-0.91,-0.07
-325,-955,4,0.07,-0.84,0.07
-325,-954,4,0.07,-0.7,0.21
-323,-954,4,0.07,-0.7,0.21
-326,-952,5,0.0,-0.63,0.28
-326,-952,5,-0.14,-0.56,0.28
-326,-951,4,-0.21,-0.63,0.28
-327,-951,3,-0.28,-0.56,0.21
-325,-952,3,-0.35,-0.56,0.14
-326,-954,2,-0.28,-0.56,0.0
-326,-952,2,-0.07,-0.56,0.0
-327,-951,1,0.07,-0.63,-0.14
-328,-952,0,0.07,-0.7,-0.14
-329,-953,0,0.14,-0.91,-0.21
-329,-953,-1,0.21,-1.19,-0.28
-328,-952,-1,0.21,-1.4,-0.35
-328,-951,0,0.07,-1.54,-0.35
-328,-950,2,-0.21,-1.75,-0.35
-328,-952,2,-0.49,-1.82,-0.28
-325,-954,4,-0.84,-1.82,-0.21
-324,-955,5,-0.84,-1.75,-0.14
-324,-957,6,-0.56,-1.68,-0.07
-323,-956,6,-0.28,-1.61,0.07
-324,-957,6,0.07,-1.47,0.21
-325,-956,7,0.28,-1.33,0.35
-323,-955,6,0.28,-1.12,0.42
-325,-954,6,0.21,-0.98,0.63
-325,-952,6,0.21,-0.77,0.7
-325,-951,6,0.07,-0.7,0.77
-326,-952,4,0.14,-0.56,0.7
-326,-952,5,0.14,-0.42,0.7
-327,-951,4,0.21,-0.35,0.63
-326,-950,4,0.28,-0.28,0.56
-328,-949,4,0.21,-0.28,0.35
-328,-950,2,0.21,-0.28,0.21
-329,-950,2,0.21,-0.28,0.0
-329,-950,3,0.28,-0.35,-0.21
-330,-949,2,0.42,-0.49,-0.42
-328,-950,2,0.42,-0.63,-0.63
-329,-950,2,0.35,-0.7,-0.77
-328,-950,2,0.21,-0.84,-0.91
-327,-952,3,0.14,-0.91,-0.98
-327,-952,4,0.0,-0.91,-0.98
-327,-953,3,-0.07,-1.05,-1.05
-326,-954,4,-0.14,-1.12,-0.98
-326,-957,4,-0.07,-1.12,-0.84
-326,-957,4,0.07,-1.19,-0.77
-326,-956,2,0.28,-1.26,-0.56
-325,-956,4,0.35,-1.26,-0.35
-327,-953,4,0.35,-1.33,-0.21
-327,-954,5,0.28,-1.4,0.0
-326,-953,6,0.07,-1.4,0.14
-327,-953,7,-0.14,-1.4,0.21
-326,-953,6,-0.28,-1.19,0.35
-325,-952,6,-0.14,-1.26,0.21
-325,-953,9,-0.21,-0.98,0.28
-325,-950,9,-0.35,-0.84,0.28
-326,-951,9,-0.35,-0.7,0.35
-324,-951,9,-0.49,-0.42,0.35
-324,-953,8,-0.49,-0.21,0.35
-325,-952,8,-0.42,0.0,0.35
-326,-952,6,-0.42,0.14,0.35
-326,-952,7,-0.49,0.35,0.42
-326,-951,6,-0.49,0.42,0.42
-327,-953,4,-0.49,0.49,0.42
-327,-954,3,-0.49,0.56,0.49
-328,-955,2,-0.35,0.49,0.42
-330,-954,1,-0.21,0.35,0.42
-330,-952,0,0.07,0.21,0.42
-330,-952,-1,0.14,0.0,0.35
-329,-952,0,-0.07,-0.28,0.28
-330,-950,-1,-0.14,-0.49,0.14
-329,-948,-1,-0.14,-0.77,0.07
-330,-949,-1,-0.35,-1.05,-0.14
-330,-951,0,-0.42,-1.26,-0.28
-330,-951,0,-0.35,-1.47,-0.49
-329,-950,1,-0.28,-1.61,-0.63
-328,-950,2,-0.21,-1.75,-0.84
-327,-951,3,-0.21,-1.89,-0.91
-327,-953,4,-0.35,-1.89,-1.05
-327,-952,5,-0.35,-1.82,-1.05
-326,-952,6,-0.28,-1.68,-1.05
-323,-953,8,-0.28,-1.54,-1.05
-323,-955,9,-0.28,-1.33,-1.05
-322,-955,9,-0.21,-0.98,-0.91
-322,-955,9,-0.21,-0.7,-0.77
-323,-956,9,-0.07,-0.42,-0.63
-322,-955,9,0.0,-0.07,-0.56
-323,-955,9,0.21,0.21,-0.49
-325,-952,7,0.21,0.42,-0.35
-326,-953,5,-0.07,0.56,-0.21
-327,-955,4,-0.14,0.63,-0.14
-326,-955,2,0.0,0.7,-0.07
-326,-955,0,0.21,0.63,-0.07
-329,-953,0,0.42,0.42,-0.07
-330,-952,0,0.49,0.28,-0.07
-328,-949,-1,0.42,0.0,-0.14
-328,-948,0,0.14,-0.28,-0.28
-329,-949,1,-0.28,-0.49,-0.35
-327,-949,2,-0.7,-0.63,-0.42
-325,-949,2,-0.98,-0.7,-0.56
-323,-951,3,-1.12,-0.7,-0.63
-323,-955,3,-1.19,-0.63,-0.77
-323,-956,5,-0.98,-0.56,-0.77
-323,-955,6,-0.63,-0.42,-0.77
-321,-955,5,-0.28,-0.28,-0.63
-324,-956,6,-0.14,-0.14,-0.56
-323,-955,5,0.07,0.07,-0.49
-324,-954,5,0.28,0.28,-0.35
-324,-956,4,0.14,0.42,-0.21
-324,-955,4,0.07,0.49,-0.07
-324,-955,5,0.21,0.63,0.07
-324,-955,2,0.21,0.7,0.07
-323,-955,3,0.21,0.84,0.14
-325,-955,1,0.35,0.84,0.35
-325,-953,2,0.49,0.77,0.35
-327,-953,1,0.42,0.7,0.49
-326,-954,0,0.56,0.56,0.49
-327,-953,0,0.49,0.42,0.49
-328,-953,0,0.49,0.28,0.42
-328,-953,0,0.35,0.14,0.49
-327,-951,0,0.14,-0.07,0.56
-329,-954,0,0.07,-0.28,0.56
-328,-954,0,0.14,-0.49,0.49
-328,-954,-1,0.21,-0.77,0.49
-327,-955,-2,0.35,-0.98,0.56
-329,-954,-1,0.42,-1.12,0.56
-328,-952,0,0.49,-1.33,0.56
-328,-951,0,0.42,-1.54,0.56
-329,-951,0,0.35,-1.82,0.49
-329,-952,1,0.21,-1.89,0.49
-328,-952,1,0.14,-2.03,0.49
-327,-952,2,0.14,-2.1,0.42
-327,-953,2,0.21,-2.17,0.42
-327,-952,3,0.42,-2.17,0.35
-328,-953,4,0.49,-2.17,0.42
-327,-951,5,0.56,-2.17,0.35
-327,-951,6,0.56,-2.17,0.35
-326,-951,7,0.56,-2.03,0.28
-328,-950,7,0.56,-1.96,0.14
-327,-949,7,0.56,-1.89,0.07
-327,-949,8,0.49,-1.68,0.0
-327,-949,8,0.21,-1.54,-0.14
-326,-949,8,0.07,-1.4,-0.21
-327,-949,7,0.0,-1.26,-0.28
-328,-952,8,-0.21,-1.12,-0.35
-327,-950,8,-0.14,-0.98,-0.35
-326,-952,9,-0.14,-0.77,-0.35
-325,-953,9,-0.14,-0.63,-0.35
-325,-952,7,0.07,-0.49,-0.42
-326,-952,6,0.21,-0.35,-0.42
-328,-952,5,0.28,-0.28,-0.42
-327,-952,6,0.28,-0.21,-0.49
-328,-950,6,0.21,-0.28,-0.49
-328,-950,6,0.0,-0.21,-0.49
-328,-952,6,-0.21,-0.21,-0.49
-327,-952,6,-0.35,-0.21,-0.49
-327,-952,5,-0.42,-0.14,-0.49
-328,-952,5,-0.35,-0.21,-0.49
-326,-953,5,-0.14,-0.21,-0.49
-326,-954,4,-0.07,-0.21,-0.49
-327,-954,4,0.0,-0.28,-0.42
-327,-953,5,0.0,-0.28,-0.42
-326,-953,4,-0.14,-0.28,-0.35
-326,-953,4,-0.21,-0.28,-0.35
-327,-954,5,-0.28,-0.28,-0.28
-326,-955,4,-0.35,-0.28,-0.21
-326,-955,4,-0.14,-0.35,-0.14
-327,-955,4,-0.07,-0.35,0.0
-328,-953,4,0.0,-0.35,0.07
-327,-954,5,0.0,-0.35,0.21
-326,-953,5,-0.14,-0.35,0.28
-327,-953,6,-0.21,-0.28,0.35
-327,-955,5,-0.21,-0.21,0.35
-326,-954,5,-0.07,-0.28,0.35
-326,-952,4,0.07,-0.21,0.42
-328,-952,4,0.14,-0.21,0.35
-329,-951,4,0.21,-0.21,0.35
-329,-950,4,0.14,-0.28,0.35
-329,-950,3,-0.07,-0.28,0.35
-329,-951,2,-0.21,-0.35,0.28
-329,-951,2,-0.14,-0.49,0.21
-330,-952,2,-0.07,-0.63,0.14
-329,-954,-1,0.0,-0.77,0.0
-327,-955,4,0.42,-0.84,-0.14
-331,-950,5,0.49,-0.98,-0.07
-331,-948,5,0.14,-1.12,0.0
-328,-950,5,-0.28,-1.12,-0.07
-326,-953,4,-0.35,-1.12,-0.21
-327,-952,5,-0.14,-1.12,-0.21
-327,-951,5,0.0,-1.12,-0.28
-326,-953,6,0.07,-1.05,-0.28
-327,-952,6,0.07,-0.98,-0.35
-326,-950,7,0.14,-0.91,-0.42
-327,-950,8,0.07,-0.77,-0.49
-328,-950,7,-0.14,-0.7,-0.56
-327,-952,7,-0.28,-0.56,-0.56
-327,-952,7,-0.35,-0.42,-0.56
-327,-953,7,-0.35,-0.28,-0.49
-326,-953,6,-0.28,-0.21,-0.42
-326,-953,5,-0.14,-0.21,-0.42
-327,-955,4,-0.07,-0.21,-0.35
-329,-956,3,-0.07,-0.35,-0.21
-328,-956,3,0.07,-0.42,-0.07
-329,-953,2,0.07,-0.49,0.14
-329,-954,3,-0.07,-0.56,0.28
-328,-954,3,-0.14,-0.7,0.35
-329,-954,2,-0.14,-0.77,0.42
-328,-953,3,-0.14,-0.91,0.49
-328,-953,3,0.0,-0.98,0.56
-329,-952,3,0.0,-1.12,0.49
-328,-951,4,0.0,-1.12,0.56
-328,-950,5,0.0,-1.12,0.42
-328,-950,4,0.0,-1.19,0.35
-328,-950,6,0.0,-1.19,0.21
-327,-950,6,-0.07,-1.19,0.07
-327,-949,7,0.0,-1.12,-0.07
-326,-951,6,0.14,-0.98,-0.14
-327,-952,7,0.14,-0.91,-0.35
-328,-951,7,0.21,-0.84,-0.42
-327,-952,7,0.21,-0.7,-0.42
-327,-952,7,0.21,-0.63,-0.42
-327,-953,7,0.21,-0.56,-0.42
-328,-953,6,0.28,-0.56,-0.42
-328,-954,5,0.42,-0.49,-0.35
-328,-953,4,0.35,-0.49,-0.28
-327,-952,6,0.28,-0.49,-0.21
-329,-953,5,0.14,-0.56,-0.14
-327,-955,4,0.14,-0.63,0.0
-329,-956,4,0.21,-0.56,0.0
-328,-956,4,0.35,-0.56,0.07
-326,-955,6,0.49,-0.63,0.14
-328,-954,5,0.7,-0.63,0.28
-330,-953,5,0.7,-0.7,0.42
-330,-952,4,0.63,-0.77,0.42
-328,-951,4,0.63,-0.84,0.35
-328,-949,3,0.63,-0.98,0.35
-331,-950,4,0.35,-1.05,0.35
-330,-951,5,0.07,-1.12,0.35
-329,-951,6,-0.07,-1.19,0.42
-328,-949,6,-0.07,-1.19,0.35
-328,-949,8,-0.14,-1.19,0.35
-329,-954,9,-0.42,-1.19,0.42
-327,-957,8,-0.35,-1.12,0.56
-327,-956,8,0.07,-0.98,0.7
-328,-954,7,0.35,-0.91,0.84
-328,-954,9,0.35,-0.84,0.98
-328,-953,8,0.28,-0.77,1.12
-328,-953,8,0.14,-0.63,1.19
-330,-953,9,0.0,-0.56,1.33
-330,-954,9,0.0,-0.56,1.4
-330,-952,8,0.07,-0.42,1.4
-330,-952,7,0.28,-0.42,1.4
-331,-950,6,0.49,-0.35,1.33
-332,-949,6,0.63,-0.35,1.26
-332,-946,6,0.7,-0.35,1.05
-333,-945,7,0.56,-0.42,0.91
-334,-944,6,0.35,-0.49,0.63
-332,-945,5,0.0,-0.56,0.42
-333,-946,5,-0.14,-0.56,0.21
-333,-947,5,-0.14,-0.63,-0.07
-333,-946,5,0.0,-0.77,-0.35
-331,-946,6,0.0,-0.84,-0.56
-334,-947,7,-0.14,-0.84,-0.84
-333,-948,7,-0.21,-0.91,-0.98
-332,-950,8,-0.35,-0.91,-1.05
-331,-951,8,-0.35,-0.91,-1.12
-331,-952,8,-0.35,-0.84,-1.05
-330,-954,8,-0.28,-0.84,-0.91
-330,-955,8,-0.14,-0.77,-0.84
-330,-955,8,-0.07,-0.7,-0.63
-331,-956,9,0.0,-0.7,-0.42
-331,-955,7,0.07,-0.63,-0.21
-331,-953,8,0.07,-0.56,0.0
-331,-953,7,0.07,-0.56,0.14
-332,-952,8,0.07,-0.56,0.28
-331,-952,7,0.0,-0.56,0.35
-331,-950,8,-0.07,-0.56,0.42
-330,-950,8,-0.14,-0.56,0.42
-332,-950,8,-0.21,-0.56,0.42
-332,-950,7,-0.21,-0.56,0.35
-331,-948,7,-0.21,-0.56,0.28
-332,-947,6,-0.21,-0.63,0.14
-332,-948,7,-0.14,-0.63,-0.07
-332,-949,6,-0.14,-0.63,-0.28
-331,-949,6,-0.14,-0.63,-0.42
-332,-949,6,-0.21,-0.7,-0.49
-332,-951,7,-0.14,-0.77,-0.56
-332,-952,6,-0.07,-0.77,-0.63
-331,-951,6,0.0,-0.84,-0.63
-331,-952,7,-0.07,-0.91,-0.7
-331,-951,6,-0.07,-0.91,-0.63
-332,-952,7,-0.21,-0.91,-0.63
-331,-952,7,-0.21,-0.98,-0.56
-330,-952,8,-0.28,-0.91,-0.49
-331,-953,7,-0.35,-0.91,-0.42
-330,-953,7,-0.28,-0.91,-0.28
-330,-954,8,-0.14,-0.84,-0.21
-329,-952,7,0.0,-0.77,-0.14
-330,-951,8,0.14,-0.77,-0.07
-330,-951,7,0.21,-0.77,-0.07
-330,-951,8,0.21,-0.7,-0.07
-331,-950,7,0.14,-0.63,-0.07
-331,-950,7,0.07,-0.63,0.0
-330,-951,7,0.0,-0.63,-0.14
-330,-949,6,0.0,-0.7,-0.21
-332,-950,7,-0.07,-0.7,-0.21
-331,-950,7,-0.14,-0.77,-0.28
-331,-953,7,-0.21,-0.77,-0.35
-332,-951,7,-0.14,-0.77,-0.28
-331,-952,8,-0.14,-0.84,-0.35
-331,-951,7,-0.07,-0.77,-0.28
-330,-951,7,-0.07,-0.77,-0.28
-330,-952,7,0.0,-0.77,-0.28
-330,-952,8,0.07,-0.77,-0.28
-330,-951,8,0.0,-0.77,-0.28
-330,-950,7,0.0,-0.77,-0.35
-331,-950,8,-0.07,-0.77,-0.28
-331,-951,7,-0.21,-0.77,-0.35
-331,-951,8,-0.14,-0.77,-0.28
-330,-951,7,-0.14,-0.7,-0.28
-330,-951,8,-0.14,-0.77,-0.28
-330,-952,8,-0.21,-0.77,-0.28
-329,-952,8,-0.21,-0.7,-0.28
-329,-951,8,-0.14,-0.7,-0.28
-330,-951,7,-0.07,-0.63,-0.21
-330,-951,7,-0.07,-0.63,-0.14
-330,-952,7,-0.14,-0.63,-0.14
-329,-952,7,-0.14,-0.63,-0.07
-330,-950,7,-0.21,-0.63,-0.07
-329,-951,8,-0.35,-0.63,-0.07
-329,-952,7,-0.42,-0.56,0.07
-330,-951,8,-0.35,-0.56,0.0
-331,-952,7,-0.21,-0.56,0.0
-331,-952,7,-0.14,-0.49,0.0
-330,-952,6,0.0,-0.56,0.0
-330,-951,6,0.0,-0.56,0.07
-331,-952,7,-0.07,-0.63,0.07
-330,-951,6,-0.07,-0.63,0.07
-330,-951,6,-0.14,-0.7,0.07
-331,-952,5,-0.14,-0.7,0.07
-331,-953,5,-0.07,-0.77,0.14
-332,-952,7,0.0,-0.84,0.07
-330,-952,7,-0.07,-0.84,0.14
-331,-951,7,-0.07,-0.91,0.14
-331,-951,7,-0.14,-0.98,0.14
-330,-952,7,-0.14,-0.98,0.14
-330,-952,7,-0.14,-0.98,0.21
-330,-953,8,0.0,-0.98,0.21
-330,-951,8,0.14,-0.98,0.14
-331,-951,7,0.14,-0.91,0.14
-332,-950,7,0.14,-0.91,0.14
-331,-950,7,0.14,-0.91,0.07
-332,-950,8,0.07,-0.91,0.0
-330,-948,7,0.0,-0.84,-0.07
-330,-949,8,-0.07,-0.84,-0.14
-331,-949,8,-0.14,-0.77,-0.21
-332,-950,8,-0.14,-0.7,-0.28
-331,-950,8,-0.21,-0.7,-0.35
-331,-950,8,-0.21,-0.7,-0.42
-331,-951,8,-0.14,-0.63,-0.49
-331,-950,7,-0.14,-0.56,-0.49
-330,-950,7,-0.14,-0.49,-0.49
-330,-951,7,-0.14,-0.56,-0.49
-330,-952,7,-0.14,-0.56,-0.49
-330,-951,8,-0.14,-0.56,-0.49
-331,-950,7,-0.28,-0.63,-0.49
-331,-952,7,-0.35,-0.63,-0.49
-332,-953,6,-0.42,-0.63,-0.42
-331,-952,7,-0.35,-0.7,-0.42
-330,-952,6,-0.21,-0.7,-0.35
-330,-952,6,-0.14,-0.7,-0.35
-331,-952,7,-0.14,-0.77,-0.35
-330,-952,7,-0.07,-0.77,-0.35
-330,-950,7,-0.14,-0.77,-0.35
-329,-950,7,-0.14,-0.77,-0.42
-330,-950,6,-0.07,-0.77,-0.42
-330,-950,6,-0.07,-0.84,-0.49
-330,-950,7,-0.07,-0.84,-0.56
-329,-950,7,-0.14,-0.84,-0.7
-330,-949,6,-0.21,-0.84,-0.77
-331,-950,6,-0.21,-0.84,-0.84
-330,-951,6,-0.28,-0.84,-0.91
-329,-951,7,-0.28,-0.91,-0.98
-328,-951,7,-0.21,-0.84,-0.98
-328,-953,7,-0.21,-0.91,-0.98
-327,-952,6,-0.14,-0.84,-0.98
-328,-954,6,-0.14,-0.84,-0.91
-328,-954,6,-0.21,-0.91,-0.91
-328,-954,7,-0.14,-0.91,-0.77
-328,-955,7,-0.21,-0.84,-0.56
-329,-955,9,-0.21,-0.84,-0.35
-329,-956,8,-0.21,-0.84,-0.14
-327,-956,7,-0.14,-0.77,0.07
-327,-955,8,-0.07,-0.7,0.21
-327,-955,7,0.0,-0.7,0.35
-327,-953,8,0.14,-0.63,0.42
-328,-952,7,0.14,-0.56,0.49
-329,-950,7,0.14,-0.56,0.56
-330,-949,7,0.07,-0.63,0.42
-330,-949,7,0.0,-0.63,0.35
-330,-950,6,-0.07,-0.56,0.21
-330,-949,6,-0.07,-0.63,0.07
-330,-950,6,-0.14,-0.63,-0.07
-330,-950,7,-0.14,-0.7,-0.21
-329,-950,7,0.0,-0.7,-0.21
-329,-951,6,-0.14,-0.77,-0.28
-330,-951,6,-0.07,-0.77,-0.42
-330,-951,7,-0.07,-0.91,-0.42
-328,-952,6,-0.07,-0.91,-0.49
-328,-952,6,-0.07,-0.84,-0.49
-329,-953,8,0.0,-0.84,-0.42
-329,-952,7,0.0,-0.91,-0.42
-330,-953,7,-0.07,-0.91,-0.42
-329,-951,6,-0.07,-0.91,-0.35
-328,-952,8,-0.07,-0.91,-0.35
-328,-952,8,-0.14,-0.91,-0.28
-329,-952,7,-0.14,-0.84,-0.28
-328,-951,7,-0.14,-0.84,-0.28
-329,-952,8,-0.14,-0.77,-0.28
-329,-951,7,-0.07,-0.77,-0.28
-329,-950,8,0.0,-0.77,-0.28
-330,-951,8,-0.14,-0.77,-0.21
-329,-950,8,-0.21,-0.77,-0.21
-331,-950,8,-0.35,-0.77,-0.07
-329,-952,8,-0.77,-0.84,0.07
-329,-952,10,-1.12,-0.77,0.21
-329,-955,8,-1.47,-0.77,0.35
-327,-952,4,-1.4,-0.84,0.56
-327,-955,7,-1.68,-0.63,0.7
-327,-957,8,-1.61,-0.56,0.77
-327,-957,5,-1.19,-0.56,0.91
-327,-958,5,-0.7,-0.49,0.91
-329,-955,5,-0.21,-0.35,0.91
-329,-952,5,0.28,-0.42,0.91
-330,-949,5,0.49,-0.49,0.84
-330,-947,4,0.42,-0.49,0.7
-331,-945,4,0.21,-0.56,0.42
-332,-942,4,-0.07,-0.7,0.14
-331,-943,5,-0.42,-0.77,-0.14
-333,-945,3,-0.7,-0.91,-0.42
-331,-949,4,-0.98,-0.98,-0.63
-329,-949,4,-0.98,-1.05,-0.84
-329,-951,4,-0.84,-1.12,-0.98
-330,-953,4,-0.7,-1.05,-1.19
-330,-953,5,-0.49,-1.12,-1.19
-329,-955,5,-0.28,-1.12,-1.19
-329,-956,5,-0.21,-1.12,-1.05
-328,-956,5,-0.07,-0.98,-0.91
-328,-957,6,0.0,-1.05,-0.7
-328,-954,6,0.0,-0.98,-0.49
-329,-955,5,-0.28,-1.05,-0.21
-327,-958,6,-0.21,-0.98,-0.07
-327,-957,6,0.0,-0.84,0.14
-328,-955,7,0.21,-0.91,0.35
-329,-955,6,0.21,-0.84,0.56
-327,-954,6,0.21,-0.77,0.77
-328,-953,6,0.35,-0.77,0.77
-330,-950,6,0.49,-0.7,0.77
-330,-949,6,0.42,-0.7,0.7
-330,-948,6,0.42,-0.63,0.49
-330,-947,6,0.28,-0.63,0.35
-331,-947,6,0.21,-0.63,0.14
-331,-945,5,0.14,-0.63,-0.07
-331,-947,6,0.0,-0.7,-0.28
-331,-949,7,-0.07,-0.7,-0.56
-329,-948,6,-0.21,-0.7,-0.7
-330,-948,5,-0.21,-0.7,-0.84
-329,-950,7,-0.14,-0.7,-0.98
-329,-953,6,-0.21,-0.7,-0.98
-329,-953,5,-0.14,-0.63,-0.98
-328,-953,5,0.0,-0.63,-0.91
-328,-953,5,-0.07,-0.63,-0.91
-328,-952,5,-0.07,-0.7,-0.84
-329,-952,5,-0.14,-0.7,-0.77
-330,-954,6,-0.28,-0.7,-0.63
-329,-954,5,-0.35,-0.7,-0.49
-329,-954,5,-0.28,-0.7,-0.42
-328,-956,6,-0.21,-0.7,-0.28
-328,-956,6,-0.14,-0.7,-0.21
-328,-954,6,0.07,-0.7,-0.07
-329,-952,5,0.21,-0.7,0.0
-330,-953,6,0.14,-0.7,0.14
-328,-953,6,0.07,-0.7,0.14
-330,-951,5,0.07,-0.7,0.14
-330,-949,6,-0.07,-0.77,0.14
-330,-951,6,-0.28,-0.77,0.21
-329,-952,6,-0.49,-0.77,0.28
-327,-953,5,-0.56,-0.77,0.28
-327,-953,5,-0.42,-0.7,0.21
-329,-954,5,-0.21,-0.77,0.21
-329,-952,6,-0.14,-0.7,0.21
-329,-953,6,0.0,-0.7,0.21
-329,-951,5,0.07,-0.7,0.07
-329,-950,6,0.07,-0.63,0.0
-329,-948,5,0.0,-0.7,-0.14
-330,-949,5,-0.07,-0.7,-0.21
-332,-949,4,-0.14,-0.77,-0.28
-329,-951,5,-0.21,-0.77,-0.35
-329,-950,6,-0.21,-0.84,-0.42
-328,-949,6,-0.21,-0.84,-0.49
-329,-951,6,-0.35,-0.84,-0.49
-328,-954,5,-0.49,-0.84,-0.49
-328,-954,5,-0.28,-0.77,-0.49
-327,-953,5,-0.07,-0.77,-0.42
-328,-954,5,-0.07,-0.77,-0.28
-329,-954,5,0.07,-0.7,-0.21
-329,-953,5,0.07,-0.7,-0.14
-329,-953,5,0.14,-0.63,-0.07
-329,-953,5,0.21,-0.63,-0.07
-328,-953,5,0.14,-0.63,0.0
-329,-952,6,0.07,-0.63,0.07
-329,-951,5,0.07,-0.7,0.07
-329,-951,5,0.07,-0.7,0.0
-330,-951,5,0.0,-0.7,0.0
-329,-950,6,0.0,-0.77,0.0
-329,-951,6,0.0,-0.77,0.0
-328,-951,6,0.0,-0.77,-0.07
-329,-950,6,0.07,-0.77,-0.07
-329,-950,6,0.14,-0.7,-0.14
-328,-952,6,0.07,-0.63,-0.21
-329,-951,6,0.0,-0.7,-0.14
-329,-951,6,0.0,-0.7,-0.21
-329,-952,6,0.0,-0.63,-0.28
-327,-952,5,-0.07,-0.63,-0.28
-328,-952,6,-0.14,-0.63,-0.21
-328,-953,6,-0.21,-0.63,-0.21
-328,-954,5,-0.21,-0.63,-0.21
-328,-953,6,-0.14,-0.63,-0.14
-329,-953,5,0.0,-0.63,-0.14
-329,-952,5,0.07,-0.63,-0.07
-328,-952,5,0.07,-0.7,-0.07
-330,-953,5,0.0,-0.7,0.0
-329,-953,5,0.07,-0.7,0.0
-328,-951,5,0.0,-0.7,0.0
-329,-952,5,0.0,-0.77,0.0
-330,-951,6,0.07,-0.77,0.0
-327,-952,5,0.07,-0.77,0.0
-329,-951,5,0.07,-0.77,-0.07
-328,-952,5,0.14,-0.77,-0.14
-329,-950,5,0.07,-0.77,-0.14
-330,-950,6,0.07,-0.77,-0.14
-329,-949,6,0.0,-0.84,-0.28
-329,-950,6,0.0,-0.84,-0.35
-329,-952,6,0.0,-0.91,-0.35
-329,-951,6,0.0,-0.91,-0.42
-330,-952,6,0.0,-0.91,-0.42
-329,-953,7,-0.14,-0.84,-0.35
-328,-954,7,-0.14,-0.84,-0.28
-328,-953,7,-0.07,-0.77,-0.21
-328,-953,6,0.0,-0.7,-0.14
-328,-953,6,0.07,-0.7,-0.07
-328,-953,6,0.07,-0.63,-0.07
-328,-953,6,0.07,-0.63,-0.07
-327,-953,6,0.07,-0.63,-0.07
-329,-950,6,0.28,-0.56,-0.14
-330,-951,6,0.21,-0.63,-0.21
-329,-952,5,0.14,-0.63,-0.28
-329,-952,6,0.28,-0.56,-0.42
-329,-950,6,0.42,-0.63,-0.49
-330,-950,6,0.49,-0.7,-0.63
-330,-949,6,0.42,-0.77,-0.77
-329,-948,5,0.35,-0.84,-0.77
-330,-948,6,0.21,-0.91,-0.91
-330,-952,6,-0.14,-0.98,-0.84
-328,-954,7,-0.28,-1.05,-0.77
-328,-954,7,-0.21,-0.98,-0.7
-326,-954,7,-0.21,-0.91,-0.56
-327,-955,8,-0.28,-0.91,-0.42
-326,-956,8,-0.21,-0.77,-0.21
-327,-956,7,-0.07,-0.77,-0.14
-328,-955,8,0.21,-0.7,0.07
-327,-955,8,0.42,-0.63,0.21
-328,-954,8,0.28,-0.63,0.35
-328,-952,7,0.07,-0.56,0.42
-327,-953,7,-0.07,-0.56,0.49
-327,-951,6,0.0,-0.49,0.49
-328,-952,7,0.0,-0.56,0.56
-329,-950,6,0.14,-0.56,0.35
-329,-950,7,0.14,-0.56,0.35
-329,-949,6,0.07,-0.63,0.21
-329,-950,7,0.07,-0.63,0.07
-329,-949,7,0.0,-0.7,-0.07
-330,-951,6,-0.14,-0.63,-0.14
-329,-951,6,-0.07,-0.7,-0.21
-329,-951,6,-0.07,-0.77,-0.28
-328,-951,7,0.0,-0.77,-0.42
-328,-951,7,0.07,-0.77,-0.49
-329,-953,6,0.0,-0.84,-0.42
-328,-953,7,-0.07,-0.84,-0.42
-328,-952,7,-0.07,-0.84,-0.35
-329,-952,7,-0.14,-0.84,-0.35
-328,-952,8,-0.14,-0.91,-0.28
-328,-952,7,-0.14,-0.84,-0.21
-328,-953,8,-0.14,-0.84,-0.14
-327,-952,8,-0.14,-0.77,-0.14
-327,-952,8,-0.07,-0.77,-0.14
-327,-951,8,-0.07,-0.7,-0.07
-328,-951,8,-0.07,-0.7,-0.14
-328,-954,8,-0.14,-0.7,-0.07
-327,-953,6,-0.07,-0.63,-0.07
-328,-952,7,0.07,-0.56,0.0
-328,-951,6,0.14,-0.56,-0.07
-330,-951,6,0.14,-0.56,-0.07
-328,-950,6,0.07,-0.63,-0.07
-329,-951,7,-0.07,-0.63,-0.14
-329,-951,7,-0.14,-0.7,-0.21
-329,-950,7,-0.14,-0.7,-0.28
-329,-950,7,-0.21,-0.7,-0.28
-328,-951,6,-0.14,-0.7,-0.35
-328,-950,7,-0.07,-0.77,-0.49
-329,-953,8,-0.14,-0.77,-0.56
-326,-953,6,0.0,-0.84,-0.56
-328,-950,7,0.21,-0.77,-0.63
-328,-949,7,0.14,-0.77,-0.7
-328,-950,7,-0.14,-0.84,-0.77
-328,-953,7,-0.21,-0.84,-0.7
-329,-954,7,-0.14,-0.84,-0.7
-327,-953,7,-0.07,-0.84,-0.63
-327,-952,9,-0.07,-0.84,-0.63
-327,-952,8,-0.14,-0.84,-0.56
-329,-955,8,-0.28,-0.84,-0.56
-328,-955,7,-0.14,-0.84,-0.49
-326,-953,9,0.07,-0.77,-0.42
-325,-955,8,-0.07,-0.77,-0.28
-327,-953,8,-0.07,-0.7,-0.21
-327,-953,7,0.07,-0.7,-0.14
-327,-953,8,0.0,-0.63,-0.07
-326,-953,8,0.0,-0.63,0.0
-327,-951,8,0.0,-0.63,0.0
-327,-951,7,-0.14,-0.63,0.0
-327,-952,7,-0.14,-0.63,0.0
-328,-952,7,-0.14,-0.63,-0.14
-326,-950,7,-0.14,-0.63,-0.14
-327,-950,7,-0.14,-0.63,-0.21
-327,-950,7,-0.21,-0.63,-0.28
-328,-952,7,-0.28,-0.63,-0.35
-329,-953,6,-0.21,-0.63,-0.35
-327,-953,7,-0.07,-0.63,-0.35
-327,-953,7,0.0,-0.56,-0.42
-327,-952,7,0.0,-0.63,-0.42
-327,-952,7,0.0,-0.63,-0.42
-326,-953,8,0.0,-0.7,-0.42
-326,-953,7,0.0,-0.7,-0.35
-327,-954,7,-0.07,-0.7,-0.35
-326,-953,7,-0.07,-0.7,-0.28
-328,-954,8,-0.07,-0.77,-0.28
-327,-954,7,-0.14,-0.77,-0.14
-327,-954,7,-0.07,-0.77,-0.14
-327,-953,7,0.0,-0.7,-0.07
-327,-953,7,0.0,-0.7,-0.07
-326,-953,7,0.07,-0.77,0.0
-327,-953,7,0.07,-0.77,0.07
-327,-952,7,0.07,-0.77,0.07
-326,-951,7,0.07,-0.84,0.0
-328,-950,7,0.0,-0.77,-0.07
-325,-950,8,-0.07,-0.77,-0.07
-327,-951,8,-0.21,-0.77,-0.07
-326,-950,8,-0.28,-0.7,-0.21
-326,-953,7,-0.28,-0.7,-0.28
-325,-953,7,-0.21,-0.63,-0.35
-327,-952,8,-0.21,-0.63,-0.42
-326,-952,7,-0.14,-0.63,-0.42
-328,-954,7,-0.14,-0.63,-0.42
-326,-953,7,-0.14,-0.63,-0.42
-328,-954,7,-0.07,-0.63,-0.42
-328,-953,7,-0.14,-0.63,-0.35
-327,-953,7,-0.07,-0.7,-0.35
-327,-953,7,0.07,-0.7,-0.35
-327,-954,7,0.0,-0.63,-0.35
-325,-954,7,0.0,-0.63,-0.35
-326,-952,8,0.0,-0.63,-0.28
-326,-953,7,-0.07,-0.63,-0.21
-325,-953,8,-0.14,-0.63,-0.21
-326,-953,8,-0.21,-0.63,-0.21
-326,-953,6,-0.14,-0.56,-0.14
-325,-954,7,0.0,-0.56,-0.14
-327,-954,7,0.14,-0.63,-0.07
-327,-953,6,0.14,-0.63,-0.07
-326,-954,6,0.0,-0.63,-0.07
-328,-951,6,0.07,-0.7,-0.07
-327,-950,7,0.0,-0.7,-0.14
-327,-951,7,-0.21,-0.77,-0.21
-326,-953,7,-0.35,-0.77,-0.21
-327,-953,7,-0.28,-0.84,-0.28
-326,-953,8,-0.21,-0.84,-0.28
-326,-953,7,-0.07,-0.77,-0.35
-326,-952,7,0.0,-0.84,-0.35
-325,-952,7,-0.07,-0.77,-0.35
-325,-953,7,-0.07,-0.77,-0.42
-327,-953,7,-0.07,-0.77,-0.42
-326,-953,9,-0.14,-0.7,-0.42
-325,-954,7,-0.14,-0.77,-0.42
-326,-954,7,0.0,-0.77,-0.42
-327,-954,7,0.0,-0.7,-0.35
-326,-953,7,0.0,-0.77,-0.28
-326,-953,8,-0.07,-0.77,-0.28
-326,-953,8,-0.07,-0.7,-0.28
-326,-954,7,-0.07,-0.7,-0.21
-326,-952,7,-0.07,-0.7,-0.21
-325,-953,7,-0.07,-0.63,-0.21
-326,-952,7,-0.07,-0.7,-0.14
-326,-952,8,-0.07,-0.7,-0.21
-325,-953,7,-0.07,-0.63,-0.21
-326,-952,8,-0.07,-0.63,-0.14
-326,-953,7,-0.07,-0.63,-0.14
-325,-953,7,-0.07,-0.63,-0.14
-325,-953,7,-0.07,-0.63,-0.14
-326,-953,7,-0.07,-0.63,-0.21
-326,-952,7,-0.07,-0.63,-0.14
-326,-954,7,-0.07,-0.63,-0.21
-326,-953,6,0.0,-0.7,-0.14
-327,-953,6,0.0,-0.77,-0.14
-326,-954,6,0.0,-0.77,-0.14
-326,-954,7,0.0,-0.77,-0.07
-325,-953,8,-0.07,-0.77,-0.07
-325,-955,7,-0.07,-0.77,0.0
-325,-953,7,-0.07,-0.84,0.0
-326,-953,7,0.0,-0.84,0.07
-326,-953,7,0.0,-0.84,0.0
-327,-953,7,0.0,-0.84,0.07
-326,-953,7,0.07,-0.84,0.07
-326,-952,8,0.07,-0.84,0.0
-326,-953,8,0.0,-0.77,0.0
-326,-953,8,0.0,-0.84,0.0
-326,-952,8,0.07,-0.77,0.0
-326,-952,8,0.07,-0.77,0.0
-327,-952,8,0.0,-0.77,0.0
-325,-951,7,0.14,-0.77,-0.07
-327,-952,8,0.0,-0.77,-0.07
-325,-952,7,-0.14,-0.77,-0.14
-327,-952,8,-0.07,-0.77,-0.14
-326,-953,8,-0.21,-0.7,-0.21
-326,-951,8,-0.14,-0.7,-0.21
-327,-953,8,-0.14,-0.63,-0.28
-325,-952,7,-0.07,-0.63,-0.35
-326,-953,8,-0.07,-0.63,-0.35
-327,-953,7,0.0,-0.63,-0.28
-327,-953,8,-0.07,-0.63,-0.35
-326,-953,7,0.0,-0.63,-0.35
-325,-954,7,0.0,-0.63,-0.28
-326,-952,7,0.0,-0.63,-0.28
-326,-953,7,0.07,-0.7,-0.21
-326,-952,8,0.0,-0.63,-0.21
-325,-953,7,-0.14,-0.7,-0.21
-326,-953,7,-0.14,-0.7,-0.21
-326,-953,8,-0.21,-0.7,-0.21
-325,-953,8,-0.28,-0.7,-0.21
-326,-954,8,-0.35,-0.7,-0.21
-325,-954,8,-0.28,-0.63,-0.21
-326,-955,7,-0.21,-0.7,-0.21
-326,-956,7,0.0,-0.63,-0.07
-324,-955,7,0.14,-0.63,-0.07
-325,-955,6,0.28,-0.63,0.0
-326,-953,7,0.35,-0.63,0.0
-325,-952,7,0.21,-0.63,0.07
-328,-953,5,0.0,-0.7,0.07
-326,-949,11,0.0,-0.77,0.07
-330,-952,10,-0.56,-0.77,0.14
-321,-957,4,-0.35,-0.98,0.07
-327,-953,7,0.14,-0.77,-0.07
-329,-951,8,0.28,-0.84,-0.07
-324,-951,8,0.07,-0.84,0.0
-325,-952,8,-0.14,-0.91,-0.07
-327,-954,8,-0.07,-0.91,-0.14
-325,-953,8,0.0,-0.84,-0.21
-325,-953,9,-0.07,-0.84,-0.14
-326,-953,8,-0.07,-0.84,-0.14
-326,-953,8,0.07,-0.84,-0.14
-326,-953,8,0.14,-0.84,-0.14
-326,-953,8,0.14,-0.77,-0.14
-326,-952,7,0.07,-0.77,-0.14
-326,-952,8,-0.07,-0.77,-0.14
-326,-952,8,-0.14,-0.7,-0.14
-325,-952,8,-0.14,-0.7,-0.14
-326,-953,8,-0.14,-0.7,-0.21
-327,-952,8,-0.14,-0.7,-0.14
-327,-953,8,-0.07,-0.7,-0.21
-326,-953,8,-0.07,-0.63,-0.21
-326,-953,8,-0.07,-0.63,-0.21
-326,-952,8,0.0,-0.63,-0.28
-325,-952,7,-0.07,-0.63,-0.21
-324,-952,7,-0.07,-0.63,-0.21
-326,-953,8,-0.14,-0.63,-0.21
-325,-953,7,-0.14,-0.56,-0.21
-325,-953,8,-0.14,-0.63,-0.28
-326,-953,9,-0.07,-0.63,-0.21
-326,-953,8,-0.14,-0.63,-0.28
-326,-953,8,-0.14,-0.56,-0.21
-326,-953,8,-0.07,-0.63,-0.21
-326,-953,7,-0.14,-0.63,-0.14
-326,-953,7,-0.14,-0.7,-0.21
-325,-953,8,0.0,-0.7,-0.21
-325,-952,7,0.0,-0.7,-0.21
-326,-953,8,-0.07,-0.7,-0.28
-326,-952,7,-0.07,-0.7,-0.21
-325,-953,7,-0.14,-0.7,-0.28
-326,-952,7,-0.14,-0.7,-0.28
-326,-953,9,-0.14,-0.7,-0.28
-325,-954,7,-0.07,-0.77,-0.21
-325,-953,8,0.0,-0.7,-0.14
-326,-954,7,0.0,-0.7,-0.14
-325,-953,7,0.0,-0.77,-0.21
-325,-953,8,-0.07,-0.77,-0.21
-326,-954,7,-0.07,-0.77,-0.14
-325,-953,8,0.0,-0.77,-0.14
-326,-954,8,0.0,-0.77,-0.14
-326,-953,7,0.0,-0.77,-0.07
-326,-953,8,0.0,-0.77,-0.14
-326,-953,8,-0.07,-0.7,-0.07
-325,-954,7,-0.07,-0.7,-0.07
-325,-953,8,-0.07,-0.77,-0.07
-326,-953,9,0.0,-0.7,0.0
-326,-953,7,-0.07,-0.7,0.0
-326,-954,7,-0.07,-0.7,-0.07
-325,-951,7,0.0,-0.7,-0.07
-325,-953,7,0.0,-0.7,-0.07
-326,-953,7,-0.07,-0.7,-0.07
-325,-954,8,0.0,-0.7,-0.07
-327,-952,7,0.0,-0.77,-0.14
-326,-953,8,0.0,-0.7,-0.14
-326,-952,8,0.0,-0.7,-0.14
-324,-953,8,-0.07,-0.7,-0.14
-325,-953,8,-0.07,-0.7,-0.14
-327,-953,8,-0.07,-0.77,-0.21
-326,-952,9,-0.14,-0.7,-0.14
-325,-953,8,-0.21,-0.7,-0.07
-326,-954,8,-0.21,-0.7,-0.07
-325,-955,8,-0.07,-0.7,0.0
-325,-954,8,0.0,-0.63,0.0
-325,-953,8,0.0,-0.63,0.07
-326,-953,8,0.0,-0.63,0.07
-325,-953,7,0.07,-0.63,0.07
-325,-952,8,0.07,-0.63,0.14
-327,-953,8,0.0,-0.63,0.14
-326,-953,7,-0.07,-0.63,0.14
-327,-953,7,-0.07,-0.7,0.14
-327,-953,7,-0.07,-0.7,0.07
-326,-952,7,-0.14,-0.7,0.0
-325,-952,8,0.0,-0.77,0.0
-326,-952,7,0.0,-0.77,0.0
-325,-952,8,0.0,-0.77,-0.14
-326,-952,9,0.0,-0.77,-0.14
-327,-953,7,-0.07,-0.77,-0.14
-325,-954,8,0.0,-0.77,-0.21
-327,-953,7,0.0,-0.77,-0.21
-326,-953,8,0.07,-0.77,-0.21
-326,-953,8,0.07,-0.77,-0.21
-326,-952,8,0.07,-0.77,-0.28
-326,-953,8,0.0,-0.77,-0.21
-326,-953,8,-0.07,-0.84,-0.21
-326,-952,8,-0.07,-0.77,-0.21
-327,-954,7,-0.14,-0.7,-0.21
-326,-954,7,-0.14,-0.77,-0.14
-326,-953,8,-0.14,-0.77,-0.14
-325,-954,8,-0.07,-0.7,-0.14
-325,-953,9,0.0,-0.7,-0.07
-326,-953,7,0.0,-0.7,-0.07
-327,-953,9,0.0,-0.7,-0.07
-326,-953,8,0.0,-0.7,-0.07
-326,-953,9,0.0,-0.63,-0.07
-326,-952,7,0.0,-0.63,-0.07
-326,-953,8,-0.07,-0.63,-0.07
-327,-954,8,-0.14,-0.7,-0.07
-327,-954,8,-0.14,-0.7,-0.07
-327,-953,8,-0.07,-0.7,-0.07
-327,-953,8,-0.07,-0.7,-0.07
-327,-953,8,0.0,-0.7,-0.07
-326,-952,8,0.0,-0.7,-0.07
-326,-953,8,-0.07,-0.7,-0.14
-327,-952,8,-0.07,-0.7,-0.07
-326,-953,8,-0.14,-0.77,-0.14
-327,-953,8,-0.07,-0.77,-0.21
-326,-953,8,0.0,-0.7,-0.21
-325,-952,9,-0.07,-0.7,-0.21
-325,-955,9,-0.21,-0.77,-0.28
-325,-949,8,-0.07,-0.77,-0.28
-326,-955,9,-0.07,-0.7,-0.21
-326,-954,8,-0.14,-0.77,-0.28
-326,-953,8,0.0,-0.77,-0.21
-325,-953,9,-0.07,-0.77,-0.21
-326,-953,9,-0.07,-0.77,-0.21
-326,-953,8,-0.07,-0.77,-0.14
-326,-953,8,-0.07,-0.7,-0.14
-327,-954,8,-0.14,-0.7,-0.07
-325,-953,8,-0.07,-0.7,-0.07
