acc_x[mg],acc_y[mg],acc_z[mg],gyro_x[dps],gyro_y[dps],gyro_z[dps]
-94,-33,-1018,3.01,0.84,1.68
-94,-33,-1013,3.92,0.63,1.96
-96,-36,-1008,4.48,0.49,2.24
-100,-38,-1011,4.55,0.42,2.52
-99,-40,-1015,4.97,0.28,2.8
-95,-40,-1023,5.53,0.0,3.08
-93,-38,-1021,5.53,-0.49,3.08
-93,-38,-1020,4.62,-0.91,2.94
-86,-38,-1019,3.57,-1.47,2.52
-80,-42,-1020,2.87,-1.82,2.1
-81,-43,-1016,1.96,-2.17,1.82
-78,-42,-1015,1.19,-2.52,1.75
-73,-47,-1016,0.84,-2.94,1.61
-72,-49,-1014,1.19,-3.15,1.47
-79,-46,-1013,1.75,-3.36,1.26
-76,-41,-1007,1.96,-3.5,1.12
-71,-37,-1004,1.47,-3.29,1.05
-69,-37,-1002,0.98,-3.36,0.98
-64,-39,-996,0.42,-3.43,0.98
-61,-40,-997,0.14,-3.36,0.84
-59,-42,-1000,0.56,-3.36,0.7
-57,-41,-998,0.98,-3.43,0.56
-63,-37,-1000,0.7,-3.36,0.21
-64,-35,-1003,0.35,-3.5,-0.14
-61,-34,-1005,0.0,-3.78,-0.63
-60,-35,-1006,-0.77,-4.27,-1.19
-63,-33,-1011,-1.75,-4.69,-1.68
-65,-40,-1016,-2.38,-4.97,-2.1
-69,-42,-1011,-2.94,-5.53,-2.45
-71,-41,-1018,-3.57,-6.02,-2.8
-71,-41,-1022,-4.34,-6.16,-3.01
-81,-38,-1015,-5.04,-6.16,-3.29
-88,-38,-1013,-5.81,-6.09,-3.36
-91,-35,-1017,-5.74,-6.16,-3.43
-92,-36,-1012,-5.18,-6.3,-3.5
-100,-26,-1007,-4.13,-6.09,-3.43
-107,-24,-998,-2.45,-5.81,-3.15
-112,-20,-991,-0.7,-5.53,-2.8
-113,-14,-987,0.98,-5.04,-2.24
-116,-12,-980,2.66,-4.55,-1.61
-116,-11,-986,4.2,-3.92,-0.91
-115,-11,-983,6.16,-3.29,-0.07
-118,-10,-978,7.56,-2.31,0.63
-116,-15,-979,8.82,-1.33,1.33
-117,-21,-972,10.15,-0.42,2.17
-119,-30,-980,12.11,0.49,2.94
-118,-32,-983,14.14,1.05,3.57
-123,-29,-986,15.47,1.61,4.06
-130,-33,-987,15.75,2.03,4.69
-137,-36,-981,15.47,2.45,5.25
-129,-45,-987,15.75,2.94,5.88
-111,-53,-994,17.15,3.43,6.58
-99,-52,-997,18.27,3.85,7.07
-96,-50,-1004,18.9,3.99,7.35
-88,-41,-1013,18.62,3.57,7.21
-79,-37,-1020,17.36,2.94,6.86
-78,-37,-1032,14.42,2.24,6.37
-82,-41,-1034,10.01,1.4,5.53
-85,-53,-1031,5.04,0.42,4.55
-85,-72,-1029,-0.35,-0.77,3.57
-84,-84,-1033,-5.46,-1.75,2.73
-86,-106,-1031,-9.38,-2.17,2.1
-91,-123,-1021,-12.11,-2.45,1.54
-94,-135,-1008,-13.23,-2.73,0.91
-95,-144,-998,-13.23,-2.73,0.35
-90,-146,-996,-12.6,-2.59,-0.07
-85,-146,-995,-11.69,-2.17,-0.42
-86,-140,-990,-11.06,-1.68,-0.7
-86,-132,-988,-10.85,-1.26,-1.05
-84,-115,-1000,-10.5,-0.91,-1.47
-87,-94,-997,-10.22,-0.63,-1.82
-92,-77,-1002,-11.06,-0.42,-2.24
-91,-66,-1008,-13.02,-0.56,-2.87
-94,-59,-1012,-14.7,-0.77,-3.43
-95,-57,-1012,-16.03,-0.98,-3.92
-94,-52,-1016,-16.66,-1.05,-4.34
-94,-50,-1015,-16.73,-1.26,-4.62
-101,-43,-1011,-16.31,-1.47,-4.83
-104,-36,-1013,-15.4,-1.68,-4.76
-97,-28,-1009,-13.93,-2.03,-4.55
-95,-20,-1014,-12.18,-2.03,-4.2
-94,-9,-1013,-9.59,-2.31,-3.71
-95,1,-1013,-6.93,-2.38,-3.15
-97,10,-1005,-4.55,-2.31,-2.52
-105,15,-995,-2.8,-2.1,-1.96
-110,16,-992,-1.4,-1.96,-1.33
-112,16,-996,0.63,-1.89,-0.56
-109,25,-991,2.52,-1.61,0.14
-109,27,-980,3.71,-1.05,0.91
-104,22,-976,4.2,-0.42,1.68
-103,12,-983,5.6,0.28,2.45
-104,2,-980,7.21,0.98,3.08
-104,-4,-987,8.47,1.68,3.57
-101,-10,-993,9.38,2.1,4.06
-100,-13,-1003,10.22,2.38,4.55
-100,-14,-1004,10.57,2.31,4.83
-98,-20,-1007,10.01,2.31,4.9
-93,-26,-1013,9.1,2.03,4.97
-86,-33,-1020,8.54,1.54,4.83
-84,-41,-1018,7.35,1.19,4.62
-86,-51,-1019,5.95,0.84,4.34
-82,-62,-1015,4.83,0.42,3.92
-81,-68,-1016,3.92,0.21,3.36
-84,-75,-1012,3.22,0.07,2.94
-88,-77,-1009,2.52,0.0,2.52
-89,-82,-1006,2.03,-0.07,1.96
-89,-78,-1014,1.75,-0.21,1.26
-88,-73,-1011,1.4,-0.42,0.63
-89,-61,-1016,0.35,-0.63,0.07
-88,-50,-1015,-0.91,-0.84,-0.42
-91,-41,-1011,-2.73,-1.12,-0.91
-92,-39,-1007,-4.41,-1.33,-1.47
-93,-40,-1002,-5.95,-1.54,-2.03
-96,-43,-1001,-6.79,-1.47,-2.45
-99,-45,-1007,-6.79,-1.33,-2.73
-101,-40,-1013,-6.44,-1.33,-2.8
-100,-32,-1012,-6.3,-1.61,-2.94
-98,-26,-1008,-6.65,-1.82,-3.08
-95,-23,-1003,-7.14,-1.82,-3.22
-92,-23,-995,-7.63,-1.75,-3.36
-89,-27,-996,-7.7,-1.68,-3.29
-81,-24,-1002,-7.49,-1.61,-3.15
-81,-23,-1004,-6.72,-1.33,-3.01
-86,-22,-1005,-5.81,-1.19,-2.8
-89,-16,-1002,-4.97,-1.05,-2.73
-96,-13,-1000,-4.2,-0.91,-2.66
-102,-10,-1002,-3.64,-0.77,-2.52
-105,-11,-1001,-3.22,-0.7,-2.38
-102,-12,-1003,-2.73,-0.56,-2.1
-99,-19,-1000,-1.89,-0.42,-1.82
-98,-23,-1003,-0.91,-0.42,-1.47
-95,-23,-1004,0.84,-0.35,-0.98
-95,-22,-1002,2.52,-0.28,-0.56
-96,-20,-1005,3.71,-0.21,-0.28
-99,-20,-1003,4.27,-0.21,-0.07
-100,-23,-1003,4.48,-0.28,0.14
-99,-26,-1003,4.55,-0.35,0.21
-98,-29,-1004,4.97,-0.21,0.35
-97,-30,-1009,5.53,-0.14,0.56
-97,-30,-1008,6.02,-0.14,0.77
-96,-27,-1005,6.16,-0.14,0.84
-96,-30,-1003,5.81,-0.21,0.77
-96,-31,-999,5.04,-0.14,0.7
-96,-37,-1003,4.34,0.0,0.63
-96,-41,-1004,3.99,0.14,0.56
-99,-44,-1003,3.78,0.14,0.49
-100,-43,-1004,3.5,0.14,0.28
-101,-44,-1005,3.08,0.07,0.07
-97,-42,-1008,2.73,0.0,-0.14
-97,-38,-1005,2.03,0.0,-0.42
-94,-38,-1007,1.19,0.0,-0.63
-88,-41,-1009,0.35,-0.28,-0.84
-88,-42,-1008,-0.21,-0.35,-0.98
-90,-44,-1007,-0.28,-0.35,-1.05
-92,-42,-1002,-0.28,-0.28,-1.19
-91,-39,-1002,-0.28,-0.14,-1.33
-88,-37,-1005,0.0,0.0,-1.33
-89,-36,-1007,0.42,0.0,-1.26
-92,-32,-1008,0.49,-0.07,-1.19
-93,-31,-1008,0.63,-0.21,-1.05
-93,-32,-1003,0.28,-0.28,-1.05
-92,-32,-1005,0.42,-0.21,-0.98
-91,-34,-1001,0.91,-0.28,-0.77
-92,-38,-1007,1.33,-0.21,-0.49
-92,-39,-1008,2.17,-0.28,-0.28
-93,-38,-1005,3.01,-0.21,-0.14
-97,-36,-1005,3.43,-0.28,-0.07
-99,-36,-1003,3.5,-0.35,0.07
-98,-36,-1002,3.43,-0.42,0.21
-96,-38,-1001,3.43,-0.28,0.35
-94,-41,-999,3.29,-0.07,0.49
-95,-46,-1005,3.36,0.07,0.63
-95,-48,-1008,3.99,0.07,0.77
-97,-49,-1006,4.41,-0.14,0.77
-95,-51,-1009,4.55,-0.28,0.77
-96,-53,-1011,4.69,-0.28,0.84
-94,-55,-1014,5.18,-0.49,0.77
-94,-61,-1009,5.81,-0.7,0.84
-92,-67,-1006,6.09,-0.77,0.7
-96,-70,-1006,6.37,-0.7,0.63
-95,-72,-1007,7.0,-0.98,0.49
-87,-65,-1006,6.86,-1.33,0.49
-86,-53,-1011,6.44,-1.26,0.28
-82,-49,-1007,4.83,-1.54,0.14
-78,-39,-1013,2.1,-1.82,-0.21
-78,-37,-1013,-0.28,-2.17,-0.49
-78,-40,-1011,-2.59,-2.52,-0.77
-81,-45,-1018,-4.2,-2.73,-0.98
-84,-48,-1011,-5.39,-3.01,-1.05
-86,-53,-1011,-5.95,-3.29,-1.05
-89,-58,-1004,-6.09,-3.29,-1.05
-91,-57,-997,-5.39,-3.15,-0.91
-92,-59,-991,-4.06,-2.8,-0.7
-93,-55,-988,-2.94,-2.24,-0.28
-93,-57,-991,-1.68,-1.61,0.14
-93,-59,-988,-1.26,-1.19,0.49
-97,-53,-992,-0.91,-0.77,0.7
-100,-51,-996,-0.35,-0.35,0.91
-102,-47,-998,-0.35,0.0,0.98
-101,-46,-998,-0.7,0.28,1.05
-99,-46,-1001,-1.26,0.42,1.05
-93,-47,-1005,-1.47,0.42,0.98
-95,-51,-1004,-1.82,0.35,0.84
-92,-50,-1012,-2.17,0.21,0.77
-93,-52,-1008,-2.1,0.14,0.7
-102,-51,-999,-2.17,0.14,0.7
-96,-49,-1011,-1.75,0.07,0.7
-93,-48,-1007,-1.61,0.21,0.84
-103,-40,-1009,-1.61,0.21,0.98
-101,-41,-1013,-1.26,-0.28,0.98
-98,-31,-1014,-1.54,-0.7,0.91
-99,-30,-1012,-1.33,-0.77,0.98
-100,-33,-1009,-1.26,-0.98,0.91
-100,-31,-1008,-0.98,-1.05,0.77
-100,-33,-1003,-0.49,-1.19,0.77
-98,-38,-1005,-0.21,-1.26,0.77
-97,-41,-1008,0.35,-1.26,0.84
-94,-42,-1015,1.05,-1.33,0.91
-94,-40,-1016,1.89,-1.47,0.84
-94,-36,-1013,1.82,-1.82,0.84
-92,-37,-1014,1.33,-2.03,0.63
-90,-40,-1013,0.91,-2.38,0.42
-91,-43,-1011,0.63,-2.59,0.14
-95,-47,-1006,0.42,-2.73,-0.14
-98,-51,-998,-0.21,-2.87,-0.35
-96,-49,-997,-0.49,-2.87,-0.63
-95,-50,-991,-0.49,-2.59,-0.77
-96,-45,-991,-0.49,-2.1,-0.77
-96,-44,-983,-0.07,-1.47,-0.63
-96,-40,-978,0.28,-0.7,-0.56
-94,-38,-985,0.77,0.21,-0.49
-93,-35,-992,1.4,0.77,-0.21
-94,-31,-997,1.68,1.05,-0.07
-91,-29,-1008,2.03,1.33,0.0
-90,-25,-1002,1.68,1.33,0.14
-91,-24,-1015,1.54,1.12,0.35
-85,-31,-1015,1.12,0.56,0.35
-86,-31,-1019,0.49,0.14,0.35
-86,-41,-1017,0.35,-0.42,0.49
-84,-48,-1019,0.77,-0.56,0.63
-85,-56,-1013,2.31,-0.63,0.84
-88,-58,-1006,4.13,-0.7,0.98
-90,-54,-1002,5.67,-0.56,0.98
-90,-50,-1003,6.51,-0.42,1.05
-93,-49,-1004,6.58,-0.42,0.98
-97,-48,-1000,5.74,-0.35,0.98
-98,-50,-1001,4.83,-0.28,0.84
-94,-54,-1004,4.06,-0.35,0.7
-94,-55,-1007,3.36,-0.42,0.56
-97,-54,-1007,2.59,-0.56,0.35
-99,-54,-1007,1.75,-0.63,0.14
-96,-57,-1006,0.84,-0.98,0.0
-95,-60,-1004,-0.07,-0.98,-0.14
-95,-60,-1009,-0.07,-1.05,-0.14
-93,-61,-1009,0.56,-1.19,-0.21
-96,-54,-1006,0.98,-1.19,-0.21
-96,-49,-1002,0.77,-1.19,-0.14
-92,-48,-1001,0.56,-1.19,-0.21
-91,-47,-1002,0.49,-1.12,-0.21
-94,-48,-1006,0.63,-0.98,-0.21
-96,-49,-1002,0.42,-0.98,-0.07
-101,-50,-1002,0.35,-0.91,-0.14
-100,-52,-1003,0.42,-0.91,-0.14
-96,-52,-1007,0.84,-0.84,0.0
-97,-55,-1007,1.19,-0.84,0.0
-95,-52,-1012,1.47,-1.19,0.07
-96,-52,-1006,0.91,-1.33,0.0
-97,-50,-1008,0.63,-1.47,-0.07
-94,-57,-1008,0.49,-1.61,-0.21
-97,-60,-1003,0.21,-1.61,-0.21
-100,-64,-1008,0.35,-1.54,-0.14
-96,-67,-1007,0.42,-1.68,-0.07
-93,-66,-1010,0.63,-1.68,-0.28
-92,-66,-1011,0.7,-1.68,-0.35
-95,-63,-1011,0.42,-1.82,-0.49
-93,-63,-1007,0.14,-2.1,-0.56
-93,-64,-1001,-0.7,-2.31,-0.63
-94,-69,-1003,-0.98,-2.24,-0.7
-95,-74,-1001,-0.63,-2.17,-0.56
-96,-69,-1006,0.28,-2.1,-0.56
-96,-62,-1007,0.91,-2.1,-0.63
-96,-52,-1005,0.42,-2.24,-0.63
-96,-45,-1007,-0.91,-2.38,-0.7
-92,-44,-1005,-2.24,-2.45,-0.84
-94,-45,-1001,-3.57,-2.45,-0.98
-98,-49,-1000,-4.55,-2.38,-1.05
-97,-55,-1002,-4.83,-2.24,-1.05
-96,-55,-999,-4.55,-2.1,-1.05
-98,-54,-995,-4.2,-1.89,-1.05
-99,-46,-994,-4.27,-1.61,-0.98
-98,-45,-994,-3.99,-1.33,-0.84
-95,-43,-994,-3.43,-0.98,-0.7
-96,-42,-995,-3.08,-0.63,-0.49
-100,-39,-998,-2.87,-0.21,-0.28
-99,-38,-1001,-2.52,-0.07,-0.21
-98,-36,-1006,-2.52,-0.14,-0.14
-100,-33,-1009,-2.59,-0.21,-0.07
-102,-35,-1006,-2.8,-0.28,-0.14
-102,-37,-1006,-3.01,-0.35,-0.14
-100,-41,-1006,-2.94,-0.49,-0.21
-100,-44,-1006,-2.31,-0.56,-0.07
-99,-45,-1003,-1.75,-0.49,0.07
-100,-42,-1006,-0.7,-0.49,0.28
-99,-43,-1004,0.07,-0.56,0.28
-99,-37,-1006,0.56,-0.56,0.35
-98,-35,-1002,0.77,-0.42,0.42
-98,-31,-998,0.56,-0.28,0.49
-99,-33,-995,0.14,-0.14,0.56
-102,-37,-990,-0.42,0.07,0.56
-104,-39,-1000,-0.63,0.28,0.56
-107,-44,-1001,-0.98,0.35,0.56
-108,-42,-1006,-1.26,0.35,0.49
-105,-43,-1005,-1.4,0.42,0.42
-104,-42,-1008,-1.4,0.28,0.35
-103,-42,-1007,-1.75,0.14,0.14
-102,-43,-1012,-2.24,0.07,0.0
-100,-46,-1009,-2.73,-0.07,-0.14
-100,-50,-1009,-2.8,-0.28,-0.35
-98,-53,-1010,-2.59,-0.42,-0.49
-98,-51,-1006,-2.1,-0.49,-0.49
-97,-45,-1007,-1.54,-0.49,-0.63
-96,-38,-1007,-1.26,-0.56,-0.84
-96,-32,-1003,-1.68,-0.63,-0.91
-94,-30,-1004,-2.24,-0.56,-0.98
-92,-33,-1004,-2.66,-0.56,-1.12
-93,-29,-1009,-2.66,-0.56,-1.12
-94,-31,-1007,-2.31,-0.63,-1.05
-96,-31,-1008,-2.1,-0.77,-0.98
-95,-32,-1006,-1.54,-0.91,-0.77
-94,-33,-1005,-0.56,-0.91,-0.63
-95,-35,-1003,0.35,-0.77,-0.42
-93,-37,-1005,1.19,-0.7,-0.21
-92,-38,-1004,2.17,-0.7,0.07
-93,-39,-1003,3.01,-0.63,0.28
-94,-40,-996,3.71,-0.49,0.49
-98,-39,-992,4.06,-0.21,0.63
-99,-41,-992,3.78,0.28,0.7
-100,-39,-990,2.94,0.63,0.63
-101,-42,-994,2.24,0.77,0.7
-97,-46,-1002,2.1,0.91,0.7
-94,-43,-1001,2.1,1.12,0.77
-97,-43,-1009,2.59,1.19,0.84
-94,-39,-1015,2.66,1.05,0.77
-95,-39,-1014,2.24,0.7,0.7
-95,-38,-1021,1.47,0.35,0.49
-94,-38,-1016,0.56,0.0,0.21
-93,-42,-1009,-0.42,-0.35,0.07
-93,-45,-1012,-1.19,-0.49,-0.07
-94,-48,-1010,-1.26,-0.7,-0.14
-97,-48,-1007,-1.05,-0.84,-0.07
-98,-48,-1009,-0.28,-0.91,-0.14
-97,-44,-1005,0.21,-0.91,-0.14
-100,-41,-1005,0.28,-0.91,-0.07
-100,-39,-1005,0.21,-0.91,-0.14
-98,-37,-1002,-0.07,-0.91,-0.14
-96,-39,-1001,-0.56,-0.84,-0.07
-96,-43,-1000,-1.12,-0.84,0.0
-96,-45,-1005,-1.19,-0.84,-0.07
-92,-49,-1005,-0.98,-0.91,-0.07
-93,-44,-1009,-1.33,-0.84,-0.07
-95,-42,-1009,-1.26,-0.91,0.0
-94,-41,-1007,-1.19,-1.05,-0.07
-93,-40,-1003,-1.33,-1.19,-0.14
-93,-42,-1003,-1.47,-1.12,-0.14
-94,-42,-1007,-1.61,-1.05,-0.14
-93,-44,-1004,-1.89,-1.12,0.0
-93,-42,-1006,-2.1,-1.05,-0.07
-89,-44,-1004,-1.89,-1.12,-0.14
-89,-39,-1003,-1.89,-1.05,-0.07
-91,-37,-1003,-1.75,-0.98,-0.07
-89,-37,-1005,-1.68,-0.98,0.0
-89,-35,-1006,-1.89,-0.91,0.0
-95,-36,-1003,-2.17,-0.84,0.07
-95,-38,-1008,-1.75,-0.84,0.0
-91,-39,-1001,-1.12,-0.77,0.0
-97,-34,-998,-1.05,-0.7,0.14
-96,-32,-1006,-0.77,-0.63,0.14
-94,-33,-1003,-1.12,-0.7,0.14
-97,-31,-1002,-1.54,-0.56,0.21
-98,-35,-1004,-1.26,-0.7,0.28
-97,-35,-1004,-0.91,-0.63,0.21
-99,-31,-1004,-0.42,-0.56,0.35
-97,-32,-1005,0.07,-0.49,0.42
-95,-31,-1003,0.14,-0.49,0.42
-96,-29,-1008,0.42,-0.49,0.35
-94,-32,-1008,0.98,-0.42,0.28
-95,-29,-1003,1.19,-0.42,0.35
-97,-28,-1005,1.4,-0.35,0.28
-95,-29,-1001,1.12,-0.35,0.21
-99,-28,-1001,0.7,-0.14,0.21
-100,-33,-1001,0.63,-0.07,0.21
-100,-36,-999,0.49,-0.14,0.14
-96,-36,-1010,0.77,-0.07,0.14
-96,-36,-1007,0.98,-0.21,0.21
-97,-34,-1008,0.84,-0.28,0.21
-93,-35,-1015,0.7,-0.56,0.14
-91,-35,-1013,0.35,-0.84,0.14
-92,-36,-1012,0.28,-0.98,0.07
-90,-37,-1009,0.28,-1.19,0.0
-89,-37,-1007,0.28,-1.33,0.0
-92,-41,-1005,0.35,-1.26,-0.07
-93,-42,-1004,0.35,-1.19,-0.07
-94,-42,-1008,0.7,-1.12,-0.07
-95,-41,-1004,0.98,-1.19,0.0
-95,-37,-1003,0.84,-1.05,0.0
-97,-34,-999,0.56,-1.05,0.0
-95,-36,-998,0.14,-0.91,0.0
-97,-38,-997,-0.07,-0.63,-0.07
-94,-38,-998,-0.14,-0.35,0.0
-92,-42,-1005,-0.07,-0.07,0.07
-92,-41,-1008,0.14,0.0,0.21
-94,-38,-1012,0.84,-0.14,0.21
-94,-40,-1012,1.33,-0.42,0.21
-96,-41,-1011,1.33,-0.77,0.07
-93,-42,-1007,1.33,-0.98,0.07
-95,-39,-1010,1.4,-1.12,0.14
-96,-39,-1011,1.54,-1.19,0.0
-96,-36,-1009,1.47,-1.33,0.0
-97,-33,-1006,1.19,-1.47,-0.07
-94,-32,-1003,1.12,-1.47,-0.21
-94,-30,-997,0.63,-1.33,-0.28
-96,-30,-996,0.0,-1.12,-0.21
-93,-35,-998,-0.42,-0.98,-0.21
-95,-37,-997,-0.7,-0.84,-0.07
-96,-39,-1001,-0.49,-0.56,0.07
-97,-43,-1002,0.14,-0.49,0.07
-98,-39,-1004,0.91,-0.49,0.14
-97,-37,-1003,0.91,-0.42,0.14
-97,-32,-1003,0.35,-0.35,0.28
-96,-35,-1006,-0.07,-0.35,0.35
-92,-38,-1009,-0.21,-0.49,0.35
-93,-37,-1008,-0.35,-0.56,0.35
-94,-37,-1011,-0.28,-0.7,0.35
-93,-40,-1011,-0.56,-0.98,0.28
-93,-40,-1007,-0.98,-1.19,0.14
-93,-41,-1006,-1.19,-1.33,0.07
-91,-44,-1003,-1.19,-1.4,0.0
-95,-41,-1007,-0.98,-1.26,0.0
-96,-41,-1006,-0.42,-1.12,0.0
-99,-36,-1003,-0.42,-1.05,0.0
-99,-33,-1004,-0.63,-1.05,-0.07
-95,-34,-1003,-1.19,-1.12,-0.07
-96,-34,-1004,-1.61,-0.98,0.0
-96,-36,-1005,-1.68,-1.12,0.0
-96,-37,-1006,-1.54,-1.12,0.0
-99,-37,-1008,-1.05,-1.12,0.07
-97,-38,-1006,-0.35,-1.19,0.14
-96,-35,-1002,-0.35,-1.19,0.21
-97,-36,-1008,-0.35,-1.26,0.35
-93,-36,-1007,0.07,-1.33,0.42
-92,-33,-1003,0.28,-1.26,0.42
-94,-36,-1003,0.42,-1.12,0.49
-93,-37,-1002,0.77,-1.05,0.7
-96,-38,-1004,1.33,-1.05,0.77
-99,-33,-1007,1.82,-0.98,0.77
-99,-33,-1005,1.4,-1.05,0.77
-99,-33,-1010,0.77,-1.12,0.7
-99,-35,-1009,0.28,-1.26,0.7
-101,-37,-1005,-0.35,-1.33,0.56
-101,-41,-1002,-0.98,-1.4,0.56
-99,-44,-1002,-1.33,-1.26,0.56
-94,-45,-1005,-1.4,-1.12,0.63
-95,-43,-1001,-1.47,-1.12,0.77
-96,-42,-1001,-1.82,-0.91,0.77
-95,-43,-1004,-1.68,-0.7,0.7
-98,-42,-1001,-1.47,-0.63,0.7
-100,-39,-998,-1.82,-0.63,0.63
-98,-38,-1003,-2.1,-0.77,0.63
-96,-37,-1001,-2.66,-0.7,0.49
-98,-34,-1008,-2.87,-0.56,0.49
-95,-33,-1010,-3.01,-0.7,0.28
-97,-27,-1011,-3.5,-0.7,0.14
-98,-27,-1007,-4.2,-0.77,0.07
-96,-27,-1006,-4.9,-1.05,-0.07
-93,-31,-1003,-5.04,-1.05,-0.21
-96,-31,-1006,-5.11,-0.98,-0.14
-94,-31,-1007,-4.34,-0.91,-0.14
-94,-26,-1005,-3.36,-0.98,-0.14
-95,-19,-1006,-2.8,-0.98,-0.21
-94,-14,-1006,-2.8,-1.05,-0.21
-95,-12,-1003,-3.15,-1.19,-0.14
-94,-14,-1004,-2.94,-1.12,-0.21
-96,-18,-1002,-2.8,-0.98,-0.21
-102,-20,-1000,-2.38,-0.84,-0.07
-102,-23,-1003,-1.82,-0.7,0.0
-96,-22,-1007,-1.05,-0.7,0.07
-93,-18,-1009,-0.56,-0.7,0.21
-96,-16,-1008,0.0,-0.77,0.28
-95,-14,-1006,0.21,-0.84,0.21
-96,-15,-1002,0.35,-0.91,0.21
-98,-17,-1004,0.28,-0.98,0.14
-98,-21,-1005,0.35,-1.05,0.21
-100,-23,-1007,0.49,-0.84,0.21
-101,-27,-1005,0.91,-0.84,0.21
-101,-25,-1003,1.26,-0.77,0.21
-102,-23,-1004,1.4,-0.77,0.14
-103,-21,-1001,1.05,-0.84,0.07
-102,-20,-1001,0.56,-0.77,0.07
-96,-23,-1002,-0.07,-0.56,0.07
-97,-24,-1005,-0.56,-0.49,0.14
-97,-25,-1008,-0.28,-0.49,0.07
-96,-25,-1008,0.07,-0.56,0.0
-97,-22,-1006,0.21,-0.7,0.0
-98,-22,-1005,0.49,-0.77,0.07
-95,-22,-1006,0.56,-0.77,0.07
-96,-23,-1006,0.7,-0.7,0.21
-98,-23,-1007,0.77,-0.7,0.28
-99,-25,-1006,0.91,-0.84,0.14
-100,-26,-1006,0.77,-0.84,0.14
-102,-25,-1007,0.84,-0.84,0.14
-102,-27,-1005,1.26,-0.91,0.21
-101,-21,-1002,0.77,-0.91,0.14
-99,-21,-1004,0.56,-0.91,0.07
-97,-23,-1003,0.21,-0.91,0.0
-99,-25,-1001,0.14,-0.77,0.0
-97,-28,-1001,0.28,-0.56,0.07
-97,-27,-1001,0.63,-0.35,0.07
-101,-25,-999,0.91,-0.14,0.14
-104,-24,-1004,0.98,-0.07,0.14
-102,-21,-1006,0.91,-0.14,0.07
-100,-18,-1010,0.63,-0.21,0.0
-100,-18,-1008,0.28,-0.28,0.0
-99,-20,-1009,-0.28,-0.56,-0.07
-97,-25,-1012,-0.21,-0.77,0.0
-98,-25,-1012,0.21,-0.98,0.0
-98,-28,-1008,0.42,-1.12,0.07
-96,-29,-1009,0.56,-1.26,0.14
-96,-32,-1015,1.33,-1.33,0.14
-96,-28,-1011,1.82,-1.54,0.14
-96,-25,-1014,2.03,-1.61,0.14
-93,-25,-1010,1.82,-1.89,0.0
-96,-24,-1006,1.05,-2.03,-0.07
-95,-26,-1005,0.49,-2.1,0.0
-93,-30,-998,-0.07,-2.1,-0.07
-93,-34,-999,-0.21,-1.96,-0.14
-93,-35,-998,0.07,-1.82,-0.21
-96,-32,-997,0.0,-1.54,-0.21
-96,-28,-1002,0.21,-1.33,-0.07
-93,-26,-1000,-0.14,-1.19,-0.07
-95,-23,-996,-0.56,-0.98,0.0
-97,-25,-995,-1.19,-0.77,0.07
-96,-30,-997,-1.33,-0.63,0.07
-97,-30,-1000,-0.91,-0.35,0.14
-99,-30,-1000,-0.21,-0.07,0.28
-101,-26,-1000,0.49,0.07,0.35
-101,-22,-1002,0.98,0.21,0.42
-100,-19,-1002,1.26,0.35,0.42
-101,-17,-1006,1.19,0.56,0.56
-101,-21,-1003,0.98,0.42,0.63
-99,-21,-1007,0.63,0.28,0.63
-98,-27,-1010,0.77,0.14,0.56
-102,-28,-1009,0.84,-0.07,0.49
-105,-29,-1012,0.91,-0.21,0.35
-105,-32,-1013,1.54,-0.42,0.35
-104,-28,-1013,1.82,-0.63,0.35
-102,-24,-1014,1.68,-0.77,0.28
-102,-26,-1010,1.19,-1.05,0.21
-105,-25,-1012,0.77,-1.26,0.07
-104,-28,-1005,0.63,-1.54,0.0
-103,-29,-1001,0.42,-1.54,0.0
-103,-31,-1002,0.56,-1.33,0.0
-101,-30,-1000,0.84,-1.12,0.07
-103,-29,-1002,1.05,-0.98,0.14
-105,-29,-1001,1.19,-0.91,0.21
-107,-26,-1004,1.19,-0.77,0.21
-106,-27,-1001,1.12,-0.77,0.35
-105,-26,-1000,0.56,-0.77,0.35
-103,-27,-1001,0.28,-0.63,0.42
-100,-30,-1001,0.21,-0.56,0.49
-97,-31,-1004,0.07,-0.49,0.56
-95,-31,-1008,0.28,-0.42,0.63
-94,-31,-1004,0.21,-0.56,0.63
-92,-30,-1009,0.0,-0.7,0.63
-90,-30,-1007,-0.14,-0.77,0.49
-90,-27,-1008,-0.84,-0.84,0.56
-88,-32,-1012,-1.12,-0.98,0.49
-88,-31,-1009,-1.68,-1.12,0.42
-90,-34,-1008,-1.47,-1.12,0.35
-89,-36,-1004,-0.91,-1.12,0.21
-88,-35,-1001,-0.42,-0.98,0.21
-91,-33,-1004,-0.07,-0.77,0.28
-92,-30,-1007,0.28,-0.7,0.35
-95,-28,-1004,0.28,-0.77,0.35
-100,-25,-1003,-0.07,-0.77,0.21
-99,-25,-1004,-0.28,-0.84,0.07
-98,-25,-1001,-0.63,-0.77,0.0
-101,-23,-1002,-1.19,-0.7,0.07
-99,-26,-1006,-1.05,-0.77,0.07
-100,-25,-1006,-0.7,-0.91,0.0
-101,-22,-1004,-0.14,-0.91,0.0
-103,-20,-1001,0.07,-0.77,0.0
-102,-21,-1004,0.35,-0.63,0.14
-102,-22,-1003,0.56,-0.56,0.28
-102,-22,-1006,0.77,-0.49,0.35
-101,-25,-1006,0.98,-0.49,0.42
-101,-24,-1006,1.05,-0.49,0.35
-103,-22,-1005,1.12,-0.63,0.21
-104,-22,-1006,1.12,-0.63,0.14
-102,-25,-1004,0.77,-0.77,0.07
-100,-25,-1009,0.63,-0.7,0.0
-99,-30,-1008,0.7,-0.77,0.0
-101,-31,-1003,0.63,-0.84,0.0
-99,-33,-1002,0.63,-0.77,0.07
-99,-33,-1002,0.84,-0.7,0.14
-98,-35,-1003,0.91,-0.77,0.14
-96,-31,-1009,0.91,-0.77,0.14
-98,-31,-1004,0.42,-0.77,0.14
-100,-31,-1006,-0.07,-0.77,0.07
-98,-34,-1002,-0.14,-0.84,0.0
-99,-32,-998,-0.28,-0.63,0.0
-98,-33,-1002,-0.07,-0.42,0.07
-98,-32,-1000,-0.07,-0.21,0.14
-100,-28,-1004,-0.14,-0.14,0.14
-99,-28,-1003,-0.14,-0.21,0.07
-98,-26,-1005,-0.07,-0.28,0.07
-99,-22,-1006,-0.21,-0.21,0.0
-100,-23,-1011,-0.21,-0.35,0.14
-98,-23,-1017,0.0,-0.49,0.14
-98,-22,-1019,0.14,-0.91,0.07
-98,-24,-1016,0.14,-1.4,0.14
-97,-29,-1011,0.21,-1.61,0.0
-97,-33,-1007,0.49,-1.75,0.0
-97,-34,-1005,0.98,-1.75,0.0
-95,-35,-1005,1.54,-1.75,0.07
-98,-31,-1005,1.4,-1.68,0.07
-96,-29,-1005,1.19,-1.82,-0.07
-98,-22,-1007,0.63,-1.89,-0.35
-98,-21,-1000,-0.35,-1.89,-0.35
-101,-26,-996,-1.47,-1.75,-0.35
-100,-34,-995,-1.96,-1.54,-0.28
-97,-38,-997,-1.4,-1.26,-0.21
-99,-37,-995,-0.7,-0.84,-0.14
-100,-33,-998,-0.21,-0.63,-0.14
-99,-30,-1003,-0.07,-0.49,0.0
-97,-25,-1009,-0.07,-0.35,0.07
-101,-22,-1005,-0.35,-0.42,0.14
-103,-22,-1005,-0.7,-0.49,0.14
-100,-26,-1005,-0.98,-0.49,0.14
-102,-27,-1005,-1.05,-0.49,0.14
-101,-31,-1004,-0.91,-0.56,0.14
-99,-31,-1005,-0.7,-0.56,0.14
-98,-31,-1006,0.0,-0.63,0.21
-100,-27,-1004,0.49,-0.56,0.28
-103,-23,-1003,0.63,-0.42,0.21
-101,-25,-1006,0.63,-0.42,0.28
-102,-24,-1006,0.42,-0.42,0.21
-102,-24,-1006,0.56,-0.49,0.28
-103,-26,-1003,0.91,-0.56,0.21
-102,-28,-1001,1.05,-0.56,0.28
-101,-25,-1006,1.33,-0.49,0.35
-100,-26,-1003,1.75,-0.42,0.35
-101,-25,-1002,1.75,-0.28,0.42
-102,-26,-1004,1.68,-0.28,0.49
-100,-29,-1007,1.75,-0.35,0.42
-102,-26,-1006,1.68,-0.49,0.35
-101,-28,-1005,1.61,-0.49,0.35
-104,-30,-1003,0.91,-0.63,0.28
-103,-28,-1004,0.7,-0.63,0.07
-101,-31,-1004,0.63,-0.63,0.07
-101,-29,-1001,0.42,-0.56,0.07
-102,-29,-1003,0.42,-0.42,0.07
-100,-31,-1006,0.56,-0.42,0.14
-97,-29,-1004,0.42,-0.42,0.14
-98,-29,-1005,0.35,-0.28,0.21
-96,-30,-1008,0.42,-0.35,0.21
-96,-30,-1006,0.35,-0.42,0.21
-97,-32,-1003,0.21,-0.49,0.28
-97,-31,-1006,0.21,-0.63,0.21
-94,-29,-1005,0.28,-0.63,0.21
-95,-30,-1007,-0.14,-0.63,0.14
-95,-31,-1012,-0.07,-0.7,0.14
-92,-31,-1008,0.21,-0.84,0.07
-96,-29,-1006,0.28,-0.84,0.07
-94,-31,-1006,0.35,-0.91,0.0
-93,-31,-1003,0.21,-0.84,0.0
-96,-31,-1003,0.49,-0.7,0.07
-96,-33,-1003,0.77,-0.7,0.14
-96,-31,-1001,0.98,-0.63,0.07
-99,-30,-1000,1.33,-0.49,0.07
-98,-28,-1001,1.61,-0.49,0.07
-98,-24,-1000,1.54,-0.35,0.14
-99,-24,-1004,1.47,-0.21,0.21
-100,-27,-1002,1.26,-0.21,0.21
-103,-30,-1002,0.98,-0.14,0.28
-100,-34,-1005,1.19,0.0,0.35
-99,-35,-1005,1.54,0.14,0.42
-101,-33,-1007,1.89,0.07,0.56
-100,-34,-1010,2.31,-0.07,0.56
-100,-31,-1008,2.03,-0.21,0.49
-101,-35,-1008,1.89,-0.35,0.42
-98,-35,-1011,1.68,-0.56,0.42
-97,-35,-1012,1.61,-0.77,0.35
-99,-34,-1009,1.05,-1.12,0.35
-100,-36,-1006,0.63,-1.19,0.28
-102,-41,-1003,0.49,-1.19,0.21
-102,-40,-1004,0.49,-1.19,0.14
-99,-37,-1007,0.63,-1.19,0.14
-103,-32,-1005,0.42,-1.12,0.14
-101,-31,-1004,-0.07,-1.19,0.14
-99,-31,-1000,-0.49,-1.12,0.14
-99,-34,-997,-0.84,-0.98,0.21
-98,-37,-1002,-0.7,-0.77,0.42
-95,-38,-1004,-0.07,-0.7,0.63
-96,-36,-1005,0.49,-0.63,0.84
-96,-33,-1008,0.7,-0.63,0.91
-95,-34,-1009,0.56,-0.7,0.91
-96,-33,-1014,0.35,-0.98,0.84
-93,-36,-1009,0.07,-1.26,0.84
-93,-36,-1004,-0.56,-1.33,0.77
-94,-42,-1006,-0.98,-1.33,0.63
-92,-46,-1001,-1.12,-1.4,0.49
-91,-45,-1002,-0.98,-1.19,0.42
-92,-44,-1009,-0.63,-1.05,0.35
-94,-39,-1010,-0.42,-1.12,0.35
-97,-32,-1008,-0.91,-1.19,0.14
-99,-28,-1011,-1.61,-1.47,-0.07
-101,-28,-1002,-2.52,-1.68,-0.35
-101,-28,-1005,-3.08,-1.68,-0.49
-99,-33,-998,-3.29,-1.61,-0.49
-100,-32,-1004,-3.01,-1.33,-0.49
-100,-33,-997,-2.17,-1.12,-0.49
-103,-26,-996,-1.54,-0.84,-0.42
-101,-22,-999,-0.56,-0.63,-0.14
-99,-17,-999,0.07,-0.42,0.07
-101,-14,-993,-0.14,-0.21,0.14
-101,-17,-998,-0.42,0.07,0.21
-98,-25,-997,-0.42,0.21,0.14
-101,-29,-1002,-0.21,0.35,0.14
-104,-31,-1002,0.42,0.49,0.21
-106,-29,-1002,1.05,0.49,0.28
-103,-27,-1000,1.26,0.56,0.42
-105,-25,-1005,1.47,0.63,0.35
-102,-29,-1008,1.82,0.7,0.42
-101,-30,-1013,2.03,0.63,0.42
-98,-29,-1016,2.31,0.35,0.42
-97,-29,-1015,2.31,0.07,0.35
-97,-30,-1010,1.89,-0.21,0.21
-97,-29,-1011,1.47,-0.49,0.07
-92,-32,-1011,1.54,-0.63,0.0
-93,-33,-1004,1.33,-0.63,-0.07
-97,-35,-1004,1.26,-0.7,-0.07
-94,-36,-1010,1.68,-0.84,-0.14
-96,-33,-1005,2.03,-0.84,-0.07
-98,-30,-1001,2.03,-0.84,-0.07
-97,-30,-1001,1.68,-0.77,-0.07
-96,-30,-1000,1.47,-0.63,0.0
-100,-33,-998,1.05,-0.49,-0.07
-98,-36,-1004,0.77,-0.42,-0.07
-95,-39,-1007,1.26,-0.35,0.07
-96,-36,-1007,1.75,-0.21,0.07
-99,-33,-1002,1.82,-0.21,0.14
-97,-32,-1003,1.82,-0.21,0.14
-94,-35,-1004,1.75,-0.21,0.07
-97,-36,-1003,1.47,-0.14,0.07
-96,-39,-1007,1.33,-0.14,0.07
-95,-40,-1007,1.47,-0.14,0.0
-94,-39,-1003,1.4,-0.14,-0.07
-96,-35,-1004,1.05,-0.14,-0.14
-93,-38,-1009,0.84,-0.21,-0.14
-92,-36,-1009,0.49,-0.35,-0.21
-94,-36,-1009,0.35,-0.42,-0.28
-93,-37,-1009,0.42,-0.56,-0.35
-94,-38,-1006,0.21,-0.7,-0.42
-96,-36,-1012,0.35,-0.77,-0.35
-95,-40,-1010,0.7,-1.05,-0.35
-98,-37,-1006,0.77,-1.12,-0.35
-97,-36,-1007,0.84,-1.12,-0.21
-93,-39,-1006,0.91,-1.12,-0.21
-97,-36,-1001,0.77,-1.05,-0.21
-97,-38,-1000,0.7,-0.98,-0.14
-95,-41,-1003,0.77,-1.05,-0.14
-97,-40,-1005,0.98,-0.98,-0.07
-99,-40,-1004,0.98,-0.98,-0.07
-98,-40,-1003,0.56,-0.98,-0.07
-95,-42,-1004,0.42,-0.84,0.0
-96,-42,-1000,0.35,-0.77,0.07
-98,-41,-999,0.07,-0.63,0.07
-96,-42,-1006,0.07,-0.49,0.07
-96,-40,-1006,0.0,-0.49,0.07
-99,-38,-1006,-0.14,-0.56,0.07
-99,-37,-1006,-0.42,-0.7,-0.07
-96,-36,-1004,-0.56,-0.56,-0.14
-97,-36,-999,-0.84,-0.42,-0.14
-98,-41,-998,-1.05,-0.28,-0.14
-95,-42,-999,-0.98,-0.07,-0.07
-97,-45,-990,-0.56,0.21,0.0
-98,-40,-1002,0.07,0.49,0.28
-96,-37,-997,0.63,0.7,0.56
-99,-32,-996,0.63,0.91,0.7
-99,-33,-1001,0.63,1.12,0.77
-94,-36,-1009,0.91,1.12,0.7
-93,-35,-1018,1.4,0.98,0.7
-94,-33,-1015,1.4,0.84,0.7
-95,-34,-1013,0.84,0.49,0.7
-93,-39,-1010,0.49,0.07,0.49
-93,-42,-1014,0.21,-0.14,0.35
-93,-45,-1013,0.35,-0.35,0.35
-92,-44,-1011,0.21,-0.63,0.21
-91,-40,-1013,0.21,-0.91,0.07
-93,-34,-1008,0.07,-1.12,0.0
-94,-31,-1010,-0.21,-1.33,-0.14
-97,-31,-1008,-0.7,-1.47,-0.21
-96,-31,-1008,-1.33,-1.54,-0.28
-97,-36,-1007,-1.61,-1.54,-0.35
-96,-39,-1006,-1.4,-1.61,-0.35
-94,-43,-1004,-0.98,-1.61,-0.28
-96,-42,-999,-0.42,-1.54,-0.28
-94,-39,-1001,-0.07,-1.4,-0.21
-93,-37,-997,-0.21,-1.33,-0.14
-93,-35,-998,-0.77,-1.19,-0.07
-94,-35,-1000,-1.33,-1.05,0.0
-95,-38,-1002,-1.61,-0.98,0.0
-94,-38,-998,-1.75,-0.77,-0.07
-93,-40,-998,-1.68,-0.49,0.0
-95,-43,-998,-1.61,-0.42,0.14
-92,-42,-1004,-1.19,-0.28,0.14
-89,-41,-1015,-0.63,-0.28,0.21
-90,-33,-1011,-0.49,-0.35,0.28
-93,-30,-1010,-0.7,-0.42,0.21
-94,-31,-1006,-1.12,-0.56,0.07
-96,-31,-1004,-1.54,-0.63,-0.07
-96,-36,-1002,-1.54,-0.56,-0.07
-97,-40,-1002,-1.19,-0.42,-0.07
-96,-38,-1010,-0.21,-0.35,0.0
-95,-35,-1006,0.63,-0.35,0.07
-98,-26,-1001,0.7,-0.42,0.07
-96,-24,-1001,0.49,-0.35,0.0
-95,-24,-1000,0.21,-0.21,0.0
-95,-26,-993,0.07,0.07,0.21
-95,-32,-990,0.0,0.42,0.35
-96,-38,-982,0.49,0.91,0.56
-98,-39,-988,1.12,1.61,0.77
-95,-43,-994,2.73,2.1,1.05
-96,-30,-1002,3.43,2.45,1.4
-96,-26,-1005,3.43,2.59,1.4
-95,-25,-1003,2.45,2.52,1.19
-92,-28,-1004,1.54,2.52,1.05
-89,-37,-1008,1.19,2.31,0.98
-89,-40,-1007,0.56,2.38,1.05
-88,-43,-1012,0.42,2.38,1.12
-80,-48,-1021,0.77,1.96,1.05
-79,-43,-1023,1.19,1.47,0.91
-83,-36,-1028,1.26,0.98,0.77
-81,-35,-1029,1.12,0.21,0.49
-79,-32,-1021,0.21,-0.49,0.21
-81,-37,-1023,-0.21,-0.98,-0.07
-81,-41,-1018,-0.7,-1.47,-0.21
-85,-46,-1012,-0.77,-1.75,-0.28
-88,-48,-1009,-0.49,-1.89,-0.35
-89,-45,-1005,0.07,-1.96,-0.42
-89,-43,-1004,0.49,-1.82,-0.42
-89,-38,-1005,0.7,-1.75,-0.49
-90,-35,-1005,0.49,-1.75,-0.49
-92,-34,-1006,0.0,-1.82,-0.56
-91,-34,-999,-0.84,-1.89,-0.63
-91,-36,-1005,-1.26,-1.75,-0.7
-89,-42,-1006,-1.33,-1.61,-0.63
-95,-40,-1001,-1.61,-1.54,-0.56
-94,-41,-1006,-1.33,-1.47,-0.56
-90,-40,-997,-1.26,-1.33,-0.63
-93,-35,-995,-1.26,-0.98,-0.49
-92,-36,-997,-0.98,-0.63,-0.42
-93,-32,-996,-1.26,-0.49,-0.42
-92,-29,-1001,-1.4,-0.35,-0.28
-91,-30,-1001,-1.68,-0.28,-0.21
-92,-31,-1001,-1.82,-0.14,-0.21
-91,-31,-1002,-1.68,0.0,-0.21
-93,-28,-1000,-1.61,0.14,-0.28
-95,-26,-1006,-1.61,0.21,-0.21
-92,-29,-1007,-1.4,0.14,-0.21
-93,-29,-1008,-1.47,0.07,-0.21
-91,-31,-1011,-1.05,0.0,-0.21
-88,-33,-1006,-0.91,-0.14,-0.14
-91,-35,-1007,-0.56,-0.21,0.14
-86,-39,-1012,0.49,-0.35,0.35
-87,-37,-1010,1.47,-0.42,0.56
-88,-32,-1010,2.1,-0.56,0.7
-87,-33,-1009,2.45,-0.63,0.7
-88,-32,-1005,2.45,-0.7,0.63
-90,-32,-1002,2.52,-0.63,0.63
-90,-32,-1000,2.24,-0.63,0.56
-86,-33,-999,1.89,-0.49,0.56
-86,-35,-1002,1.33,-0.28,0.63
-85,-35,-1008,1.19,-0.28,0.56
-84,-37,-1005,0.98,-0.28,0.56
-86,-35,-1005,0.7,-0.28,0.49
-85,-36,-1007,0.49,-0.35,0.42
-87,-36,-1003,0.14,-0.42,0.28
-87,-36,-1011,0.0,-0.42,0.28
-85,-37,-1009,-0.35,-0.42,0.21
-89,-36,-1008,-0.49,-0.49,0.21
-88,-37,-1010,-0.28,-0.7,0.14
-85,-33,-1006,-0.14,-0.84,0.0
-87,-32,-1004,-0.35,-0.77,-0.07
-90,-31,-1005,-0.7,-0.84,-0.14
-87,-32,-1005,-0.98,-0.84,-0.21
-89,-36,-1005,-1.12,-0.84,-0.21
-89,-39,-1006,-0.91,-0.91,-0.21
-84,-40,-1007,-0.35,-0.91,-0.21
-86,-34,-1007,0.14,-0.98,-0.14
-89,-32,-1009,0.28,-0.98,-0.07
-90,-31,-1010,0.21,-1.12,-0.14
-89,-33,-1005,-0.21,-1.12,-0.14
-89,-34,-1007,-0.35,-1.05,-0.07
-85,-39,-1007,0.07,-1.12,-0.14
-87,-35,-1003,0.28,-1.12,-0.07
-88,-37,-1002,0.56,-0.98,0.0
-89,-37,-1000,0.63,-0.84,0.07
-88,-36,-1000,0.91,-0.63,0.14
-88,-37,-999,1.05,-0.49,0.21
-88,-34,-1001,1.12,-0.35,0.28
-87,-34,-1002,1.26,-0.14,0.28
-88,-31,-1001,0.98,-0.14,0.28
-90,-30,-1006,0.63,0.0,0.21
-86,-31,-1009,0.35,-0.07,0.14
-86,-32,-1008,-0.07,-0.07,0.14
-88,-34,-1007,-0.21,-0.14,0.14
-88,-38,-1007,-0.21,-0.28,0.07
-85,-38,-1013,0.07,-0.35,0.0
-85,-37,-1015,0.56,-0.63,0.0
-86,-35,-1014,0.91,-0.84,0.0
-87,-35,-1013,1.19,-0.98,0.0
-87,-33,-1010,1.47,-1.12,0.0
-86,-33,-1006,1.61,-1.26,0.0
-86,-32,-1006,1.33,-1.4,-0.07
-86,-35,-1010,1.33,-1.47,-0.14
-89,-36,-1011,1.4,-1.61,-0.14
-90,-36,-1014,1.26,-1.75,-0.21
-90,-36,-1007,1.05,-1.96,-0.35
-89,-37,-1002,0.7,-1.96,-0.35
-86,-38,-1004,0.63,-1.89,-0.42
-86,-42,-1002,0.42,-1.75,-0.42
-89,-41,-997,0.35,-1.54,-0.28
-91,-42,-997,0.35,-1.33,-0.28
-87,-42,-1002,0.35,-1.26,-0.28
-90,-39,-997,0.28,-0.98,-0.28
-92,-39,-997,0.07,-0.77,-0.21
-89,-39,-1001,-0.14,-0.56,-0.14
-89,-39,-1001,-0.35,-0.35,-0.07
-90,-37,-1003,-0.42,-0.21,0.0
-88,-38,-1004,-0.42,-0.21,-0.07
-88,-40,-1005,-0.49,-0.14,0.0
-89,-38,-1009,-0.49,-0.21,0.0
-90,-37,-1010,-0.42,-0.35,-0.07
-90,-37,-1010,-0.42,-0.56,-0.07
-91,-35,-1015,-0.56,-0.77,-0.14
-91,-35,-1015,-0.56,-0.98,-0.14
-91,-35,-1012,-0.49,-1.19,-0.21
-91,-37,-1008,-0.42,-1.47,-0.21
-89,-37,-1006,-0.21,-1.54,-0.14
-90,-38,-1010,0.14,-1.47,-0.07
-88,-36,-1006,0.7,-1.54,0.0
-89,-35,-1001,0.7,-1.54,0.0
-87,-36,-1001,0.63,-1.4,0.0
-84,-35,-1000,0.56,-1.26,0.07
-87,-37,-997,0.63,-1.05,0.21
-90,-38,-998,0.63,-0.77,0.35
-90,-41,-1000,0.84,-0.63,0.49
-92,-40,-1002,0.98,-0.49,0.42
-91,-37,-1002,1.05,-0.35,0.49
-91,-38,-1006,0.91,-0.28,0.56
-92,-38,-1008,0.7,-0.35,0.49
-92,-37,-1007,0.42,-0.42,0.49
-89,-40,-1006,0.21,-0.49,0.49
-89,-41,-1010,0.0,-0.56,0.35
-89,-42,-1010,0.14,-0.7,0.28
-90,-38,-1010,0.14,-0.84,0.14
-90,-37,-1007,0.21,-0.98,0.14
-93,-34,-1002,-0.14,-0.98,0.14
-94,-36,-1002,-0.28,-0.91,0.14
-95,-37,-999,-0.35,-0.84,0.21
-99,-37,-998,-0.28,-0.84,0.21
-97,-38,-1005,-0.14,-0.63,0.21
-93,-35,-1006,0.07,-0.49,0.21
-93,-34,-1006,0.14,-0.49,0.28
-91,-32,-1007,0.28,-0.56,0.21
-88,-32,-1006,0.0,-0.56,0.21
-87,-35,-1006,-0.35,-0.63,0.28
-85,-40,-1008,-0.35,-0.7,0.35
-84,-43,-1006,0.0,-0.56,0.35
-84,-42,-1006,0.77,-0.56,0.42
-83,-40,-1005,1.33,-0.63,0.49
-84,-38,-1002,1.54,-0.56,0.49
-87,-35,-1001,1.47,-0.49,0.49
-86,-34,-1002,1.19,-0.49,0.49
-85,-35,-1007,0.7,-0.35,0.49
-84,-40,-1009,0.21,-0.42,0.49
-85,-41,-1006,-0.21,-0.42,0.42
-87,-45,-1004,-0.56,-0.56,0.28
-87,-44,-1010,-0.42,-0.56,0.14
-86,-42,-1007,-0.28,-0.7,0.07
-89,-37,-1007,-0.49,-0.63,0.07
-88,-38,-1008,-0.49,-0.7,0.0
-88,-36,-1009,-0.49,-0.84,-0.14
-92,-35,-1005,-0.35,-0.91,-0.21
-93,-32,-1008,-0.42,-0.98,-0.21
-91,-33,-1008,-0.35,-1.12,-0.14
-91,-32,-1006,-0.35,-1.12,-0.07
-91,-34,-1003,-0.42,-1.12,-0.07
-92,-34,-1002,-0.42,-1.05,0.0
-90,-39,-1000,-0.07,-0.91,0.0
-89,-37,-1007,0.28,-0.84,0.0
-88,-37,-1005,0.35,-0.77,0.07
-90,-36,-1008,0.14,-0.77,0.21
-86,-40,-1007,0.49,-0.84,0.21
-88,-39,-1003,0.7,-0.77,0.07
-91,-39,-1001,0.56,-0.77,0.07
-90,-40,-1002,0.35,-0.7,0.14
-90,-43,-1000,0.21,-0.49,0.14
-90,-43,-1003,0.07,-0.35,0.14
-86,-44,-1005,0.35,-0.28,0.21
-86,-39,-1003,0.56,-0.21,0.21
-89,-38,-1003,0.63,-0.14,0.21
-88,-35,-1006,0.35,-0.21,0.28
-88,-34,-1002,-0.14,-0.14,0.28
-92,-35,-1005,-0.35,-0.07,0.35
-87,-40,-1011,-0.21,-0.28,0.35
-88,-39,-1009,0.0,-0.42,0.28
-93,-38,-1011,0.28,-0.49,0.28
-92,-40,-1006,0.63,-0.63,0.28
-90,-35,-1008,0.91,-0.63,0.28
-90,-35,-1006,1.05,-0.56,0.42
-93,-35,-1004,0.7,-0.63,0.49
-90,-37,-1007,0.7,-0.63,0.42
-89,-39,-1002,0.56,-0.63,0.28
-92,-37,-1003,0.56,-0.63,0.28
-89,-38,-1004,0.56,-0.7,0.21
-88,-36,-1005,0.42,-0.7,0.14
-92,-35,-1004,-0.14,-0.49,0.14
-90,-38,-1008,-0.35,-0.49,0.14
-87,-39,-1006,-0.49,-0.49,0.07
-90,-39,-1005,-0.42,-0.42,0.14
-87,-39,-1010,-0.14,-0.56,0.14
-83,-38,-1008,0.07,-0.77,0.07
-85,-36,-1005,0.0,-0.7,0.14
-88,-39,-1007,0.14,-0.7,0.07
-83,-38,-1007,0.21,-0.84,-0.07
-87,-35,-1004,0.14,-0.77,-0.14
-88,-37,-1001,-0.21,-0.7,0.0
-87,-38,-1002,-0.28,-0.63,0.0
-87,-39,-1004,0.0,-0.49,0.0
-88,-38,-1005,0.35,-0.35,0.0
-88,-36,-1012,0.42,-0.35,0.0
-86,-35,-1013,0.49,-0.42,0.0
-88,-34,-1009,0.42,-0.63,-0.07
-89,-34,-1007,0.14,-0.91,-0.14
-87,-34,-1003,-0.07,-0.91,-0.14
-90,-38,-1006,0.0,-0.91,-0.07
-86,-40,-1007,0.49,-0.98,0.0
-87,-39,-1005,0.91,-0.91,0.07
-91,-40,-1001,1.33,-0.77,0.07
-90,-36,-1004,1.75,-0.63,0.0
-87,-33,-1003,1.82,-0.49,-0.07
-90,-31,-998,1.19,-0.21,0.07
-92,-36,-999,0.56,0.0,0.07
-87,-40,-998,0.56,0.14,0.07
-89,-42,-989,0.84,0.56,0.14
-90,-43,-988,1.33,0.98,0.28
-88,-43,-992,1.68,1.33,0.49
-88,-41,-998,1.96,1.61,0.84
-87,-39,-1011,2.45,1.61,1.05
-86,-34,-1014,2.73,1.54,1.05
-87,-31,-1012,2.73,1.26,1.05
-86,-32,-1014,2.24,0.98,1.05
-81,-37,-1021,1.96,0.7,0.98
-82,-45,-1019,1.82,0.28,0.91
-83,-51,-1019,1.89,-0.21,0.91
-83,-55,-1019,2.17,-0.63,0.77
-83,-54,-1014,2.17,-0.98,0.63
-84,-53,-1013,2.31,-1.19,0.49
-85,-50,-1010,2.1,-1.33,0.35
-87,-49,-1004,1.47,-1.4,0.28
-86,-48,-1004,0.63,-1.4,0.07
-83,-46,-1008,-0.21,-1.33,-0.07
-86,-45,-1006,-0.91,-1.4,-0.14
-88,-46,-1008,-1.68,-1.4,-0.28
-88,-51,-1001,-2.31,-1.47,-0.35
-90,-51,-1001,-2.59,-1.4,-0.42
-90,-53,-995,-2.59,-1.33,-0.42
-90,-49,-996,-2.59,-1.05,-0.35
-86,-49,-999,-2.03,-0.7,-0.28
-88,-44,-1000,-2.03,-0.42,-0.21
-86,-40,-1002,-2.1,-0.28,-0.28
-86,-39,-1002,-2.73,-0.21,-0.35
-86,-35,-1003,-3.57,0.0,-0.42
-86,-34,-1004,-4.69,0.07,-0.49
-83,-37,-1002,-5.88,0.07,-0.56
-81,-38,-1006,-6.72,0.07,-0.7
-80,-46,-1006,-6.72,0.07,-0.7
-82,-41,-1010,-6.44,0.14,-0.7
-81,-39,-1013,-5.39,0.0,-0.77
-83,-33,-1011,-5.04,0.0,-0.84
-84,-27,-1013,-4.62,-0.21,-0.91
-83,-25,-1011,-4.76,-0.42,-0.91
-85,-23,-1011,-4.76,-0.49,-0.84
-83,-26,-1007,-4.48,-0.56,-0.7
-84,-28,-1009,-3.57,-0.56,-0.49
-81,-30,-1010,-1.82,-0.56,-0.14
-85,-25,-1001,-0.28,-0.42,0.14
-88,-23,-994,1.12,-0.21,0.35
-89,-22,-990,2.17,0.14,0.56
-87,-21,-987,2.94,0.42,0.98
-89,-20,-992,3.71,0.98,1.4
-89,-22,-990,4.2,1.47,1.68
-87,-20,-998,4.62,1.82,1.75
-82,-20,-1008,5.04,1.96,1.82
-82,-19,-1011,4.9,1.89,1.75
-84,-23,-1017,3.99,1.68,1.54
-85,-29,-1017,2.8,1.26,1.26
-84,-37,-1019,1.68,0.77,0.91
-80,-39,-1023,0.98,0.28,0.56
-78,-33,-1018,0.21,-0.21,0.42
-78,-35,-1018,-1.26,-0.56,0.14
-77,-37,-1010,-2.52,-0.98,-0.21
-78,-39,-1012,-3.22,-1.19,-0.56
-78,-43,-1008,-3.22,-1.12,-0.91
-79,-44,-1008,-2.73,-1.05,-0.98
-79,-43,-1007,-2.1,-0.98,-1.05
-81,-38,-1008,-1.33,-0.91,-0.98
-83,-34,-1010,-0.7,-0.98,-0.91
-82,-29,-1008,-0.63,-1.19,-0.91
-81,-28,-1007,-0.77,-1.26,-0.91
-79,-25,-1006,-0.84,-1.26,-0.84
-79,-27,-1005,-0.91,-1.26,-0.77
-77,-28,-1006,-1.05,-1.26,-0.7
-79,-30,-1005,-0.84,-1.19,-0.56
-79,-33,-1001,-0.28,-1.05,-0.42
-80,-33,-1000,0.28,-0.84,-0.35
-78,-31,-1006,1.26,-0.7,-0.21
-76,-31,-1007,1.68,-0.56,-0.14
-77,-29,-1008,1.68,-0.63,-0.07
-75,-31,-1008,1.54,-0.63,-0.14
-75,-30,-1005,1.05,-0.7,-0.35
-75,-32,-1007,0.49,-0.63,-0.42
-76,-35,-1007,-0.07,-0.7,-0.49
-76,-36,-1009,-0.63,-0.77,-0.63
-75,-34,-1016,-0.7,-0.84,-0.77
-75,-33,-1012,-0.84,-1.12,-0.98
-81,-30,-1011,-1.12,-1.33,-1.12
-82,-34,-1010,-1.26,-1.54,-1.33
-82,-30,-1007,-1.61,-1.54,-1.4
-84,-30,-1007,-1.54,-1.54,-1.47
-84,-31,-1005,-1.82,-1.61,-1.54
-84,-28,-1005,-2.03,-1.54,-1.47
-85,-29,-998,-1.96,-1.47,-1.54
-86,-29,-996,-1.96,-1.33,-1.47
-87,-27,-998,-1.96,-1.05,-1.19
-88,-29,-1000,-1.75,-0.77,-0.91
-89,-30,-999,-1.61,-0.63,-0.77
-88,-28,-1002,-1.26,-0.49,-0.84
-86,-25,-1005,-0.77,-0.35,-0.63
-86,-25,-1004,-0.49,-0.21,-0.42
-88,-25,-1008,-0.35,-0.14,-0.28
-88,-28,-1007,-0.21,-0.21,-0.07
-85,-28,-1011,0.14,-0.21,0.07
-85,-30,-1011,0.42,-0.28,0.14
-85,-26,-1010,0.7,-0.35,0.28
-83,-30,-1008,0.84,-0.49,0.35
-82,-32,-1010,0.63,-0.49,0.35
-82,-35,-1009,0.91,-0.7,0.28
-81,-34,-1011,0.84,-0.91,0.21
-80,-33,-1014,0.98,-1.05,0.14
-79,-33,-1008,0.63,-1.05,0.14
-81,-34,-1001,0.28,-0.98,0.14
-82,-36,-998,-0.14,-0.84,0.07
-80,-37,-1000,-0.28,-0.84,0.14
-80,-34,-1004,-0.35,-0.7,0.14
-83,-30,-1006,-0.63,-0.63,0.14
-84,-27,-1008,-1.33,-0.56,0.14
-83,-26,-1010,-1.75,-0.77,0.07
-81,-27,-1009,-2.03,-0.91,0.0
-79,-26,-1011,-1.82,-0.98,0.14
-76,-25,-1011,-1.61,-1.12,0.21
-78,-24,-1013,-1.47,-1.26,0.28
-77,-28,-1009,-1.75,-1.4,0.28
-78,-29,-1009,-1.4,-1.4,0.21
-79,-28,-1008,-0.56,-1.33,0.21
-80,-22,-1006,0.0,-1.4,0.21
-80,-23,-1001,-0.49,-1.26,0.35
-84,-24,-1001,-0.7,-1.19,0.35
-84,-25,-1001,-0.63,-1.12,0.28
-82,-24,-1003,-0.56,-0.98,0.28
-82,-26,-1000,-0.77,-0.84,0.35
-84,-26,-1002,-1.05,-0.63,0.35
-84,-27,-1009,-0.98,-0.63,0.21
-82,-25,-1011,-1.33,-0.7,0.14
-82,-23,-1013,-1.96,-0.84,0.07
-81,-27,-1009,-2.17,-0.98,0.0
-80,-28,-1008,-2.24,-1.12,-0.07
-79,-25,-1011,-1.75,-1.19,-0.07
-81,-23,-1012,-1.33,-1.26,-0.14
-82,-19,-1008,-1.33,-1.33,-0.07
-83,-20,-1004,-1.4,-1.4,-0.07
-83,-22,-1005,-1.19,-1.47,-0.21
-82,-19,-1005,-1.05,-1.47,-0.21
-85,-14,-1007,-0.91,-1.4,-0.07
-85,-14,-1013,-0.56,-1.47,-0.07
-83,-11,-1009,-1.12,-1.68,-0.07
-85,-15,-1005,-1.89,-1.61,-0.28
-85,-21,-1006,-2.03,-1.68,-0.35
-81,-27,-1001,-1.54,-1.68,-0.42
-84,-25,-1007,-0.91,-1.4,-0.35
-83,-21,-1007,-0.21,-1.33,-0.28
-86,-16,-1006,-0.07,-1.4,-0.28
-87,-12,-1008,-0.56,-1.54,-0.49
-86,-15,-1000,-1.33,-1.54,-0.7
-85,-15,-1001,-1.89,-1.33,-0.7
-83,-21,-1004,-1.75,-1.12,-0.7
-83,-21,-1008,-1.54,-0.98,-0.63
-84,-20,-1006,-1.12,-0.98,-0.49
-85,-18,-1009,-0.49,-0.98,-0.56
-82,-16,-1005,-0.14,-1.05,-0.7
-86,-14,-999,-0.28,-1.05,-0.63
-87,-16,-1004,-0.35,-0.98,-0.49
-86,-18,-1005,0.14,-0.98,-0.49
-88,-17,-1003,0.21,-0.91,-0.49
-88,-18,-1001,0.28,-0.77,-0.35
-85,-20,-1005,0.56,-0.77,-0.35
-84,-18,-1004,0.56,-0.56,-0.28
-89,-18,-1001,0.28,-0.35,-0.07
-88,-22,-1006,0.63,-0.28,0.0
-84,-24,-1009,1.26,-0.28,-0.07
-87,-18,-1009,1.47,-0.35,0.07
-89,-22,-1007,1.47,-0.35,0.14
-88,-21,-1009,1.68,-0.42,0.14
-86,-19,-1006,1.89,-0.49,0.14
-86,-17,-1005,1.68,-0.49,0.14
-86,-21,-1005,1.54,-0.56,0.14
-86,-20,-1006,1.4,-0.49,0.21
-85,-22,-1008,1.61,-0.49,0.21
-85,-21,-1007,1.47,-0.49,0.14
-86,-22,-1010,1.26,-0.56,0.21
-87,-22,-1009,1.12,-0.63,0.28
-88,-22,-1008,0.91,-0.7,0.21
-87,-21,-1008,0.7,-0.91,0.07
-86,-22,-1007,0.35,-0.98,0.0
-83,-24,-1011,0.14,-1.05,-0.07
-83,-22,-1009,0.0,-1.12,-0.07
-83,-22,-1010,0.07,-1.12,-0.07
-82,-22,-1008,0.0,-1.26,-0.07
-82,-22,-1007,-0.21,-1.26,0.0
-83,-23,-1009,-0.42,-1.33,0.0
-81,-23,-1010,-0.35,-1.4,-0.07
-83,-24,-1017,-0.56,-1.61,-0.28
-77,-26,-1018,-0.42,-1.96,-0.28
-81,-24,-1013,-0.63,-2.17,-0.28
-82,-24,-1011,-0.56,-2.45,-0.28
-80,-22,-1010,-0.42,-2.73,-0.49
-79,-17,-1007,-0.91,-2.8,-0.56
-84,-18,-1004,-1.26,-2.66,-0.56
-84,-22,-1003,-1.4,-2.66,-0.7
-83,-21,-1004,-0.91,-2.66,-0.77
-85,-21,-1000,-0.49,-2.45,-0.63
-87,-20,-998,-0.07,-2.17,-0.49
-89,-18,-997,0.42,-1.82,-0.28
-88,-19,-995,1.05,-1.47,-0.14
-95,-17,-988,1.05,-0.98,0.0
-99,-20,-992,1.26,-0.63,0.07
-97,-21,-997,1.75,-0.35,0.07
-95,-18,-1000,2.1,0.0,0.07
-93,-14,-1001,1.96,0.28,0.14
-95,-13,-1003,1.61,0.35,0.07
-91,-13,-1001,0.98,0.49,0.07
-93,-18,-1002,0.21,0.49,0.14
-92,-25,-1003,0.07,0.56,0.28
-92,-32,-1007,0.63,0.63,0.35
-91,-31,-1007,1.47,0.7,0.49
-90,-27,-1009,2.1,0.77,0.63
-86,-25,-1014,2.59,0.7,0.56
-87,-19,-1010,2.24,0.49,0.49
-90,-17,-1008,1.47,0.42,0.42
-92,-20,-1007,0.56,0.21,0.21
-89,-23,-1010,-0.28,0.07,0.07
-86,-28,-1009,-0.77,-0.07,0.07
-88,-30,-1011,-1.12,-0.07,0.07
-83,-33,-1015,-0.77,-0.42,0.0
-80,-30,-1013,-0.63,-0.7,-0.07
-80,-26,-1011,-0.63,-0.84,-0.14
-79,-25,-1010,-0.91,-1.05,-0.14
-78,-24,-1009,-1.33,-1.19,-0.28
-79,-28,-1007,-1.54,-1.19,-0.21
-78,-27,-1007,-1.61,-1.26,-0.21
-78,-26,-1009,-1.12,-1.19,-0.28
-78,-23,-1009,-0.91,-1.19,-0.28
-79,-19,-1008,-0.91,-1.19,-0.28
-82,-19,-1003,-1.05,-1.19,-0.28
-83,-19,-1005,-1.05,-1.33,-0.35
-82,-20,-1005,-0.98,-1.4,-0.28
-82,-15,-1005,-1.12,-1.33,-0.21
-86,-20,-1005,-1.05,-1.26,-0.14
-86,-19,-1003,-0.98,-1.19,-0.14
-88,-19,-1001,-0.42,-0.91,-0.14
-90,-19,-996,-0.14,-0.77,-0.14
-90,-17,-998,0.14,-0.49,-0.07
-87,-18,-1000,0.35,-0.21,0.0
-87,-16,-1004,0.35,0.0,0.07
-85,-15,-1010,0.35,-0.07,0.07
-88,-16,-1007,0.21,-0.28,0.0
-89,-14,-1012,0.14,-0.35,0.0
-86,-19,-1015,0.35,-0.56,0.0
-88,-19,-1013,0.42,-0.7,0.0
-91,-21,-1011,0.63,-0.84,0.0
-88,-22,-1007,0.98,-0.98,-0.07
-87,-23,-1005,1.47,-0.98,-0.14
-88,-23,-1006,1.82,-0.91,-0.07
-87,-20,-1008,1.96,-0.98,-0.07
-89,-18,-1006,1.82,-0.98,-0.14
-90,-17,-1005,1.4,-1.05,-0.14
-87,-20,-1004,0.98,-1.05,-0.14
-88,-22,-1006,0.84,-1.05,-0.14
-88,-26,-1001,0.63,-1.12,-0.07
-86,-27,-1005,0.7,-0.98,0.07
-84,-29,-1011,1.12,-0.84,0.07
-84,-28,-1008,1.4,-0.91,0.14
-86,-24,-1004,1.26,-0.91,0.07
-85,-25,-1002,0.77,-0.91,0.0
-83,-25,-998,0.0,-0.91,0.07
-83,-28,-1003,-0.07,-0.7,0.07
-82,-29,-1004,-0.14,-0.49,0.07
-84,-28,-1009,-0.21,-0.35,0.14
-85,-26,-1009,-0.28,-0.42,0.14
-86,-24,-1008,-0.35,-0.49,0.07
-86,-22,-1010,-0.35,-0.63,0.07
-85,-22,-1007,-0.56,-0.84,0.14
-83,-21,-1020,-0.56,-1.05,0.07
-82,-22,-1020,-0.35,-1.4,-0.07
-87,-16,-1018,-0.77,-1.75,-0.21
-89,-22,-1011,-0.98,-2.03,-0.35
-93,-22,-1008,-1.12,-2.31,-0.49
-93,-26,-1004,-0.7,-2.31,-0.49
-93,-21,-1001,-0.63,-2.1,-0.35
-91,-24,-1001,-0.42,-1.75,-0.21
-94,-24,-1000,0.07,-1.75,-0.14
-94,-21,-1001,0.91,-1.54,-0.14
-91,-18,-999,1.75,-1.4,0.07
-93,-13,-994,1.68,-1.12,0.28
-92,-14,-1000,1.75,-0.84,0.42
-88,-17,-998,1.82,-0.7,0.42
-90,-16,-997,1.61,-0.42,0.56
-90,-22,-999,1.61,-0.28,0.56
-87,-27,-1004,1.82,0.0,0.49
-88,-25,-1004,2.03,0.14,0.56
-91,-23,-1009,2.03,0.21,0.56
-86,-24,-1008,1.89,0.0,0.42
-86,-25,-1007,1.33,0.0,0.42
-85,-25,-1010,0.77,-0.07,0.42
-84,-30,-1013,0.63,-0.21,0.35
-84,-30,-1014,0.7,-0.35,0.21
-85,-27,-1016,0.56,-0.63,0.07
-84,-26,-1014,0.28,-0.84,-0.14
-87,-25,-1009,-0.42,-1.12,-0.28
-88,-28,-1008,-1.05,-1.12,-0.49
-89,-32,-1004,-1.33,-1.26,-0.49
-87,-29,-1004,-1.26,-1.19,-0.56
-85,-29,-1007,-0.84,-1.19,-0.56
-87,-25,-1009,-0.84,-1.26,-0.56
-91,-22,-1013,-1.12,-1.47,-0.7
-91,-18,-1009,-1.61,-1.75,-0.84
-92,-16,-1004,-2.59,-1.75,-0.98
-92,-22,-1006,-3.43,-1.75,-0.91
-91,-27,-1004,-3.5,-1.75,-0.84
-93,-29,-1003,-3.08,-1.61,-0.77
-93,-28,-1007,-2.45,-1.61,-0.63
-87,-25,-1007,-1.68,-1.68,-0.56
-86,-20,-1008,-1.26,-1.61,-0.7
-86,-11,-1005,-1.47,-1.68,-0.7
-89,-12,-1002,-2.1,-1.68,-0.7
-89,-12,-1007,-2.66,-1.75,-0.7
-88,-17,-1002,-3.08,-1.75,-0.77
-89,-21,-1003,-3.22,-1.4,-0.7
-89,-25,-999,-2.66,-1.33,-0.49
-86,-24,-1000,-1.68,-1.05,-0.42
-87,-21,-1001,-0.84,-0.84,-0.28
-85,-15,-1001,-0.56,-0.7,-0.07
-84,-13,-1004,-0.35,-0.56,-0.07
-86,-11,-1005,-0.35,-0.49,-0.07
-86,-12,-1005,-0.28,-0.49,0.07
-87,-15,-1003,-0.35,-0.56,0.21
-84,-20,-1004,0.0,-0.56,0.28
-85,-19,-1008,0.84,-0.42,0.42
-88,-17,-1008,1.61,-0.49,0.49
-88,-15,-1010,1.96,-0.49,0.56
-88,-15,-1006,2.03,-0.49,0.49
-92,-16,-1004,2.17,-0.42,0.42
-91,-16,-1002,2.38,-0.35,0.42
-92,-17,-1001,2.38,-0.28,0.49
-92,-19,-1003,2.1,-0.14,0.49
-94,-19,-1003,2.03,0.0,0.49
-94,-18,-1006,2.03,0.0,0.35
-94,-17,-1008,2.17,0.0,0.28
-96,-15,-1003,1.75,0.0,0.21
-98,-16,-1002,1.26,0.0,0.14
-96,-20,-1007,1.19,0.0,0.0
-94,-22,-1006,0.98,0.0,0.0
-93,-21,-1005,0.84,0.0,0.0
-92,-22,-1009,0.63,0.0,-0.14
-90,-20,-1015,0.7,-0.21,-0.21
