acc_x[mg],acc_y[mg],acc_z[mg],gyro_x[dps],gyro_y[dps],gyro_z[dps]
-1021,104,-1,33.95,12.25,-10.57
-1024,70,-13,34.3,12.18,-19.81
-1037,67,-33,25.41,10.99,-28.21
-1035,81,-26,17.43,12.46,-34.37
-1031,86,-28,9.31,13.44,-36.96
-1023,83,-28,1.61,13.72,-37.59
-1007,87,-7,-5.32,14.0,-38.43
-995,85,-7,-12.18,12.95,-39.69
-993,70,-24,-15.05,10.22,-41.86
-999,42,-31,-14.14,7.21,-45.15
-1000,0,-25,-11.34,4.69,-48.86
-992,-43,-14,-5.18,4.13,-53.9
-983,-48,1,1.26,5.6,-59.71
-976,-29,16,5.74,9.24,-63.0
-972,-15,22,7.56,13.51,-61.25
-968,-15,13,8.33,17.85,-55.72
-961,-12,8,10.64,21.7,-50.82
-951,6,-17,13.44,23.45,-48.23
-945,20,-55,16.17,23.66,-45.36
-953,17,-82,18.62,22.68,-42.91
-962,17,-77,20.58,20.86,-42.07
-975,17,-67,19.74,20.16,-40.74
-986,14,-62,18.83,20.51,-39.34
-1004,9,-62,18.27,21.14,-38.36
-999,14,-68,16.52,22.19,-38.36
-977,13,-96,14.56,23.31,-39.06
-952,27,-119,13.23,23.66,-41.44
-937,40,-141,8.68,22.47,-43.33
-935,33,-157,3.92,20.86,-43.75
-947,10,-174,0.14,20.3,-43.54
-956,9,-201,-2.87,21.07,-43.26
-961,31,-219,-6.93,23.59,-41.44
-953,48,-235,-15.82,27.16,-35.07
-963,40,-224,-24.36,31.78,-25.62
-939,19,-204,-32.13,34.86,-15.47
-925,15,-178,-36.96,33.95,-7.0
-918,-8,-155,-38.71,31.99,-3.43
-930,-11,-125,-34.37,31.71,-1.19
-932,-13,-97,-30.17,24.5,4.55
-966,-71,-103,-27.86,19.11,8.33
-969,-79,-63,-17.36,22.68,5.95
-923,-70,7,-10.64,21.56,4.62
-958,-21,-5,4.9,20.93,3.01
-964,0,-36,21.21,29.75,1.89
-972,-17,7,24.22,41.65,7.77
-973,-92,107,10.64,44.94,15.96
-989,-153,226,3.36,37.59,16.45
-1031,-180,289,5.53,22.4,10.43
-1112,-192,255,15.05,12.81,3.85
-1175,-166,189,30.03,12.25,-0.84
-1195,-124,125,41.44,16.38,-1.26
-1177,-68,87,48.79,18.27,-0.21
-1158,-27,57,59.92,15.47,0.0
-1158,1,15,77.7,11.27,-1.05
-1152,29,-48,95.06,8.75,-2.17
-1136,37,-107,105.28,7.7,-2.03
-1114,12,-132,106.68,7.7,-0.56
-1079,-40,-120,104.37,7.49,-0.28
-1046,-64,-116,103.18,5.67,-5.74
-1020,-40,-130,100.31,3.22,-13.23
-988,17,-157,91.14,0.63,-16.87
-952,77,-172,78.4,-2.66,-11.9
-905,109,-170,67.2,-4.41,-6.51
-846,131,-148,57.54,-7.56,-2.1
-665,207,-155,48.37,-10.08,-0.35
-945,135,-56,40.11,-17.64,6.93
-908,119,-74,15.89,-23.1,13.44
-878,104,-94,2.24,-22.68,19.18
-884,71,-69,-0.84,-16.73,22.19
-880,69,-44,-6.86,-10.29,21.77
-878,78,-16,-14.28,-4.55,21.56
-875,89,14,-21.49,-1.54,22.61
-857,101,105,-31.78,-0.42,24.43
-872,90,160,-48.09,1.4,29.12
-945,47,87,-60.76,2.17,34.23
-1032,-8,-45,-68.74,7.98,37.24
-1098,-58,-155,-73.99,19.74,37.8
-1151,-103,-233,-72.73,30.8,35.98
-1191,-140,-262,-62.23,36.89,30.31
-1233,-164,-243,-45.92,38.08,23.03
-1284,-208,-210,-27.93,37.24,18.2
-1309,-262,-187,-9.94,35.35,14.56
-1265,-286,-168,2.52,33.04,7.7
-1217,-270,-192,9.17,27.44,-2.59
-1170,-203,-241,15.12,18.13,-12.6
-1102,-75,-268,18.97,11.2,-18.27
-1029,48,-256,16.94,3.08,-16.24
-986,119,-215,11.9,-4.83,-9.52
-971,142,-155,5.11,-11.2,-0.49
-974,124,-129,-4.9,-16.52,10.15
-978,83,-111,-16.52,-19.25,19.6
-992,29,-110,-26.81,-21.0,24.78
-1002,-1,-120,-28.98,-23.45,23.03
-1019,-26,-121,-26.46,-24.92,17.71
-1018,-54,-132,-21.56,-24.64,11.48
-986,-49,-131,-14.56,-21.7,3.43
-950,-16,-135,-10.85,-17.64,-5.18
-929,18,-147,-10.36,-14.42,-11.48
-920,44,-151,-11.97,-11.76,-14.42
-906,74,-142,-15.89,-9.52,-13.93
-891,108,-133,-23.1,-8.96,-10.85
-892,119,-135,-32.69,-10.08,-4.83
-918,84,-148,-39.27,-10.92,2.66
-925,57,-117,-42.07,-9.45,7.28
-922,66,-86,-49.07,-8.19,10.43
-939,81,-83,-55.37,-7.98,14.56
-956,59,-89,-58.1,-7.77,19.11
-964,8,-80,-57.33,-7.35,20.72
-1016,-81,-68,-59.64,-7.14,14.7
-1080,-102,-85,-56.28,-9.1,3.78
-1120,-109,-99,-41.58,-9.45,-4.06
-1124,-85,-79,-25.34,-7.21,-10.01
-1112,-71,-75,-11.9,-4.69,-13.23
-1122,-76,-83,-1.05,-3.64,-16.03
-1141,-85,-93,7.91,-4.06,-18.55
-1152,-91,-91,16.38,-4.9,-19.6
-1165,-114,-85,22.33,-6.93,-19.81
-1179,-139,-76,27.65,-11.69,-19.74
-1176,-137,-46,39.62,-17.71,-21.35
-1166,-120,-21,56.77,-24.36,-22.54
-1139,-72,14,72.24,-30.66,-21.77
-1091,-6,27,80.57,-36.19,-17.85
-1052,28,0,86.31,-40.25,-11.55
-1009,42,-35,94.5,-42.21,-6.37
-972,51,-81,99.82,-41.44,-4.69
-937,63,-129,100.31,-40.18,-5.04
-937,105,-201,102.34,-38.29,-7.84
-939,192,-275,107.66,-34.44,-7.56
-913,276,-304,101.78,-29.61,2.8
-856,338,-269,82.32,-26.32,21.7
-810,347,-207,62.58,-29.05,41.02
-804,259,-143,50.61,-37.1,56.35
-817,168,-85,46.2,-45.22,63.56
-815,159,-31,45.08,-49.49,64.75
-801,208,10,41.93,-50.75,66.15
-798,252,17,31.99,-50.68,71.61
-810,260,8,19.81,-48.09,79.1
-840,218,1,9.94,-42.77,84.98
-888,144,3,3.92,-35.56,86.87
-949,53,6,1.05,-27.44,84.63
-998,-20,6,-0.21,-19.04,80.01
-1007,-28,7,1.54,-11.34,73.01
-978,42,0,6.23,-6.02,65.59
-939,127,-9,9.87,-2.17,61.46
-910,167,-14,10.36,-0.07,61.53
-899,152,-3,8.89,0.56,63.14
-903,116,11,6.65,-0.07,64.12
-919,79,27,5.88,-1.82,62.02
-927,57,38,5.88,-4.13,58.38
-911,60,56,7.77,-6.16,53.41
-879,81,70,8.75,-7.63,47.88
-851,81,72,5.46,-7.14,43.19
-829,72,80,-0.98,-5.53,38.01
-818,74,90,-8.05,-2.8,30.31
-816,85,104,-15.68,0.49,21.7
-815,83,112,-26.67,3.85,14.42
-805,69,135,-40.18,6.72,7.49
-779,70,246,-57.68,7.56,0.0
-755,118,410,-78.33,5.53,-6.3
-834,183,277,-82.88,7.21,-12.67
-927,148,153,-76.02,15.05,-12.6
-1033,53,68,-75.6,18.69,-10.99
-1106,68,-43,-57.47,23.52,-20.51
-1132,152,-119,-24.92,35.14,-30.94
-1142,208,-104,-2.59,40.46,-32.83
-1162,202,-52,10.71,35.42,-30.17
-1219,118,-4,22.75,29.82,-27.72
-1290,17,23,31.08,27.51,-28.28
-1350,-37,-5,40.67,29.05,-32.41
-1358,-1,-53,52.01,32.34,-36.26
-1296,93,-78,56.7,35.07,-35.35
-1221,198,-82,55.37,32.83,-28.56
-1166,255,-90,46.41,26.25,-17.29
-1135,258,-76,37.52,19.11,-3.64
-1130,237,-82,38.57,12.04,6.58
-1128,222,-39,47.6,8.05,11.48
-1126,192,14,53.41,4.83,13.72
-1153,159,1,57.54,2.45,12.53
-1178,132,-29,59.5,4.06,10.22
-1177,112,-76,61.32,7.42,6.37
-1162,106,-103,61.67,11.62,1.75
-1151,113,-143,61.25,15.82,-3.22
-1138,135,-172,63.56,19.25,-7.91
-1122,146,-168,64.12,20.37,-10.15
-1113,117,-135,63.21,18.06,-11.27
-1108,85,-109,61.74,16.24,-13.58
-1110,76,-160,60.2,14.28,-17.08
-1074,115,-193,61.81,12.81,-19.81
-1024,147,-174,63.28,10.22,-19.6
-994,154,-160,60.48,4.13,-17.43
-973,141,-158,53.9,-2.52,-14.77
-964,126,-152,47.74,-7.84,-12.53
-953,125,-135,41.02,-11.97,-11.13
-945,134,-131,29.33,-16.1,-7.42
-939,132,-110,21.21,-18.69,-4.9
-949,131,-102,20.23,-20.16,-5.25
-964,126,-132,19.18,-21.84,-6.44
-967,134,-150,13.72,-22.68,-6.51
-962,137,-139,6.16,-21.98,-5.46
-954,129,-136,3.22,-22.12,-5.32
-926,141,-103,2.94,-22.68,-6.58
-896,168,-72,-0.14,-21.7,-8.47
-867,206,-36,1.61,-21.56,-10.29
-842,223,-22,3.5,-22.05,-10.57
-826,225,-34,3.29,-24.22,-8.4
-791,254,-23,3.57,-27.09,-5.46
-752,304,-3,0.28,-28.35,-2.03
-727,343,7,-9.87,-27.86,4.34
-717,352,8,-21.77,-25.97,13.16
-728,315,20,-31.64,-23.45,21.77
-747,244,74,-39.13,-20.37,28.28
-784,172,92,-42.35,-16.73,29.19
-852,122,41,-37.59,-12.46,24.71
-922,83,-29,-29.96,-6.58,17.99
-998,36,-56,-27.72,-1.33,9.73
-1082,-3,-36,-31.43,3.71,-0.56
-1158,-21,-3,-33.39,7.21,-12.32
-1235,-8,-30,-30.31,9.17,-22.26
-1282,22,-108,-24.29,9.17,-28.7
-1262,54,-133,-18.83,9.45,-28.84
-1215,82,-115,-18.97,5.81,-25.27
-1173,101,-85,-18.13,0.49,-22.12
-1122,103,-59,-14.49,-4.48,-17.15
-1060,89,-24,-5.46,-10.36,-12.95
-1017,88,0,5.88,-14.98,-11.69
-991,112,6,11.55,-18.97,-11.27
-978,140,-4,12.39,-21.98,-9.31
-965,172,9,14.49,-22.4,-7.7
-951,190,33,11.48,-21.56,-4.97
-937,184,40,6.23,-20.58,-2.52
-930,161,42,4.9,-17.15,-2.73
-922,127,34,4.62,-14.63,-4.2
-911,114,33,4.97,-11.97,-7.77
-902,121,27,3.43,-9.31,-12.39
-901,139,15,1.61,-7.49,-16.31
-900,157,14,-0.91,-5.81,-18.41
-895,179,15,-4.27,-4.83,-18.62
-899,183,24,-7.84,-3.92,-17.29
-920,153,23,-11.48,-3.5,-14.7
-946,111,5,-10.85,-3.92,-14.14
-964,95,-11,-9.52,-3.5,-16.1
-970,102,-15,-10.22,-2.38,-17.64
-965,117,-19,-10.57,-1.33,-17.57
-956,116,-27,-11.55,-1.26,-15.82
-940,102,-11,-12.6,-1.68,-13.09
-925,87,22,-12.18,-0.63,-10.5
-917,77,41,-8.68,1.12,-8.68
-920,63,27,-4.76,2.1,-7.35
-928,40,8,-1.4,2.45,-7.21
-934,30,-6,0.49,3.64,-8.75
-927,46,1,2.1,5.25,-10.78
-918,84,9,3.99,6.79,-12.46
-910,127,20,5.11,6.72,-13.09
-907,141,56,2.17,6.72,-10.71
-919,137,82,-2.17,7.77,-7.56
-940,141,70,-3.92,7.98,-6.09
-971,138,39,-2.52,8.19,-4.97
-1000,112,11,0.14,10.57,-2.73
-1015,76,-3,1.26,13.79,-0.21
-1019,40,7,2.45,15.54,0.63
-1024,7,24,3.5,14.63,-0.7
-1033,-16,32,3.92,13.44,-2.87
-1045,-30,-2,5.81,12.6,-5.67
-1071,-34,-51,11.76,12.39,-9.17
-1088,-34,-87,15.33,13.3,-10.71
-1088,-28,-106,18.2,14.28,-11.97
-1069,1,-102,20.72,14.91,-13.86
-1043,37,-76,21.84,14.7,-14.07
-1026,53,-56,22.4,14.42,-12.11
-1008,49,-40,22.89,13.93,-9.66
-984,51,-20,22.68,13.65,-8.47
-963,65,-6,23.45,13.37,-8.4
-949,85,8,24.22,12.74,-8.12
-951,99,22,25.97,12.39,-6.72
-969,95,26,28.21,12.39,-3.78
-997,73,13,29.05,12.25,0.28
-1024,32,-12,27.72,12.11,4.13
-1054,1,-47,27.44,12.25,5.32
-1065,-9,-78,27.44,12.67,4.97
-1059,-1,-102,28.49,12.95,3.29
-1036,22,-115,30.24,13.16,0.21
-1019,58,-131,29.19,11.62,-2.17
-995,93,-115,24.29,8.82,-1.96
-986,117,-88,17.43,5.88,0.63
-996,129,-89,13.23,4.2,3.5
-1004,121,-79,6.23,2.45,8.26
-1017,90,-61,-0.77,0.21,11.97
-1030,52,-47,-2.24,-2.31,12.11
-1034,22,-45,-0.98,-3.15,10.01
-1022,21,-69,2.31,-2.94,7.14
-990,45,-72,6.93,-1.75,4.62
-947,69,-58,7.91,-0.28,4.48
-924,83,-74,8.33,0.42,5.25
-906,84,-80,9.73,1.82,5.88
-894,75,-83,9.52,2.73,5.88
-894,77,-81,9.03,3.01,4.55
-894,88,-63,7.91,2.8,3.57
-890,97,-34,5.74,2.59,3.08
-892,108,-9,2.87,3.01,2.45
-910,119,-21,1.33,4.2,2.24
-930,113,-37,0.91,6.79,2.73
-953,83,-49,-0.98,10.43,3.15
-983,40,-72,-2.31,13.86,2.52
-1013,3,-114,-3.43,17.57,0.63
-1033,-13,-134,-5.81,19.88,-0.49
-1041,-19,-120,-8.96,21.28,-0.35
-1042,-8,-94,-8.19,20.44,-1.05
-1038,14,-42,-4.76,17.78,0.56
-1033,38,14,-2.73,14.63,4.83
-1042,49,19,2.8,13.72,8.61
-1070,41,-37,13.16,15.26,10.01
-1098,17,-112,23.87,15.05,9.8
-1119,-3,-161,28.0,13.93,8.61
-1136,0,-189,25.34,13.02,6.93
-1134,13,-194,21.63,12.46,5.53
-1114,30,-186,17.08,12.6,5.46
-1078,52,-173,13.86,11.76,5.81
-1042,77,-155,11.76,9.1,6.86
-1014,108,-126,9.87,4.62,8.75
-986,135,-99,8.54,0.77,11.55
-958,161,-69,10.15,-1.54,14.0
-940,172,-44,13.09,-2.45,16.17
-942,158,-67,16.1,-3.64,17.85
-943,144,-93,16.8,-4.69,18.13
-941,132,-102,12.25,-4.76,17.15
-945,124,-109,6.93,-4.06,14.49
-952,115,-112,1.33,-3.29,11.41
-958,102,-118,-4.76,-2.66,8.96
-957,96,-118,-8.19,-1.75,6.72
-953,99,-125,-10.43,-1.26,5.39
-931,107,-100,-11.34,-1.12,5.39
-910,121,-53,-8.54,-0.63,5.95
-920,122,-63,-0.7,-0.28,6.37
-942,103,-95,2.94,-0.14,9.1
-976,62,-137,1.75,-0.28,12.46
-1012,34,-161,0.42,1.12,13.09
-1037,27,-169,0.21,3.57,11.13
-1053,45,-165,-0.91,5.88,8.33
-1055,74,-156,-3.15,7.35,6.16
-1048,93,-146,-5.67,7.07,5.11
-1027,112,-131,-7.63,6.02,4.55
-1003,142,-120,-9.66,3.71,4.9
-960,184,-49,-10.43,1.54,6.23
-931,218,13,-6.37,0.7,7.07
-937,218,26,2.73,0.98,6.65
-974,181,-33,3.5,0.14,7.14
-1028,129,-109,-4.62,0.0,6.44
-1077,85,-130,-16.52,2.94,4.76
-1118,67,-111,-22.68,6.79,1.05
-1164,55,-101,-27.44,8.96,-1.75
-1207,28,-83,-31.29,9.59,-4.41
-1258,-6,-43,-32.62,8.26,-7.84
-1321,-41,-26,-34.93,3.99,-10.78
-1377,-59,-20,-28.84,-2.52,-14.14
-1442,-78,-58,-19.32,-10.08,-15.82
-1488,-103,-112,-12.88,-15.82,-16.1
-1497,-104,-153,-5.6,-21.21,-17.57
-1461,-76,-162,3.99,-25.41,-19.81
-1385,-16,-177,13.86,-27.51,-20.72
-1293,20,-210,27.93,-27.44,-21.77
-1194,32,-220,35.77,-30.87,-18.69
-1088,16,-218,38.43,-36.61,-16.59
-988,27,-196,41.02,-39.9,-18.9
-899,66,-183,44.24,-41.16,-23.17
-818,98,-200,55.51,-39.27,-30.31
-722,185,-200,69.3,-32.76,-39.13
-613,278,-198,80.15,-21.77,-44.73
-504,360,-214,79.94,-9.87,-45.64
-399,424,-205,70.49,0.28,-42.0
-340,416,-235,48.09,4.62,-30.87
-263,432,-163,29.75,10.85,-19.81
-248,357,-216,11.06,14.7,-7.77
-263,292,-163,16.59,21.98,-2.59
-383,249,-171,21.63,25.76,-6.65
-344,304,-149,15.75,23.38,-7.49
-403,357,-18,-8.19,25.48,-4.83
-425,385,52,-64.4,13.51,8.26
-597,312,65,-83.65,-9.03,13.44
-840,178,238,-67.34,-14.56,9.8
-1178,-42,222,-74.69,-19.04,14.84
-1498,-331,87,-98.21,-16.17,20.44
-1796,-623,28,-102.48,-6.51,12.11
-1989,-818,-159,-85.4,13.44,0.49
-1997,-447,-258,-36.82,30.66,-3.01
-1762,-299,-113,24.08,20.79,-38.85
-1617,-252,-117,42.49,0.56,-63.63
-1550,-223,-139,36.4,-19.25,-70.63
-1462,-149,-122,36.05,-26.18,-72.73
-1349,-60,-68,33.18,-27.09,-65.45
-1252,-18,-58,28.77,-24.71,-51.59
-1147,27,-63,28.42,-21.77,-39.9
-1023,88,-59,24.22,-23.66,-30.24
-922,134,-44,15.26,-29.4,-22.26
-861,168,-18,8.33,-34.72,-15.61
-823,182,-5,4.48,-36.96,-7.07
-765,193,-11,3.22,-35.35,0.49
-690,218,-1,3.5,-32.55,6.79
-642,235,-33,1.61,-30.45,13.86
-599,241,-66,1.96,-30.66,20.51
-534,249,-92,-1.82,-33.67,26.74
-476,259,-122,-9.8,-38.01,29.89
-412,266,-132,-20.44,-43.05,28.98
-400,259,-143,-38.36,-48.79,29.26
-433,256,-177,-56.49,-44.66,30.17
-564,194,-152,-67.06,-32.2,22.47
-452,116,35,-61.39,-11.97,11.13
-183,177,493,-77.42,-2.59,14.28
-510,223,324,-90.44,-37.03,-6.51
-1064,340,-537,-77.49,-73.5,-34.44
-1182,386,-837,-90.44,-35.98,-14.14
-1203,216,-88,-115.78,71.05,43.47
-1175,-402,794,-147.42,123.62,88.48
-1573,-940,589,-129.36,75.18,77.14
-1991,-1220,-156,-77.21,4.55,24.01
-1951,-572,-537,-13.16,58.24,-29.96
-1552,-200,55,74.83,80.99,-79.66
-1385,-13,15,58.66,33.32,-75.88
-1352,-43,-172,29.68,-2.73,-73.01
-1341,-94,-163,21.63,-20.16,-66.5
-1347,-149,-112,22.96,-25.76,-52.5
-1332,-184,-76,32.27,-24.08,-41.16
-1260,-106,-115,47.11,-13.16,-32.13
-1091,70,-118,63.07,-0.07,-18.9
-840,209,-32,67.48,2.8,-2.1
-729,232,-79,61.04,-9.59,7.14
-673,241,-162,57.96,-22.47,7.56
-597,293,-163,45.29,-25.27,11.9
-475,389,-42,16.59,-24.29,22.61
-347,355,183,-15.82,-30.38,32.69
-380,295,218,-55.02,-38.71,49.77
-429,152,282,-98.49,-41.02,59.36
-538,170,399,-138.53,-39.06,49.49
-960,106,-96,-136.5,-52.57,9.87
-1029,255,-565,-139.37,-58.24,11.48
-996,341,-651,-121.31,15.05,45.71
-949,180,-2,-125.58,96.88,78.96
-1215,-318,582,-194.11,126.49,103.25
-1599,-812,722,-183.47,102.34,85.82
-1921,-944,333,-65.31,15.05,36.47
-1672,-534,-236,41.65,13.3,-25.9
-1393,-206,-85,83.72,7.63,-78.96
-1325,57,-198,48.86,-7.35,-81.97
-1301,120,-103,36.19,-17.64,-63.91
-1262,47,-33,32.13,-15.12,-34.44
-1240,-65,-120,34.09,-4.55,-7.7
-1110,-68,-297,46.48,8.75,5.81
-931,15,-422,60.62,13.09,7.0
-831,86,-493,63.49,12.39,0.28
-723,184,-378,60.55,16.87,-0.98
-601,272,-197,52.22,21.0,5.25
-461,333,6,38.64,9.17,13.37
-374,350,261,16.66,-13.3,19.88
-469,284,227,-22.33,-42.91,26.25
-567,248,232,-55.72,-61.04,32.9
-641,321,357,-96.95,-50.33,41.72
-855,333,-137,-126.63,-46.2,46.97
-957,310,-238,-135.59,-21.7,61.81
-1049,192,-216,-135.1,32.34,81.41
-1198,-73,-18,-151.27,61.88,101.78
-1361,-403,155,-148.75,76.09,95.55
-1616,-606,329,-101.99,55.16,70.91
-1756,-631,64,-32.55,15.61,33.67
-1413,-335,-47,53.48,14.77,-19.39
-1274,-92,-18,91.07,4.41,-59.43
-1316,72,-65,77.91,-11.62,-66.5
-1337,128,-19,70.63,-12.53,-53.41
-1266,130,-84,62.51,-6.3,-24.29
-1066,145,-197,66.22,-0.91,-2.87
-920,173,-262,78.47,2.87,-4.34
-812,247,-276,85.05,7.0,-10.5
-689,317,-221,75.32,8.96,-7.07
-506,392,-8,51.52,7.77,3.71
-367,415,249,10.22,-9.52,16.31
-497,317,238,-35.56,-41.51,23.52
-681,272,-2,-53.34,-50.54,24.22
-836,240,-177,-44.45,-32.9,27.3
-835,177,-113,-42.63,4.9,39.27
-918,39,-49,-72.73,22.89,51.1
-1140,-150,-122,-91.0,32.27,41.09
-1263,-218,28,-75.11,56.98,20.86
-1390,-274,173,-75.53,51.59,15.26
-1511,-385,63,-54.67,33.67,7.42
-1423,-328,-63,1.75,33.6,-11.13
-1340,-206,-113,51.52,18.83,-28.98
-1345,-125,-170,79.03,-3.64,-34.3
-1284,-30,-138,94.08,-10.43,-28.35
-1114,58,-79,97.44,-12.95,-17.5
-989,106,-71,94.43,-18.69,-13.37
-906,179,-109,98.28,-21.84,-20.65
-819,304,-86,106.89,-19.6,-27.93
-700,433,30,102.62,-12.46,-24.85
-588,524,170,80.78,-9.17,-14.91
-543,517,191,52.5,-19.32,-5.67
-615,453,49,33.95,-34.3,-2.03
-747,374,-166,20.72,-42.42,0.84
-863,303,-271,1.19,-26.46,6.79
-957,207,-187,-30.73,10.22,14.77
-1026,83,-56,-65.66,40.81,20.79
-1109,-55,50,-81.76,46.06,20.09
-1240,-186,45,-78.4,30.31,13.02
-1362,-273,-37,-60.97,20.65,0.63
-1425,-312,-86,-42.28,21.98,-7.0
-1402,-320,-96,-24.01,22.12,-8.12
-1322,-267,-90,0.28,12.46,-10.5
-1228,-162,-86,27.51,-0.98,-17.15
-1135,-36,-70,48.51,-12.46,-24.08
-1061,80,-49,59.01,-18.48,-28.49
-991,184,-14,65.31,-19.25,-29.47
-922,243,6,67.2,-18.55,-27.02
-877,286,4,66.29,-15.68,-23.94
-856,310,13,60.2,-13.02,-20.37
-864,298,9,47.6,-11.06,-14.63
-903,243,-11,33.39,-7.14,-9.59
-949,154,16,19.11,-0.63,-7.77
-1009,61,31,1.89,3.15,-9.73
-1075,-30,5,-10.5,2.03,-14.14
-1147,-108,-47,-15.33,0.0,-20.44
-1188,-157,-60,-13.16,-0.35,-26.6
-1174,-181,-27,-6.58,-2.87,-31.57
-1170,-173,-33,3.5,-8.26,-38.01
-1176,-150,-69,14.28,-15.4,-43.96
-1182,-109,-91,27.02,-19.81,-45.08
-1154,-55,-78,41.09,-21.63,-42.07
-1099,-6,-34,47.53,-25.55,-36.47
-1048,40,-19,51.1,-29.89,-32.76
-990,106,29,56.21,-31.85,-31.57
-937,171,70,56.98,-34.72,-28.07
-910,201,71,59.01,-37.38,-22.54
-911,187,29,65.17,-35.42,-18.13
-901,155,15,64.47,-31.15,-13.93
-909,109,0,53.2,-28.0,-9.66
-920,65,-13,43.19,-24.85,-7.98
-930,24,-3,39.13,-20.65,-8.19
-948,-29,10,34.93,-17.71,-8.05
-976,-95,0,29.4,-16.45,-8.89
-988,-135,4,29.12,-15.4,-12.04
-997,-137,-10,33.04,-15.4,-15.89
-997,-113,-25,42.28,-15.26,-18.27
-991,-94,-29,51.45,-14.98,-16.94
-991,-86,-47,55.93,-15.89,-13.79
-982,-65,-46,58.31,-15.82,-10.5
-964,-32,-37,57.19,-16.31,-6.79
-945,-8,-34,54.6,-16.73,-3.15
-929,0,-23,53.41,-16.66,-0.35
-913,6,-19,52.57,-16.52,1.19
-901,17,-22,51.31,-16.03,1.4
-885,31,-18,47.88,-15.82,2.52
-868,44,-8,42.56,-15.61,4.62
-856,55,7,36.33,-16.31,6.79
-861,52,34,29.05,-18.9,9.94
-880,33,55,20.93,-22.05,13.86
-912,10,75,15.19,-24.78,17.78
-955,-7,85,9.52,-27.79,22.12
-998,-30,111,1.26,-30.87,28.28
-1044,-64,147,-10.64,-34.02,34.65
-1077,-86,186,-20.51,-36.75,37.52
-1098,-92,186,-25.13,-37.17,36.75
-1089,-93,167,-24.15,-36.75,33.95
-1059,-109,158,-23.1,-37.03,29.12
-1031,-131,122,-23.94,-39.13,21.91
-983,-126,139,-25.27,-44.1,12.88
-924,-89,198,-34.93,-50.4,3.99
-898,-56,247,-52.92,-58.52,-2.45
-869,-39,283,-69.65,-68.67,-3.92
-853,-56,312,-87.29,-78.75,-3.08
-860,-102,346,-104.37,-86.1,-2.59
-866,-150,380,-120.47,-92.12,-5.18
-928,-207,390,-136.43,-95.69,-10.71
-960,-273,401,-142.8,-98.35,-15.33
-988,-353,400,-150.57,-102.2,-20.51
-972,-421,452,-162.89,-105.63,-26.53
-962,-437,490,-177.45,-105.7,-34.16
-939,-373,511,-175.84,-98.14,-46.41
-893,-350,478,-159.25,-94.78,-58.8
-956,-380,468,-128.31,-96.6,-67.69
-946,-383,472,-96.74,-97.23,-78.05
-933,-342,495,-81.62,-97.79,-87.92
-919,-282,492,-88.34,-98.14,-92.33
-910,-221,474,-100.45,-96.81,-94.01
-931,-161,406,-107.94,-94.71,-98.98
-908,-47,393,-113.05,-95.06,-106.75
-900,109,417,-129.08,-90.16,-105.07
-911,130,419,-144.9,-81.48,-85.89
-914,-2,431,-140.21,-70.98,-61.46
-903,-161,468,-121.59,-62.23,-48.51
-902,-273,484,-103.04,-57.26,-46.27
-912,-330,470,-90.37,-53.55,-49.49
-929,-331,444,-80.22,-50.26,-55.23
-934,-301,414,-70.56,-47.46,-59.57
-928,-275,380,-59.01,-43.47,-59.85
-917,-262,356,-44.38,-40.6,-57.26
-914,-278,347,-28.56,-38.5,-53.62
-905,-297,349,-14.07,-35.21,-49.77
-896,-313,337,-1.96,-31.29,-47.74
-870,-313,314,10.57,-29.54,-47.81
-896,-296,331,22.33,-28.14,-49.14
-896,-252,334,28.0,-27.3,-49.35
-861,-206,329,30.45,-28.91,-44.94
-861,-176,330,30.31,-29.26,-36.05
-826,-156,325,31.92,-28.21,-22.4
-805,-190,335,23.87,-26.74,-7.07
-785,-221,337,9.31,-23.17,0.28
-791,-224,326,-1.89,-19.39,2.17
-798,-230,335,-4.55,-16.73,3.43
-803,-241,354,-4.69,-14.07,6.86
-802,-268,361,-2.8,-12.39,10.99
-781,-305,360,2.94,-12.04,12.53
-775,-335,365,8.82,-12.04,10.92
-770,-340,373,9.94,-11.41,8.05
-756,-326,372,8.54,-9.87,5.88
-741,-304,385,7.14,-7.35,4.48
-726,-302,399,3.71,-4.48,6.02
-721,-305,408,-1.96,-1.33,8.82
-719,-333,416,-7.7,2.66,12.74
-731,-364,417,-11.06,6.58,16.59
-714,-373,418,-8.89,9.73,16.1
-707,-354,419,-2.52,11.9,12.11
-708,-337,420,3.5,11.9,9.24
-701,-328,427,6.23,12.32,9.8
-692,-330,438,3.29,13.93,13.51
-696,-343,450,-2.38,15.54,17.78
-705,-357,458,-7.0,16.94,19.95
-708,-358,472,-7.77,19.95,20.79
-716,-356,480,-8.26,22.4,22.82
-731,-358,477,-7.49,24.43,25.48
-744,-360,472,-3.64,26.53,27.65
-756,-362,463,0.07,28.84,30.52
-767,-358,454,1.54,31.01,33.6
-775,-353,446,0.14,32.34,36.54
-777,-351,453,-4.34,33.04,40.11
-777,-366,465,-9.31,33.95,42.91
-784,-392,467,-11.06,35.35,44.03
-800,-415,456,-12.6,37.87,43.96
-820,-431,442,-19.18,40.74,43.61
-821,-421,438,-31.57,42.91,43.68
-820,-394,453,-48.44,43.82,45.5
-832,-351,431,-68.18,45.01,50.68
-868,-320,445,-82.74,43.61,57.05
-893,-276,394,-88.69,39.13,63.98
-906,-261,317,-77.28,29.96,66.85
-927,-270,265,-52.36,20.23,63.63
-943,-286,267,-23.03,13.51,57.89
-954,-300,291,-1.54,11.41,52.92
-937,-319,319,8.75,11.06,50.19
-891,-323,415,17.22,12.81,46.76
-881,-301,451,36.05,16.66,39.9
-909,-313,411,60.9,26.25,34.37
-931,-375,403,62.58,40.32,33.11
-905,-447,482,36.75,51.24,33.67
-959,-489,511,5.95,53.41,27.72
-1002,-447,449,-16.66,50.54,16.17
-1019,-381,423,-26.25,45.15,8.89
-1037,-350,425,-27.09,37.66,6.23
-1064,-349,443,-27.3,30.45,8.4
-1074,-362,465,-28.42,20.23,13.79
-1099,-389,432,-22.47,7.07,19.95
-1118,-409,335,-2.31,0.0,23.24
-1128,-422,235,23.03,4.13,23.1
-1104,-401,159,40.67,13.58,19.67
-1046,-341,148,49.14,20.58,14.91
-998,-270,190,49.84,21.49,11.62
-966,-225,246,43.61,16.17,10.36
-955,-213,295,34.02,8.33,12.39
-955,-216,320,26.95,2.59,14.56
-966,-219,315,26.18,-0.63,14.42
-982,-195,285,32.06,-2.17,12.18
-989,-151,255,37.52,-3.64,10.22
-997,-119,234,38.08,-4.27,11.13
-997,-112,232,36.61,-4.27,13.72
-999,-119,240,35.0,-3.92,14.98
-997,-131,254,33.39,-3.22,14.7
-1006,-128,270,33.11,-2.8,13.51
-1011,-97,280,35.21,-2.94,12.53
-1018,-56,274,39.76,-2.59,13.72
-1027,-29,276,46.62,-0.28,16.8
-1045,-30,284,50.54,2.31,22.47
-1075,-83,286,48.65,2.38,30.03
-1092,-138,287,43.4,1.47,36.26
-1073,-151,287,35.42,0.42,37.45
-1064,-132,273,35.0,2.24,35.07
-1065,-103,224,45.36,5.74,32.2
-1072,-56,169,56.63,9.24,30.73
-1063,-25,151,60.27,12.88,32.27
-1048,-3,161,62.16,16.24,35.0
-1030,35,187,66.36,18.48,37.1
-1021,61,215,68.74,20.72,40.39
-1028,57,229,69.37,22.54,46.55
-1037,35,227,68.74,24.5,53.97
-1050,3,203,69.44,28.0,59.64
-1040,-18,189,71.61,32.9,62.37
-1012,-20,181,72.45,37.94,62.93
-979,-10,163,72.87,39.97,60.06
-951,32,163,73.85,40.67,53.48
-927,106,165,68.11,43.05,48.23
-906,168,180,56.14,44.87,49.98
-898,181,212,45.5,43.4,57.33
-896,144,243,36.4,41.16,65.03
-909,71,260,32.69,40.67,68.11
-935,1,274,35.28,40.95,66.29
-953,-19,269,39.55,43.4,62.16
-944,8,247,45.5,45.43,57.4
-923,46,226,54.53,47.18,53.34
-899,73,212,64.89,48.51,49.07
-886,98,199,74.13,50.05,45.08
-867,124,186,79.94,51.52,42.49
-850,150,180,83.93,52.78,41.02
-848,164,179,87.92,52.64,39.27
-853,181,179,91.21,52.71,38.29
-861,203,166,89.53,53.13,39.2
-873,210,155,85.19,53.34,42.49
-867,222,151,79.31,52.71,46.41
-853,246,150,73.64,50.19,50.12
-847,272,157,70.49,46.62,51.38
-861,296,166,67.62,42.28,52.78
-881,277,169,63.07,39.76,55.65
-893,237,173,57.89,38.71,57.05
-902,196,159,56.14,37.45,55.65
-920,175,143,59.64,36.12,49.98
-934,181,116,64.05,35.21,42.56
-948,198,104,64.61,35.14,36.68
-956,219,102,57.61,36.82,33.67
-956,241,90,48.72,37.03,32.13
-958,256,85,44.31,35.49,29.61
-965,254,92,41.3,32.69,27.58
-985,234,89,37.94,30.17,25.55
-1007,213,96,36.89,27.51,21.91
-1026,197,99,35.98,25.76,17.78
-1043,184,97,34.23,24.64,13.93
-1057,170,95,32.9,22.61,9.59
-1069,176,91,33.53,19.25,4.27
-1077,182,95,36.47,14.28,-1.12
-1084,191,106,39.34,9.24,-4.76
-1096,209,116,41.02,4.34,-6.3
-1107,207,121,42.42,-0.14,-6.3
-1114,217,130,44.17,-4.83,-7.56
-1130,223,130,42.42,-9.73,-6.93
-1140,239,125,36.89,-14.77,-5.04
-1143,243,124,32.27,-20.02,-2.1
-1136,255,133,30.66,-25.9,0.42
-1124,263,135,28.7,-32.48,4.27
-1090,272,160,30.59,-38.85,5.6
-1061,297,182,32.55,-46.97,6.51
-1059,296,175,31.08,-55.58,11.55
-1038,294,177,35.7,-61.67,12.39
-1029,311,154,41.3,-70.07,11.34
-1038,315,111,40.81,-77.42,13.09
-1023,318,97,38.08,-83.16,12.32
-1008,341,87,31.64,-88.41,11.97
-989,368,83,22.61,-90.51,13.23
-962,389,84,14.0,-90.72,16.31
-938,399,73,11.06,-90.65,19.46
-920,409,34,14.49,-90.16,21.77
-903,411,-8,21.91,-87.92,23.8
-878,389,-37,25.76,-83.79,26.81
-863,367,-45,19.39,-77.7,30.66
-843,369,-35,3.85,-70.49,32.62
-829,379,-14,-9.73,-64.54,32.62
-820,411,3,-17.78,-58.59,31.15
-825,439,4,-24.92,-51.59,31.71
-831,441,-3,-31.99,-43.33,34.65
-841,412,12,-40.25,-36.05,38.57
-846,365,35,-50.61,-31.01,41.79
-852,331,74,-61.53,-27.65,41.72
-843,320,112,-68.74,-26.11,38.57
-843,317,127,-69.44,-27.72,32.97
-846,318,125,-61.11,-29.4,26.04
-858,300,119,-47.39,-31.01,18.48
-873,271,109,-34.16,-32.13,10.29
-875,265,111,-26.53,-31.36,1.19
-863,295,121,-22.96,-29.89,-6.09
-847,377,111,-16.8,-28.56,-10.92
-829,469,74,-2.66,-27.3,-11.69
-811,510,31,13.86,-23.38,-6.79
-811,498,13,23.59,-16.52,1.33
-818,457,20,22.89,-8.26,10.22
-821,422,44,17.01,-0.35,16.94
-825,406,58,14.35,5.04,21.0
-836,391,60,17.92,8.75,22.82
-857,370,53,23.52,11.97,22.75
-883,352,50,26.74,14.77,20.86
-904,342,45,25.13,17.15,18.76
-921,340,34,21.35,19.32,16.52
-936,338,27,18.06,21.84,13.58
-956,328,22,14.7,23.8,10.29
-976,314,24,9.17,25.97,7.0
-992,307,29,-0.63,28.7,3.57
-1006,301,29,-14.28,31.22,0.28
-1020,285,29,-24.36,33.53,-3.78
-1037,266,39,-29.4,35.56,-10.29
-1055,248,58,-34.37,36.61,-18.06
-1065,237,80,-40.18,37.45,-26.11
-1060,236,97,-46.76,37.38,-35.0
-1052,231,109,-53.55,38.5,-42.42
-1044,212,119,-59.22,39.62,-47.25
-1026,196,144,-61.88,40.11,-50.82
-1002,188,173,-62.02,40.74,-55.09
-996,171,196,-63.14,39.76,-59.29
-998,155,200,-62.79,37.38,-61.39
-1002,134,200,-59.15,35.07,-63.63
-1003,111,209,-55.16,33.53,-66.43
-1000,89,222,-54.04,31.57,-68.53
-970,70,233,-54.6,27.79,-70.49
-1027,31,257,-57.12,20.58,-71.12
-996,-16,267,-58.73,17.71,-73.71
-978,-23,276,-55.93,16.03,-77.56
-970,18,237,-49.77,12.81,-86.38
-955,89,208,-39.27,8.89,-99.89
-964,121,196,-33.95,4.83,-107.87
-982,89,197,-35.42,1.26,-108.99
-998,17,199,-38.57,1.19,-111.93
-1011,-37,210,-42.42,2.66,-122.71
-1020,-58,232,-49.91,-0.49,-139.86
-1030,4,234,-60.41,-4.97,-156.87
-1044,123,237,-77.35,-8.26,-168.98
-1059,197,229,-104.51,-8.82,-165.62
-949,220,144,-123.2,-0.98,-143.85
-1097,130,265,-121.17,16.45,-126.49
-1039,77,281,-135.8,18.2,-114.87
-986,10,270,-140.84,12.11,-106.82
-979,-50,239,-138.6,11.2,-103.67
-991,-101,222,-131.11,16.24,-103.46
-991,-142,204,-116.55,23.45,-106.96
-1005,-153,218,-95.06,26.67,-117.18
-994,-122,208,-76.16,25.34,-131.25
-1011,-80,219,-60.06,23.73,-140.0
-1033,0,216,-52.43,21.14,-136.22
-1024,67,213,-47.04,17.01,-121.03
-1018,75,240,-42.21,13.51,-95.83
-1004,18,268,-40.67,9.94,-65.31
-1000,-101,284,-39.97,4.9,-40.46
-1009,-227,270,-34.09,-0.98,-26.39
-1019,-299,244,-19.6,-5.95,-21.91
-1005,-282,220,-0.98,-8.19,-23.31
-979,-230,199,16.94,-8.54,-26.39
-956,-181,197,31.64,-9.03,-26.74
-959,-155,179,41.3,-10.29,-22.82
-965,-130,155,50.54,-10.43,-17.5
-965,-104,142,59.57,-7.7,-10.78
-941,-77,157,66.08,-3.78,-1.4
-914,-58,172,68.6,-0.98,8.54
-910,-54,173,66.5,-1.47,17.71
-922,-71,172,61.74,-3.29,26.81
-934,-106,151,57.05,-2.1,36.26
-934,-127,133,58.31,1.33,41.16
-932,-125,142,59.92,4.27,42.63
-938,-116,150,58.8,5.32,44.1
-935,-99,158,56.98,5.53,45.43
-943,-81,156,53.97,7.0,48.16
-949,-63,159,50.61,8.96,51.87
-957,-39,158,45.01,9.87,56.98
-969,-22,158,36.12,8.75,63.98
-989,-40,159,27.86,8.68,71.4
-1002,-77,163,23.8,8.61,77.42
-1021,-115,163,22.96,7.07,79.59
-1034,-132,166,25.55,4.62,78.05
-1054,-125,165,29.12,2.8,75.74
-1071,-135,164,32.69,-0.07,74.69
-1077,-141,179,38.64,-2.45,72.24
-1061,-137,195,47.32,-2.24,67.34
-1041,-120,203,55.79,-1.26,63.14
-1026,-100,184,61.25,-0.28,60.48
-1027,-75,158,65.17,-0.56,58.45
-1021,-41,172,68.04,-1.89,56.14
-1014,-11,195,69.16,-2.31,56.0
-1015,11,206,71.61,-2.66,56.84
-1018,23,204,72.45,-2.66,58.38
-1039,13,189,65.73,-3.64,63.49
-1046,0,178,57.54,-5.11,69.23
-1045,-4,196,52.78,-7.0,71.54
-1054,21,200,46.69,-9.66,72.38
-1051,39,198,40.81,-11.2,74.27
-1052,50,197,36.75,-11.9,76.93
-1044,48,198,32.48,-12.74,79.03
-1046,38,199,31.71,-14.49,79.66
-1047,39,218,32.06,-15.68,78.05
-1053,51,225,30.38,-16.1,76.51
-1043,60,229,31.01,-16.31,75.11
-1035,48,226,33.53,-16.17,73.64
-1029,42,220,36.19,-16.31,70.63
-1016,46,211,37.52,-17.29,65.24
-1010,55,204,37.17,-18.06,59.36
-1003,75,206,35.7,-18.97,54.18
-999,91,211,33.95,-18.9,49.84
-997,91,201,32.06,-17.99,47.6
-984,98,195,29.4,-17.57,46.62
-971,111,183,25.41,-16.8,45.92
-956,117,180,21.98,-17.29,44.24
-951,126,168,19.46,-17.15,41.51
-947,138,166,16.66,-17.43,38.5
-943,136,165,11.97,-18.06,36.33
-939,130,161,6.93,-17.99,34.3
-936,122,151,2.31,-19.04,30.38
-926,109,148,-1.05,-19.46,25.34
-918,103,137,-2.94,-19.6,18.69
-911,100,125,-4.48,-20.16,11.83
-908,98,116,-7.42,-20.3,5.46
-898,103,114,-10.85,-19.6,-0.49
-888,108,98,-12.11,-17.64,-6.44
-881,111,70,-11.27,-15.54,-12.88
-880,124,44,-11.97,-13.02,-19.81
-877,147,19,-15.61,-9.38,-25.06
-870,171,0,-20.65,-4.76,-28.84
-867,183,-10,-23.45,1.19,-32.2
-870,183,-19,-24.99,8.19,-34.16
-860,181,-23,-25.69,16.03,-34.44
-850,179,-26,-25.41,24.29,-34.09
-831,192,-32,-22.82,32.13,-34.3
-804,222,-33,-16.17,38.85,-35.07
-794,263,-20,-12.39,42.77,-34.58
-811,274,-7,-14.98,43.75,-31.99
-840,253,26,-21.84,46.27,-26.25
-875,215,50,-30.66,50.61,-17.5
-897,167,58,-35.84,54.46,-9.24
-913,129,46,-37.66,56.63,-5.18
-907,109,56,-38.29,56.56,-6.23
-892,114,105,-39.62,56.63,-8.61
-861,157,205,-41.02,54.39,-11.69
-816,249,310,-38.08,49.91,-16.03
-890,312,253,-14.91,43.4,-21.07
-983,310,258,-18.2,33.53,-11.97
-1056,271,445,-65.03,48.23,15.26
-1079,167,760,-118.37,65.66,38.08
-1274,-39,830,-153.02,44.8,54.67
-1547,-287,570,-120.61,26.18,46.27
-1522,-222,371,-44.73,29.47,22.33
-1361,-63,279,8.68,17.43,0.42
-1305,51,150,45.64,-3.99,-16.87
-1297,116,48,76.65,-14.14,-33.32
-1257,183,0,89.25,-16.87,-38.99
-1182,236,-9,89.81,-16.59,-37.03
-1109,239,-32,87.99,-13.3,-32.27
-1049,199,-38,87.99,-8.89,-31.64
-1002,181,-38,86.59,-4.9,-36.26
-964,204,-31,77.63,-1.19,-41.72
-923,262,-25,63.42,2.24,-42.28
-890,303,-28,48.72,4.69,-36.19
-859,325,-30,34.23,6.3,-26.95
-829,322,-25,17.92,6.23,-16.45
-810,292,-3,1.47,4.97,-6.44
-813,242,29,-11.48,3.08,-0.14
-840,190,48,-20.3,0.21,2.31
-876,154,74,-26.81,-2.03,3.08
-914,136,103,-32.97,-3.36,3.43
-952,124,128,-35.77,-3.85,2.66
-984,121,138,-34.93,-3.71,1.19
-1013,131,136,-32.76,-3.29,-0.77
-1034,141,131,-31.57,-3.78,-1.19
-1046,147,131,-29.12,-4.69,-0.7
-1049,137,134,-24.92,-6.37,-0.63
-1048,118,129,-20.37,-7.42,-0.28
-1039,104,125,-14.7,-7.49,-0.7
-1027,93,117,-8.05,-7.21,-2.03
-1012,85,113,-1.96,-6.58,-3.22
-997,85,108,1.47,-5.04,-4.27
-988,87,96,3.92,-3.64,-4.9
-976,87,90,6.86,-2.73,-5.88
-966,93,92,7.63,-1.75,-6.93
-966,107,85,6.02,-0.7,-7.84
-969,122,74,5.18,0.35,-7.98
-971,136,73,3.71,1.4,-7.21
-971,133,75,0.98,2.31,-5.39
-971,121,81,-0.21,3.08,-4.06
-973,111,82,0.0,3.01,-3.71
-973,109,84,0.35,2.87,-4.69
-977,111,77,-1.26,2.45,-5.25
-981,111,73,-1.68,2.1,-5.32
-982,112,75,-1.96,2.1,-5.39
-982,114,73,-2.87,1.61,-5.53
-981,117,82,-3.5,1.4,-6.02
-986,115,87,-5.32,0.84,-6.23
-990,107,84,-6.51,0.91,-6.58
-990,103,84,-7.14,1.89,-6.72
-988,98,88,-7.77,2.38,-6.93
-993,95,88,-7.42,2.8,-7.21
-996,93,88,-7.42,2.73,-6.86
-1004,93,85,-8.96,2.24,-5.95
-1010,96,86,-10.01,1.4,-5.39
-1017,101,87,-10.99,0.98,-4.69
-1028,96,91,-11.62,1.12,-3.15
-1035,79,94,-10.29,1.26,-1.61
-1033,61,96,-6.79,1.82,-1.4
-1029,53,96,-2.8,2.38,-2.59
-1020,60,98,0.77,2.87,-4.48
-1013,72,91,4.06,3.01,-6.02
-1008,82,80,5.74,2.03,-6.37
-1002,84,76,6.37,2.17,-5.74
-994,86,83,6.86,2.87,-5.18
-994,87,75,7.98,3.08,-5.11
-1000,84,63,8.47,2.8,-5.11
-1005,75,65,7.49,2.8,-4.34
-1005,65,73,7.28,3.08,-3.92
-1007,63,71,8.05,3.08,-4.48
-1006,72,66,8.75,2.8,-5.46
-1002,81,71,8.47,2.52,-5.53
-1001,85,71,7.84,1.61,-5.11
-1005,83,69,7.98,0.84,-4.76
-1002,86,71,7.28,0.56,-4.2
-1000,87,69,6.23,0.28,-3.57
-995,84,74,6.51,0.14,-3.01
-986,77,83,7.21,0.21,-2.94
-982,77,85,9.45,0.35,-4.06
-983,82,71,11.55,0.07,-5.32
-981,92,68,11.76,0.0,-5.67
-979,98,75,8.82,0.14,-4.97
-979,92,75,5.74,0.14,-3.5
-984,80,75,5.88,0.0,-2.59
-987,78,76,5.67,-0.28,-2.45
-990,84,73,5.18,-0.28,-2.31
-990,89,70,6.02,-0.14,-1.89
-988,96,72,7.21,0.07,-1.47
-987,97,73,7.42,0.0,-1.19
-982,95,74,6.51,-0.28,-0.49
-980,93,74,6.23,-0.42,0.0
-979,89,71,6.72,-0.98,0.14
-979,92,72,7.21,-0.91,-0.07
-976,96,66,6.23,-0.7,0.07
-976,96,63,5.18,-0.21,0.42
-976,94,68,4.97,0.35,0.07
-981,88,66,4.06,0.63,-0.21
-989,85,59,3.01,1.19,-0.63
-990,85,58,1.61,1.75,-0.98
-989,90,62,0.21,2.1,-0.91
-992,91,62,-1.19,2.03,-0.49
-996,92,65,-2.73,1.47,-0.07
-997,93,67,-3.57,1.26,0.7
-998,93,71,-3.64,1.12,1.12
-1000,92,77,-2.87,0.7,1.33
-999,91,86,-2.38,0.35,1.47
-998,89,93,-1.96,0.14,1.82
-993,95,90,-1.26,-0.42,1.54
-988,103,84,-1.26,-1.4,1.26
-987,106,84,-2.31,-1.68,1.89
-987,101,91,-1.89,-1.47,2.8
-989,87,80,-0.07,-1.33,3.08
-1001,77,69,1.47,-2.31,1.75
-1004,74,70,0.49,-1.89,1.61
-1002,70,76,0.49,-0.77,1.4
-1005,68,68,3.15,-0.35,0.0
-1006,67,61,4.55,-0.49,-1.12
-1008,68,59,4.2,-0.21,-1.68
-1006,74,59,3.99,0.14,-1.96
-1002,77,57,4.2,0.77,-1.68
-998,83,54,4.06,1.12,-1.47
-994,87,51,3.57,0.98,-1.19
-991,84,57,3.5,0.84,-1.19
-991,84,64,3.08,0.21,-1.33
-989,84,66,3.92,-0.28,-1.61
-989,83,64,4.34,-0.91,-1.68
-989,82,65,3.01,-1.05,-1.26
-985,81,70,2.17,-0.7,-1.26
-986,82,71,1.96,-0.21,-1.96
-989,78,65,1.89,-0.14,-2.45
-998,73,61,1.68,0.21,-2.59
-1011,61,40,0.63,0.49,-1.96
-1025,40,19,0.35,1.54,-1.54
-1047,6,-5,-0.21,3.01,-0.77
-1081,-37,-31,0.07,4.69,0.35
-1106,-75,-48,1.54,7.63,0.84
-1121,-101,-68,4.13,10.5,-0.28
-1127,-111,-80,6.58,13.3,-2.73
-1119,-104,-84,7.63,16.31,-5.74
-1111,-82,-93,7.14,18.62,-10.15
-1104,-55,-97,3.71,19.88,-15.68
-1101,-40,-90,-4.41,21.0,-20.09
-1098,-40,-68,-17.01,23.38,-22.75
-1086,-53,-44,-32.55,25.2,-24.22
-1062,-67,-23,-44.94,25.9,-26.6
-1038,-75,-7,-53.55,25.06,-30.03
-1012,-74,-4,-60.48,22.89,-34.09
-995,-80,4,-66.5,19.11,-37.8
-989,-88,18,-74.27,13.72,-39.9
-981,-102,33,-81.9,7.84,-41.72
-970,-127,42,-85.05,2.66,-44.45
-947,-138,43,-78.54,-0.42,-49.21
-925,-153,26,-66.92,-3.01,-53.62
-911,-171,3,-60.27,-5.25,-54.32
-894,-213,-3,-63.98,-5.18,-50.61
-847,-232,-51,-72.1,-2.31,-48.3
-935,-286,2,-71.26,-0.21,-50.47
-943,-275,-45,-62.65,12.81,-57.05
-938,-252,-25,-39.2,30.24,-70.21
-928,-210,-24,-23.8,35.63,-79.87
-944,-167,-43,-14.42,39.2,-87.43
-986,-127,-63,-0.35,44.24,-95.41
-908,-68,-108,18.97,56.07,-101.57
-1016,-37,-77,46.69,75.11,-101.5
-1019,-21,-67,58.03,86.73,-96.88
-950,6,-127,57.33,83.93,-85.75
-899,46,-141,58.94,73.22,-77.56
-873,91,-116,47.67,64.89,-69.16
-834,154,-115,22.26,55.16,-55.58
-806,200,-71,1.75,45.36,-38.08
-785,196,-85,-15.26,39.41,-16.87
-787,156,-100,-18.76,38.43,-0.49
-752,151,-53,-14.14,42.77,6.58
-724,183,-41,-23.38,38.71,13.02
-730,220,-104,-43.12,28.0,20.72
-794,217,-205,-44.38,23.03,26.11
-716,268,-103,-21.49,33.04,26.74
-850,219,73,-19.95,30.52,38.15
-885,58,114,-49.56,17.57,55.79
-947,-151,198,-74.76,21.14,63.0
-983,-336,240,-92.96,7.77,59.71
-1081,-481,114,-109.2,-8.47,42.56
-1317,-528,-142,-110.39,-5.88,14.7
-1440,-446,-411,-95.27,17.99,-17.64
-1471,-306,-478,-74.48,60.06,-35.0
-1453,-242,-319,-61.67,107.8,-28.77
-1385,-173,-46,-63.91,129.01,-9.66
-1166,-115,113,-62.23,92.54,2.8
-1061,-113,55,-28.56,36.4,3.85
-1091,-148,-91,13.72,0.35,-6.72
-1167,-171,-157,37.87,-12.88,-17.85
-1187,-153,-149,42.21,-11.48,-19.11
-1161,-123,-115,42.98,-6.65,-13.79
-1090,-98,-93,47.74,-1.82,-9.66
-1023,-106,-106,49.07,-2.59,-9.8
-994,-108,-135,44.17,-3.92,-15.33
-987,-92,-152,33.18,-5.32,-19.46
-980,-85,-197,20.09,-8.05,-18.62
-988,-105,-241,10.71,-9.73,-15.47
-1018,-151,-292,2.38,-9.38,-10.57
-1043,-196,-312,0.35,-4.83,-6.37
-1040,-211,-282,1.47,2.66,-3.78
-1013,-199,-232,2.1,6.86,-2.59
-979,-175,-194,2.66,5.53,-2.17
-948,-154,-175,2.59,1.75,-2.52
-920,-135,-173,3.22,-1.75,-2.94
-901,-124,-174,3.43,-4.83,-4.34
-894,-106,-184,0.84,-7.7,-6.44
-887,-81,-199,-4.83,-9.94,-7.98
-893,-57,-218,-11.69,-10.57,-7.77
-900,-43,-234,-19.11,-9.59,-5.25
-906,-51,-251,-29.75,-7.63,-0.42
-918,-76,-272,-40.04,-4.48,4.34
-931,-109,-286,-46.48,-0.63,7.49
-947,-149,-288,-51.24,2.94,9.87
-962,-191,-277,-54.74,6.23,11.13
-977,-225,-254,-56.63,8.19,11.06
-988,-250,-229,-53.48,7.98,9.45
-996,-264,-210,-49.0,5.32,5.88
-999,-262,-210,-43.4,0.98,1.05
-994,-246,-211,-35.56,-3.01,-4.76
-988,-212,-227,-29.26,-5.88,-10.15
-978,-173,-240,-26.81,-7.07,-12.81
-965,-146,-250,-27.79,-6.65,-12.11
-956,-139,-258,-30.87,-6.37,-9.45
-958,-154,-267,-34.09,-5.74,-6.3
-956,-175,-254,-35.77,-3.5,-4.55
-954,-185,-237,-37.45,-1.75,-5.39
-960,-186,-235,-37.94,-1.47,-7.56
-962,-183,-237,-35.77,-1.75,-9.8
-962,-178,-236,-32.34,-0.84,-11.06
-963,-180,-235,-29.89,0.21,-11.2
-963,-187,-238,-27.37,0.84,-11.13
-961,-196,-242,-23.66,1.61,-11.97
-963,-209,-246,-20.44,2.24,-12.67
-967,-224,-252,-17.43,2.87,-14.07
-965,-227,-265,-14.21,3.15,-16.31
-953,-214,-289,-9.1,4.83,-19.25
-938,-192,-311,-2.73,5.25,-22.82
-928,-176,-319,2.1,5.04,-25.97
-917,-172,-312,1.4,7.0,-25.76
-902,-171,-292,-0.7,9.59,-22.89
-888,-169,-275,-2.8,11.2,-18.9
-876,-181,-268,-5.39,11.97,-14.28
-868,-203,-271,-5.46,13.02,-9.31
-868,-220,-278,-2.24,14.63,-5.95
-878,-239,-277,2.38,16.94,-2.59
-891,-259,-274,7.84,18.97,1.26
-916,-270,-269,16.38,19.18,3.29
-945,-262,-264,26.25,17.36,3.08
-980,-248,-249,33.46,15.12,3.57
-1004,-229,-232,37.94,13.79,5.11
-1016,-210,-233,39.62,12.74,6.58
-1025,-198,-245,39.27,11.76,7.63
-1036,-189,-253,38.29,11.55,8.33
-1037,-169,-254,35.07,11.34,8.82
-1019,-138,-252,29.33,10.92,10.36
-987,-114,-251,22.96,9.8,14.0
-955,-114,-257,19.46,7.21,18.06
-928,-132,-269,18.48,3.36,20.51
-920,-158,-293,17.99,0.21,21.0
-930,-194,-314,17.78,-1.61,20.23
-936,-215,-319,18.76,-1.4,17.78
-945,-204,-308,19.88,-0.84,12.6
-954,-167,-291,18.27,-1.4,8.12
-966,-132,-280,13.3,-1.89,7.21
-973,-119,-271,7.84,-2.1,8.75
-985,-140,-269,3.15,-1.96,10.5
-1001,-186,-278,-0.21,-2.87,10.64
-997,-225,-255,-2.24,-1.89,7.42
-996,-235,-216,-6.93,0.28,2.8
-1006,-225,-195,-9.17,2.17,-1.82
-1029,-198,-192,-6.86,5.6,-5.88
-1053,-185,-210,-3.64,9.38,-6.86
-1082,-214,-189,-5.04,15.54,-3.64
-1176,-273,-240,-2.8,23.03,-1.68
-1283,-322,-335,17.99,35.56,-3.01
-1301,-325,-359,44.45,56.77,-1.82
-1118,-291,-222,51.1,51.03,11.06
-942,-238,-43,33.67,-1.05,27.93
-896,-163,53,33.18,-42.84,26.18
-884,1,157,43.68,-66.22,14.42
-907,130,21,58.94,-82.39,16.66
-1020,266,-127,115.08,-87.36,16.38
-1056,401,-238,171.64,-80.36,23.31
-1116,500,-392,199.43,-72.1,49.77
-1120,495,-436,203.42,-63.49,84.7
-1051,332,-297,173.88,-56.28,122.71
-1017,135,-224,124.74,-51.59,157.57
-942,-48,-144,102.83,-50.82,167.79
-920,-223,-56,109.48,-43.19,172.27
-813,-285,-34,116.9,-33.11,164.92
-720,-266,-32,115.57,-26.53,144.62
-622,-168,-62,99.47,-25.2,121.1
-519,-35,-99,75.18,-30.24,101.01
-532,47,-187,46.69,-36.61,88.97
-522,91,-192,16.73,-31.57,83.58
-550,80,-150,-21.14,-22.33,86.31
-585,23,-132,-49.7,-20.51,87.5
-587,-55,-119,-47.95,-18.55,75.32
-822,-280,-488,-55.51,-35.7,70.35
-1115,-599,-966,-54.74,-60.48,59.78
-1408,-939,-792,-68.95,-33.18,27.23
-1764,-1059,-546,-143.36,41.44,-10.36
-1638,-547,-260,-212.73,99.96,-37.03
-1359,141,214,-243.18,107.31,-23.24
-1098,369,372,-237.93,73.01,22.4
-996,83,142,-153.65,39.27,37.52
-980,36,4,-14.21,10.78,-3.36
-1044,120,-38,71.12,-14.91,-41.72
-1118,167,-109,70.07,-26.53,-41.16
-1106,207,-100,50.26,-19.18,-24.71
-1069,241,-83,35.63,-11.06,-10.01
-1057,222,-129,25.48,-8.05,-0.28
-1072,141,-204,17.64,-4.62,6.44
-1069,61,-236,6.3,-0.77,9.87
-1042,-12,-223,-6.16,1.82,9.03
-1021,-46,-194,-15.61,0.42,3.78
-1006,-35,-170,-14.35,-2.87,-3.01
-1005,3,-161,-3.78,-5.81,-9.17
-1011,62,-163,8.75,-8.54,-12.11
-1018,118,-176,17.78,-12.11,-10.92
-1012,172,-183,20.09,-15.05,-7.42
-994,214,-179,15.26,-16.87,-1.68
-976,220,-171,8.05,-18.41,7.56
-955,187,-153,2.59,-18.97,15.33
-948,127,-126,-1.68,-17.92,19.88
-946,66,-97,-5.46,-16.38,20.02
-953,15,-70,-7.35,-14.63,16.45
-954,-7,-24,-6.72,-13.3,10.22
-963,-2,12,-4.06,-11.83,2.59
-985,30,-3,2.24,-12.18,-5.25
-1002,78,-35,7.35,-11.2,-10.5
-1011,131,-49,7.49,-7.77,-11.34
-1010,170,-49,7.91,-4.55,-9.52
-1010,172,-37,12.6,-2.1,-7.0
-1023,146,-15,15.26,0.35,-3.5
-1039,107,-20,14.56,1.82,-0.49
-1046,82,-32,18.48,2.24,-0.56
-1051,58,-52,26.6,2.31,-3.43
-1053,50,-81,32.27,1.75,-7.56
-1048,83,-97,30.1,0.84,-11.27
-1024,148,-69,21.63,1.26,-11.97
-1013,205,-48,16.73,-0.28,-8.89
-1019,229,-41,21.21,-2.94,-3.57
-1027,217,-49,25.9,-5.39,3.43
-1029,192,-51,28.77,-7.28,8.19
-1022,174,-60,28.84,-9.66,9.87
-1015,165,-57,27.58,-11.97,9.73
-999,150,-46,27.86,-14.35,7.91
-983,132,-47,28.98,-16.17,3.92
-960,117,-50,29.54,-17.92,-1.89
-936,114,-63,29.54,-18.41,-8.68
-904,127,-70,28.77,-17.5,-15.47
-873,140,-77,25.69,-16.24,-20.02
-851,150,-83,21.98,-15.26,-22.82
-850,150,-79,17.64,-14.77,-23.94
-849,143,-78,11.9,-14.0,-22.54
-873,109,-88,5.04,-13.58,-19.53
-906,70,-88,-0.91,-12.11,-16.66
-936,27,-93,-5.04,-9.73,-14.21
-960,-4,-105,-5.88,-7.84,-14.56
-982,-26,-116,-6.44,-6.93,-15.96
-997,-37,-123,-8.82,-5.46,-15.54
-1006,-42,-128,-9.94,-3.57,-14.49
-1011,-51,-137,-10.78,-2.31,-12.53
-1019,-66,-146,-10.5,-1.47,-10.36
-1032,-73,-152,-8.47,-1.05,-8.96
-1038,-73,-154,-7.14,-0.56,-8.4
-1035,-65,-155,-5.04,0.56,-7.77
-1016,-48,-140,-2.1,1.75,-7.07
-990,-27,-114,-2.73,1.61,-4.41
-988,-11,-91,-3.08,0.07,1.82
-1010,-12,-82,2.52,-1.05,8.26
-1027,-19,-72,13.65,-1.89,12.04
-1048,-14,-82,26.39,-3.5,11.48
-1058,7,-112,40.04,-4.06,8.19
-1056,32,-165,48.23,-2.03,4.34
-1044,63,-218,52.15,2.73,0.14
-1023,117,-204,54.04,9.87,-3.43
-999,168,-147,48.72,16.45,-2.94
-981,192,-103,42.56,20.93,0.0
-970,184,-47,38.36,22.75,3.01
-977,138,-8,28.42,20.51,6.23
-996,88,-7,21.21,16.45,6.44
-1000,71,-33,19.04,12.53,3.99
-1001,72,-67,15.68,9.73,3.36
-986,73,-99,11.2,8.19,5.88
-982,60,-126,7.84,7.35,9.03
-980,46,-149,2.87,7.07,12.6
-978,33,-149,-3.92,7.7,15.54
-969,32,-138,-14.14,7.21,17.85
-956,39,-132,-25.2,6.16,18.62
-949,45,-122,-34.09,5.04,17.36
-954,48,-102,-43.26,3.57,15.47
-967,43,-69,-53.9,1.89,14.07
-983,29,-34,-66.43,-0.56,13.3
-999,8,-9,-78.19,-3.08,11.13
-1011,-2,-5,-82.6,-5.6,6.37
-1016,8,1,-77.14,-6.65,-0.84
-1026,47,-2,-68.46,-6.72,-7.35
-1037,94,-46,-53.76,-6.58,-10.85
-1025,127,-48,-39.34,-5.39,-11.55
-1021,110,-29,-36.47,-5.04,-9.31
-1007,64,19,-39.06,-5.53,-8.12
-1020,0,52,-38.5,-7.7,-11.55
-1046,-49,68,-34.79,-10.29,-18.83
-1080,-61,26,-23.17,-10.29,-28.0
-1100,-26,-68,-5.74,-7.42,-36.47
-1082,45,-152,1.4,-2.03,-38.64
-1041,131,-188,-3.43,3.64,-33.46
-1003,182,-157,-10.01,5.88,-22.75
-1003,160,-104,-10.57,5.11,-10.15
-1041,81,-54,-1.47,2.66,-0.98
-1117,-3,-43,7.91,0.56,3.64
-1203,-62,-31,14.77,-2.17,6.3
-1241,-104,-10,14.0,-6.02,10.43
-1256,-129,-56,7.49,-16.17,13.79
-1272,-130,-80,13.44,-25.41,8.68
-1262,-96,-72,18.97,-30.17,3.22
-1229,-48,-60,15.82,-29.05,1.96
-1179,11,-33,12.46,-27.3,3.78
-1136,35,-9,7.56,-28.91,8.82
-1110,47,-2,7.42,-32.41,8.89
-1120,76,0,8.12,-35.84,7.63
-1118,85,-26,11.2,-38.01,7.98
-1112,92,-55,16.31,-38.5,10.29
-1079,88,-75,21.91,-36.96,13.58
-1029,62,-103,30.45,-33.95,14.7
-961,43,-123,40.32,-31.71,11.55
-896,64,-149,44.59,-30.94,5.6
-832,121,-163,42.91,-30.03,-0.49
-774,185,-180,39.76,-28.07,-3.85
-715,249,-168,37.87,-23.31,-4.76
-646,289,-132,30.59,-18.97,-1.12
-610,301,-128,19.67,-18.13,5.81
-604,300,-162,13.72,-16.87,10.5
-602,290,-171,10.57,-11.41,14.77
-610,271,-167,3.71,-4.55,20.23
-588,254,-112,-11.2,1.05,25.41
-583,244,-80,-36.26,1.19,29.68
-592,250,-75,-51.94,1.89,29.75
-576,256,-74,-51.66,3.64,28.56
-649,195,-42,-42.91,1.4,28.35
-600,164,17,-36.19,1.19,29.12
-543,78,233,-32.62,-0.91,28.07
-589,-28,323,-27.16,-19.25,15.96
-692,-75,266,-20.09,-48.51,-7.7
-888,-86,-8,-31.5,-61.25,-26.04
-1116,-106,-218,-52.08,-33.88,-31.85
-1295,-200,-241,-82.74,25.76,-25.06
-1400,-321,-188,-100.73,105.0,-23.31
-1478,-351,57,-93.8,172.13,-31.85
-1474,-188,103,-90.58,155.96,-42.0
-1301,-48,-2,-50.12,76.72,-59.15
-1125,104,74,-16.73,21.77,-68.88
-1112,124,32,-24.78,-5.32,-69.58
-1184,86,-5,-17.64,-21.98,-64.33
-1231,83,35,2.1,-27.51,-49.7
-1201,110,70,17.22,-23.52,-30.73
-1089,92,139,39.41,-20.16,-16.59
-1040,10,131,69.16,-21.91,-20.02
-1022,-13,96,98.07,-20.72,-35.07
-1001,16,70,102.2,-19.74,-42.77
-976,58,22,82.88,-21.35,-42.35
-981,56,-71,63.84,-21.7,-39.41
-1024,2,-162,55.02,-12.88,-36.61
-1033,-58,-208,44.52,4.06,-34.44
-1053,-106,-181,26.46,21.28,-33.25
-1044,-127,-102,2.45,30.94,-32.62
-1032,-125,-7,-20.23,30.31,-32.06
-1051,-121,11,-25.62,21.77,-31.92
-1069,-94,6,-14.14,13.51,-33.67
-1064,-38,18,-6.51,7.42,-32.97
-1063,12,22,-1.68,2.38,-27.09
-1063,35,19,9.17,-1.96,-19.32
-1058,23,3,19.39,-4.97,-10.36
-1051,-1,-22,21.56,-7.21,-1.33
-1039,-19,-43,17.08,-8.61,5.53
-1017,12,-64,6.09,-8.68,7.7
-1013,-51,-54,-5.32,-4.62,5.88
-994,-3,-40,-20.16,-2.1,14.63
-983,6,-36,-32.9,-0.07,15.05
-954,47,-24,-35.98,2.45,3.57
-1057,-32,-4,-36.82,1.96,4.41
-1003,-7,-3,-42.07,-1.89,11.97
-1003,-19,-36,-40.32,-0.28,9.59
-1006,-13,-40,-34.3,-1.4,6.86
-1006,-10,-56,-37.52,-6.02,8.4
-1003,-25,-81,-45.29,-7.49,13.02
-1008,-65,-76,-48.44,-7.84,17.29
-1014,-123,-76,-47.67,-8.75,18.62
-1017,-160,-58,-42.14,-10.01,15.54
-1025,-174,-42,-35.42,-11.2,9.8
-1019,-161,-29,-27.16,-11.34,3.29
-1010,-131,-21,-18.48,-10.64,-2.66
-1003,-93,-17,-9.8,-10.08,-7.28
-990,-54,-21,-3.29,-8.05,-10.08
-982,-25,-22,-1.33,-5.67,-10.36
-977,-17,-20,-1.47,-4.27,-8.68
-975,-26,-18,-2.17,-3.01,-7.0
-975,-40,-15,-2.45,-1.75,-6.93
-980,-49,-14,-2.66,-0.14,-7.91
-983,-65,-7,-1.96,0.77,-9.03
-991,-79,-5,0.0,2.17,-9.8
-996,-93,4,3.5,3.29,-11.48
-1001,-94,14,6.65,3.78,-13.37
-1017,-98,8,11.2,3.22,-15.82
-1034,-107,10,16.1,5.25,-17.22
-1055,-113,1,19.25,7.98,-16.87
-1062,-116,-16,18.55,8.96,-15.54
-1066,-117,-49,19.18,10.71,-14.7
-1059,-124,-80,23.73,12.11,-13.86
-1008,-105,-89,25.41,13.93,-11.41
-971,-86,-96,20.93,15.4,-7.28
-983,-90,-101,14.63,11.97,-1.19
-1044,-108,-90,5.25,5.53,4.9
-1100,-135,-65,-5.81,-2.03,10.99
-1169,-167,-23,-13.58,-6.79,16.87
-1213,-203,9,-20.93,-11.76,21.49
-1209,-214,13,-30.66,-16.94,24.78
-1180,-172,9,-35.28,-23.8,22.33
-1138,-106,22,-29.12,-29.54,15.61
-1130,-53,3,-16.38,-33.67,9.94
-1114,-31,11,1.61,-36.19,8.89
-1093,-22,4,16.03,-35.98,10.92
-1075,7,-15,31.99,-33.6,9.87
-1050,44,-39,49.28,-28.0,9.24
-1019,71,-96,63.98,-23.03,10.64
-993,111,-132,77.07,-19.32,10.92
-972,131,-126,80.78,-17.57,13.93
-974,115,-105,71.47,-17.78,21.56
-979,69,-76,53.76,-18.9,30.59
-986,9,-45,38.57,-20.16,35.91
-1000,-26,-16,32.13,-20.93,36.19
-1000,-17,3,33.39,-21.0,33.32
-989,25,6,38.57,-20.44,28.98
-960,82,5,42.35,-19.18,24.92
-925,129,12,40.88,-17.71,22.96
-894,156,22,34.65,-16.73,23.24
-880,165,28,26.46,-16.45,24.78
-876,150,34,18.55,-15.75,26.81
-869,107,41,13.16,-14.07,28.56
-869,58,45,10.43,-11.97,28.28
-862,20,50,7.14,-10.08,26.67
-837,14,50,3.36,-8.19,23.24
-805,39,47,0.63,-6.44,18.06
-774,61,48,-2.1,-5.11,12.88
-751,74,53,-5.53,-4.13,9.73
-724,88,59,-10.15,-3.71,7.77
-616,155,63,-15.82,-6.37,-0.35
-828,29,74,-25.62,-10.99,3.36
-700,62,78,-37.1,-8.75,4.9
-701,76,74,-42.07,-10.43,2.24
-677,77,75,-46.69,-15.05,3.08
-650,75,79,-56.0,-20.44,2.38
-566,85,83,-73.08,-31.36,0.07
-715,-4,93,-94.64,-50.75,0.28
-592,-39,68,-103.53,-54.95,-4.97
-718,-168,163,-65.38,-55.51,-27.37
-748,-238,222,28.28,-38.5,-74.13
-741,-206,159,48.51,-14.98,-112.98
-997,-137,133,6.79,5.04,-122.15
-1107,-53,99,-14.14,31.15,-131.88
-1098,39,100,-2.87,47.11,-137.48
-1122,64,192,-3.29,56.7,-126.98
-1193,3,220,1.47,80.71,-113.12
-1373,-160,211,31.43,92.96,-107.24
-1538,-478,253,41.58,88.48,-97.44
-1638,-675,-115,31.29,97.86,-79.87
-1379,-511,-69,43.12,55.79,-88.27
-1261,-364,36,25.55,-16.59,-93.52
-1327,-288,-74,-23.87,-47.32,-73.78
-1360,-279,-191,-26.67,-22.12,-49.98
-1286,-298,-111,-1.82,7.21,-29.54
-1216,-305,-14,12.04,22.47,-13.72
-1121,-257,68,19.32,26.53,-7.21
-1045,-198,128,21.49,22.75,-11.06
-989,-97,164,21.14,17.43,-16.17
-926,14,208,27.23,12.18,-20.09
-867,111,241,29.89,1.12,-17.64
-858,138,213,24.08,-14.84,-8.54
-878,91,136,12.81,-27.72,3.99
-920,-12,55,3.29,-29.96,17.01
-969,-172,-6,-3.08,-24.64,23.94
-1012,-313,-47,-9.73,-17.78,23.66
-1046,-410,-74,-18.9,-11.97,17.29
-1074,-470,-92,-24.43,-5.95,6.3
-1091,-485,-80,-26.25,-1.12,-5.6
-1088,-457,-64,-26.11,2.1,-16.03
-1078,-403,-29,-24.57,2.03,-22.75
-1073,-343,-5,-21.49,-2.17,-23.87
-1055,-281,23,-17.22,-7.35,-21.28
-1032,-224,49,-14.49,-11.55,-16.52
-1001,-189,78,-13.51,-16.66,-10.36
-978,-203,90,-13.23,-23.03,-3.64
-950,-221,91,-11.9,-28.28,-0.28
-917,-209,102,-12.04,-29.61,-3.5
-899,-181,113,-9.31,-29.05,-10.36
-877,-155,100,-8.47,-32.48,-11.83
-891,-141,75,-7.77,-31.43,-12.39
-887,-137,56,-4.06,-26.32,-10.15
-908,-162,26,-4.2,-18.41,-6.58
-940,-188,35,-4.69,-9.31,-5.53
-959,-205,57,-7.98,-3.99,-4.13
-986,-238,51,-13.65,-2.59,-1.54
-1012,-270,60,-14.14,-1.61,0.35
-1031,-303,70,-11.55,0.77,1.12
-1029,-328,86,-7.7,2.24,1.12
-1022,-332,97,-2.59,2.24,-0.77
-1009,-324,101,3.5,1.47,-4.34
-994,-298,104,7.56,-0.35,-5.74
-982,-270,100,10.78,-1.96,-5.04
-963,-231,112,14.14,-1.26,-4.69
-941,-203,108,13.09,-3.15,-1.12
-935,-185,102,13.65,-5.25,3.78
-950,-177,102,13.86,-6.02,8.19
-973,-173,101,10.64,-8.4,12.95
-998,-169,94,7.21,-9.94,18.13
-1012,-169,94,4.48,-10.78,23.52
-1009,-180,91,1.75,-12.81,26.95
-992,-194,91,-0.91,-14.14,28.7
-989,-205,101,-5.53,-15.19,30.59
-993,-224,102,-11.55,-17.5,33.53
-1034,-256,93,-13.37,-20.37,34.86
-1063,-276,104,-14.77,-21.63,33.95
-1078,-310,109,-17.85,-23.31,32.27
-1098,-328,99,-17.92,-24.01,28.07
-1107,-327,107,-13.3,-22.89,20.44
-1099,-306,116,-10.99,-22.33,14.0
-1090,-286,115,-11.06,-22.19,8.54
-1079,-270,121,-10.5,-22.61,3.92
-1074,-265,135,-11.41,-23.17,2.31
-1074,-268,137,-14.07,-25.41,1.75
-1072,-271,132,-14.7,-28.0,1.54
-1062,-258,120,-12.74,-29.75,0.14
-1052,-269,115,-8.33,-30.1,-3.99
-1039,-235,116,-4.2,-29.68,-4.76
-1017,-188,117,-0.77,-29.05,-7.21
-990,-142,119,2.87,-28.42,-7.49
-970,-109,127,6.09,-27.02,-4.97
-936,-48,145,8.68,-25.97,-2.03
-956,-104,208,9.52,-25.9,1.26
-925,-67,197,10.78,-26.6,10.43
-934,-65,146,15.33,-28.28,13.44
-919,-78,123,21.42,-25.62,15.61
-907,-105,112,25.69,-21.84,16.17
-893,-123,85,30.03,-20.02,14.42
-872,-112,86,31.78,-16.73,11.97
-849,-101,102,28.49,-13.44,10.08
-842,-89,124,22.12,-11.55,10.08
-851,-103,147,13.58,-10.15,11.2
-861,-109,169,6.16,-8.75,10.64
-854,-94,187,1.54,-7.7,9.03
-870,-89,203,-2.94,-7.91,8.68
-878,-100,214,-7.49,-9.31,9.52
-873,-111,217,-10.29,-9.87,9.73
-847,-119,224,-11.41,-9.45,7.84
-814,-104,230,-13.16,-10.78,6.09
-785,-90,231,-17.15,-13.86,5.6
-755,-93,221,-23.59,-17.64,6.44
-729,-87,199,-29.89,-20.51,7.07
-709,-49,185,-37.1,-23.24,7.0
-684,-17,162,-46.69,-26.67,8.96
-655,-9,143,-57.61,-29.26,12.74
-638,-6,131,-67.48,-33.67,15.19
-626,9,118,-76.93,-40.6,17.36
-475,65,108,-86.94,-47.88,17.29
-646,-9,125,-110.11,-63.91,11.27
-621,-27,110,-124.04,-81.2,4.76
-627,-64,83,-105.35,-83.02,-5.39
-722,-69,200,14.07,-48.51,-54.6
-1073,90,222,111.23,13.44,-104.93
-958,222,67,28.7,35.98,-82.04
-1001,179,-38,-39.13,69.86,0.84
-940,-171,333,-7.07,122.22,36.12
-950,-444,716,18.9,142.31,24.78
-1126,-660,759,16.1,110.67,4.62
-1316,-799,593,30.8,61.74,-23.66
-1523,-859,369,43.05,34.65,-53.9
-1623,-802,317,33.32,30.8,-73.01
-1651,-647,285,27.72,46.06,-80.29
-1576,-492,230,45.5,55.44,-80.78
-1427,-377,153,57.82,47.18,-64.33
-1306,-328,44,51.52,36.54,-38.01
-1200,-329,5,45.29,35.35,-14.42
-1100,-333,30,42.91,34.58,-2.73
-1021,-292,46,39.97,29.82,-2.8
-957,-198,73,36.33,25.48,-7.63
-908,-99,121,34.44,24.5,-9.45
-874,-27,155,29.4,25.48,-6.02
-849,13,193,23.03,23.38,-0.91
-849,9,211,12.53,13.72,7.35
-883,-41,199,-1.05,3.99,17.01
-921,-118,186,-8.12,-0.49,22.96
-957,-201,172,-9.8,-2.66,26.04
-979,-278,154,-10.01,-4.9,26.11
-983,-330,128,-9.1,-6.72,22.89
-982,-354,104,-4.55,-7.91,15.47
-965,-341,94,1.47,-7.77,5.53
-952,-294,84,7.7,-6.44,-3.5
-936,-241,86,10.01,-5.95,-9.03
-931,-200,91,6.23,-5.25,-10.08
-927,-179,87,-0.77,-4.06,-8.26
-929,-193,84,-6.16,-2.45,-4.55
-944,-240,79,-10.29,-1.61,-0.28
-947,-273,78,-13.86,-1.47,0.35
-947,-270,80,-17.5,-1.54,-2.38
-947,-248,85,-20.16,-2.24,-4.48
-946,-226,98,-21.28,-3.15,-4.97
-943,-208,111,-20.51,-3.64,-4.62
-940,-202,124,-18.83,-4.55,-3.71
-940,-210,129,-17.29,-4.9,-2.59
-947,-221,141,-15.19,-4.97,-2.31
-951,-223,149,-13.37,-4.34,-2.73
-954,-222,162,-10.22,-2.03,-3.29
-968,-227,192,-7.84,-0.91,-2.8
-996,-259,203,-7.28,-1.12,-0.14
-1033,-309,206,-1.54,-0.84,0.14
-1072,-341,194,4.2,-1.19,-1.4
-1094,-358,181,8.19,-0.98,-3.22
-1109,-375,163,12.39,0.0,-4.76
-1108,-385,158,16.94,1.61,-6.79
-1105,-385,177,19.39,3.85,-9.1
-1100,-389,208,19.11,3.71,-10.64
-1110,-395,224,17.29,1.4,-11.76
-1116,-394,227,17.43,-0.91,-13.79
-1116,-385,225,22.12,-1.05,-16.73
-1106,-369,210,28.0,-1.26,-18.97
-1069,-339,200,34.65,-0.98,-21.49
-1031,-316,208,39.34,-1.47,-23.24
-1013,-294,201,38.99,-5.88,-23.38
-1000,-276,189,37.38,-10.15,-22.96
-993,-273,153,38.43,-12.11,-22.61
-979,-278,131,42.35,-11.55,-23.8
-956,-272,117,39.13,-12.95,-24.5
-947,-248,98,32.9,-14.77,-24.92
-928,-226,105,28.28,-14.0,-24.29
-910,-222,110,23.8,-12.67,-21.14
-892,-233,113,21.35,-11.27,-18.83
-877,-239,111,19.04,-11.83,-18.55
-865,-225,106,14.42,-13.51,-18.34
-862,-203,100,10.29,-14.7,-17.71
-861,-196,105,4.97,-15.26,-14.56
-856,-223,129,0.84,-15.68,-10.64
-868,-258,148,-3.08,-15.89,-7.42
-870,-277,172,-2.24,-14.91,-9.17
-860,-275,186,-1.89,-15.47,-12.11
-880,-268,173,-1.47,-17.71,-14.77
-897,-258,170,-0.91,-16.73,-17.29
-907,-256,172,-0.49,-14.21,-17.85
-931,-274,186,0.56,-12.53,-16.8
-962,-308,197,2.73,-10.71,-16.59
-983,-340,201,8.96,-8.47,-17.64
-984,-365,235,12.53,-4.97,-18.2
-990,-382,249,15.33,-5.11,-19.46
-984,-392,256,17.29,-5.18,-21.63
-981,-395,220,21.7,-7.49,-22.75
-953,-384,223,24.22,-7.91,-23.8
-941,-370,201,23.8,-10.36,-24.29
-932,-339,187,22.54,-12.6,-24.22
-909,-306,170,18.9,-13.86,-23.17
-888,-267,169,14.77,-14.28,-21.84
-865,-234,159,10.29,-14.28,-19.81
-837,-208,171,7.28,-12.88,-17.15
-820,-199,186,2.73,-12.67,-13.37
-817,-206,175,-0.7,-13.86,-10.15
-821,-211,162,-1.96,-13.65,-8.68
-818,-203,161,-1.89,-11.9,-7.77
-817,-197,148,-2.1,-10.29,-5.81
-813,-195,143,-2.31,-8.4,-3.22
-816,-200,145,-2.8,-6.65,-0.63
-827,-213,157,-4.62,-5.18,2.17
-831,-235,183,-5.95,-4.27,4.69
-837,-266,215,-8.19,-3.92,6.72
-855,-292,225,-9.66,-5.04,7.14
-875,-309,227,-9.17,-5.18,6.3
-890,-322,232,-7.77,-4.13,5.39
-908,-330,229,-6.3,-3.01,4.13
-915,-336,237,-6.3,-2.03,3.64
-919,-344,241,-6.37,-2.1,3.57
-926,-351,238,-6.16,-2.8,3.64
-929,-353,230,-5.46,-3.15,3.5
-928,-345,229,-2.87,-2.1,3.22
-919,-333,240,-1.47,-0.21,3.85
-908,-329,239,-1.82,0.42,5.25
-901,-317,235,-2.03,0.56,5.67
-891,-296,216,-1.96,1.26,5.95
-883,-274,198,-1.4,2.38,6.37
-877,-249,189,-1.05,3.99,7.77
-865,-226,198,-1.89,6.3,10.36
-852,-208,195,-2.66,8.12,13.51
-830,-199,207,-2.8,9.8,16.45
-820,-191,202,-4.83,10.29,19.18
-821,-179,174,-4.9,9.8,20.79
-817,-160,145,-3.85,12.04,22.26
-813,-136,130,-1.05,15.54,24.22
-804,-105,158,-0.98,19.6,27.3
-814,-85,196,-3.99,21.77,31.99
-847,-93,200,-5.53,21.0,36.4
-891,-128,174,-2.73,21.63,39.27
-921,-181,150,2.66,26.39,40.25
-960,-244,104,8.82,31.99,38.64
-974,-290,119,15.33,39.2,33.81
-977,-326,169,19.18,46.27,27.02
-975,-367,215,19.25,47.67,19.6
-974,-396,258,15.75,45.99,13.93
-976,-406,229,10.99,40.04,9.52
-981,-376,146,5.53,33.39,6.79
-986,-315,79,4.13,32.69,6.23
-986,-258,50,6.44,37.03,8.82
-963,-221,61,2.52,39.62,15.61
-950,-222,59,-5.53,38.71,23.66
-951,-244,39,-11.48,37.59,29.89
-946,-249,51,-13.37,38.5,32.2
-933,-229,97,-13.72,39.34,31.64
-934,-218,141,-17.29,37.52,30.38
-946,-216,149,-22.75,32.97,29.75
-954,-220,125,-25.48,28.63,29.33
-953,-207,100,-25.69,25.62,27.86
-949,-177,90,-23.8,25.34,25.97
-966,-139,85,-17.99,26.88,24.22
-958,-118,145,-12.67,31.99,23.24
-963,-150,249,-18.34,33.53,26.11
-1009,-260,317,-31.36,27.58,29.82
-1077,-404,326,-42.35,18.34,30.03
-1153,-514,267,-49.0,8.4,26.04
-1225,-548,134,-41.58,2.52,15.26
-1243,-500,26,-24.99,5.25,2.17
-1212,-409,-46,-11.34,10.57,-6.72
-1164,-311,-90,-1.47,16.31,-9.73
-1077,-221,-99,4.34,22.61,-7.14
-998,-171,-76,5.67,25.69,-1.54
-946,-142,-53,2.8,27.3,2.73
-900,-99,-28,1.96,31.22,3.99
-854,-36,11,1.89,33.32,3.64
-818,21,37,0.0,29.61,3.01
-799,86,75,-0.49,21.63,5.53
-806,109,111,1.54,13.44,11.48
-835,73,152,-4.2,2.03,21.21
-884,-15,190,-24.29,-9.59,33.95
-982,-145,208,-49.84,-17.43,44.94
-1130,-295,140,-59.64,-15.54,47.46
-1271,-530,58,-40.32,-3.15,40.6
-1451,-844,-19,-26.18,16.87,33.32
-1403,-829,-200,-31.92,25.97,19.25
-1236,-694,-160,-14.21,14.7,-14.35
-1220,-468,-116,2.31,9.31,-32.97
-1129,-230,-4,10.43,8.4,-36.19
-1052,-64,65,18.41,7.42,-26.95
-1005,19,102,29.05,8.26,-11.27
-972,40,109,43.47,8.89,1.12
-958,31,76,56.14,6.37,7.21
-948,16,24,59.08,1.54,10.85
-936,0,-15,55.16,-0.49,13.72
-929,-45,-40,43.12,0.91,17.08
-929,-125,-51,23.1,3.15,20.02
-945,-212,-56,3.78,4.97,17.01
-964,-252,-46,-9.38,4.2,8.4
-985,-231,-33,-16.17,2.45,-1.05
-1003,-183,-16,-17.43,1.05,-6.79
-1016,-158,0,-16.1,0.35,-7.07
-1028,-164,14,-13.3,-0.42,-4.76
-1039,-178,20,-7.7,-0.77,-3.08
-1039,-177,21,-1.47,-0.7,-2.24
-1017,-155,11,3.71,-0.35,-1.47
-994,-123,5,7.49,-0.63,-0.56
-972,-99,-4,8.4,-0.84,0.21
-947,-75,-4,8.12,0.42,0.28
-930,-59,0,6.72,1.33,0.98
-923,-72,0,2.66,1.12,2.17
-932,-105,3,-2.59,0.98,2.94
-957,-139,8,-8.96,1.05,2.31
-987,-171,7,-14.98,1.61,1.47
-1021,-210,-4,-19.46,2.03,1.19
-1053,-247,-23,-21.28,2.52,0.0
-1073,-264,-34,-19.11,3.64,-3.15
-1077,-253,-40,-14.56,5.25,-6.65
-1076,-236,-43,-8.89,6.86,-9.17
-1056,-206,-38,-4.06,9.1,-10.36
-1027,-179,-22,-2.73,10.5,-10.15
-1006,-158,-13,-2.24,11.83,-10.01
-986,-150,5,-0.91,13.3,-10.36
-975,-153,24,-1.96,12.81,-10.01
-982,-166,22,-3.71,11.62,-10.36
-989,-187,20,-5.46,10.85,-10.71
-996,-215,12,-8.05,9.73,-9.73
-1013,-241,-2,-8.82,7.14,-9.52
-1034,-267,-19,-7.7,3.99,-9.8
-1038,-282,-53,-3.5,2.38,-10.29
-1038,-280,-78,2.03,1.05,-13.02
-1033,-261,-95,6.02,-0.07,-15.82
-1028,-236,-107,8.26,-0.07,-17.57
-1018,-202,-110,10.71,1.96,-18.97
-994,-154,-99,12.88,4.34,-19.32
-961,-109,-83,12.74,5.95,-18.2
-930,-77,-71,10.78,6.09,-16.03
-905,-54,-58,7.0,5.11,-13.65
-880,-37,-41,3.22,3.92,-11.13
-870,-31,-33,-0.14,1.4,-8.26
-864,-34,-26,-4.9,-1.96,-5.18
-869,-45,-27,-10.01,-4.55,-2.1
-884,-70,-22,-12.95,-6.3,0.7
-899,-106,-16,-14.91,-7.07,3.78
-915,-153,-15,-16.45,-7.98,6.16
-932,-194,-17,-18.41,-8.82,6.44
-949,-216,-26,-18.2,-8.4,4.83
-964,-219,-33,-15.89,-7.35,2.59
-969,-216,-41,-13.44,-5.53,0.42
-971,-210,-44,-11.13,-3.57,-0.07
-967,-199,-46,-11.27,-2.45,0.84
-968,-191,-45,-12.25,-2.52,2.31
-969,-186,-35,-14.07,-3.08,4.76
-973,-193,-21,-13.65,-2.59,7.28
-974,-206,-11,-12.95,-2.66,9.03
-984,-224,-12,-13.44,-3.5,10.5
-1001,-241,-15,-13.16,-3.29,10.43
-1013,-248,-18,-11.9,-1.68,8.68
-1021,-258,-26,-9.17,0.77,6.93
-1022,-263,-24,-5.32,2.73,4.97
-1021,-254,-21,-1.96,4.2,2.59
-1014,-235,-20,1.05,4.9,0.49
-1005,-215,-18,3.43,5.18,-0.91
-998,-195,-17,5.11,5.11,-1.82
-990,-172,-16,7.07,4.9,-2.31
-986,-153,-18,8.47,4.76,-1.75
-980,-147,-28,8.47,4.69,-0.07
-975,-149,-36,8.75,4.83,1.33
-975,-155,-40,8.89,5.39,2.24
-976,-162,-45,7.84,5.74,2.94
-980,-171,-49,6.09,5.95,3.43
-989,-181,-50,3.92,5.88,3.64
-999,-191,-52,2.03,5.6,3.78
-1015,-202,-54,1.47,5.11,3.71
-1019,-211,-56,3.22,5.11,2.59
-1021,-218,-57,6.44,5.74,1.26
-1018,-219,-57,8.26,5.81,0.42
-1014,-214,-53,9.52,5.53,-0.35
-1007,-200,-46,11.13,5.81,-1.33
-998,-178,-47,13.23,6.23,-2.17
-992,-158,-50,16.45,6.86,-2.73
-988,-141,-58,18.2,7.77,-2.17
-980,-132,-62,17.08,8.47,-0.49
-977,-137,-70,14.91,9.24,1.54
-977,-149,-60,14.49,10.01,2.52
-974,-168,-42,11.62,10.29,3.5
-977,-194,-29,8.61,9.03,3.92
-987,-219,-30,5.95,6.86,2.59
-1002,-227,-45,4.55,5.46,0.35
-1006,-219,-49,3.29,5.53,-1.05
-1009,-201,-52,4.41,5.88,-1.75
-1004,-180,-55,7.49,6.02,-2.31
-994,-165,-56,9.52,6.09,-1.05
-989,-172,-63,10.08,5.67,1.19
-984,-187,-67,8.96,4.97,2.52
-981,-193,-77,7.98,4.69,2.03
-978,-183,-75,7.35,5.46,0.7
-975,-173,-75,7.28,6.79,0.28
-973,-167,-76,7.91,7.56,0.35
-972,-166,-74,7.98,7.77,0.49
-976,-162,-80,7.91,8.4,0.7
-981,-159,-87,8.4,9.24,0.63
-989,-155,-106,9.03,10.43,0.98
-992,-153,-122,10.08,12.04,1.89
-988,-164,-102,10.36,14.14,3.15
-990,-185,-67,10.64,14.14,4.34
-1000,-205,-49,9.24,11.06,4.27
-1006,-211,-52,7.0,8.26,4.06
-1008,-207,-65,7.49,6.79,3.01
-1005,-194,-72,9.1,5.88,2.1
-1001,-182,-84,9.52,5.11,2.03
-998,-170,-87,9.87,4.13,2.87
-993,-168,-90,10.08,3.36,4.13
-985,-169,-85,9.59,2.31,4.9
-983,-176,-79,6.58,0.63,5.95
-985,-185,-83,5.11,-0.42,6.09
-985,-187,-72,5.53,-0.91,4.83
-984,-188,-70,2.73,-2.8,4.76
-984,-184,-67,0.35,-5.11,4.69
-979,-172,-54,-1.19,-7.14,4.27
-986,-160,-61,-2.52,-9.94,4.55
-1001,-169,-96,-1.89,-11.41,4.97
-1002,-197,-114,-1.19,-10.43,5.04
-1001,-209,-102,-2.24,-9.94,4.34
-1002,-186,-98,-3.71,-9.31,3.43
-993,-148,-100,-2.73,-7.63,3.22
-981,-137,-90,-2.59,-6.58,5.46
-973,-135,-96,-6.37,-7.35,8.33
-975,-146,-116,-8.89,-8.26,9.8
-979,-144,-135,-8.12,-8.47,9.52
-985,-117,-148,-6.65,-6.93,9.38
-988,-85,-137,-5.81,-4.48,11.13
-993,-76,-140,-4.97,-1.89,14.56
-999,-81,-146,-2.03,0.98,17.85
-1001,-94,-148,1.68,4.76,21.35
-997,-109,-156,5.6,8.12,23.87
-1007,-117,-185,10.78,11.41,24.78
-1021,-78,-211,16.45,14.56,24.01
-1012,-24,-220,17.99,18.2,25.55
-1001,-1,-210,18.06,22.05,29.68
-1006,-21,-197,17.43,25.13,34.37
-1010,-58,-176,14.91,28.14,37.24
-1009,-79,-154,10.57,30.94,37.66
-998,-77,-135,3.57,31.85,36.82
-974,-70,-115,-1.96,30.73,34.09
-958,-60,-88,-7.49,27.65,29.82
-927,-33,-53,-13.58,22.82,27.3
-893,-17,20,-20.65,17.22,26.74
-849,-21,203,-32.76,9.24,29.4
-681,-33,872,-72.03,-3.71,39.27
-828,-258,746,-136.15,-52.22,59.64
-1200,-483,220,-83.09,-118.16,44.24
-1234,-500,12,-16.59,-121.17,-6.3
-1122,-277,-117,-32.48,-101.43,-41.16
-1099,4,-202,-60.48,-66.01,-49.91
-1054,180,-206,-38.71,-17.99,-38.78
-1013,96,-120,2.31,16.52,-18.06
-1066,-105,-110,18.76,23.73,-3.92
-1143,-292,-67,23.59,25.55,1.05
-1233,-436,-8,26.88,33.11,-0.28
-1288,-525,65,38.99,26.53,-8.68
-1326,-572,15,54.67,7.07,-21.84
-1354,-544,-55,68.18,2.31,-39.76
-1317,-432,-76,87.99,6.72,-59.71
-1240,-320,-89,103.95,7.28,-72.66
-1198,-241,-141,104.86,4.62,-76.72
-1141,-195,-179,100.45,1.75,-77.21
-1086,-138,-143,89.88,-1.96,-73.57
-1029,-87,-90,76.86,-5.95,-67.62
-996,-82,-81,66.08,-12.81,-59.85
-989,-79,-92,60.97,-18.2,-52.78
-993,-97,-59,65.24,-18.34,-48.58
-984,-124,-30,63.77,-20.79,-45.29
-1017,-127,-63,52.99,-26.81,-42.21
-1028,-121,-68,49.84,-27.93,-39.9
-1038,-126,-36,47.25,-28.21,-35.21
-1032,-162,-27,41.09,-31.01,-31.5
-1030,-190,-44,32.76,-33.25,-28.28
-1020,-201,-51,26.88,-33.04,-27.51
-994,-190,-61,18.34,-33.25,-26.46
-963,-163,-59,9.45,-33.25,-24.43
-920,-129,-46,0.84,-33.81,-21.91
-898,-110,-52,-5.81,-34.23,-18.76
-887,-101,-53,-9.94,-33.04,-15.19
-868,-101,-26,-12.81,-31.78,-10.78
-856,-105,-18,-15.54,-32.69,-6.44
-851,-117,-9,-17.36,-33.67,-1.75
-857,-138,-3,-18.62,-34.16,2.24
-861,-160,2,-19.95,-33.74,5.39
-865,-175,5,-20.58,-32.83,6.65
-859,-178,11,-22.26,-32.62,6.65
-856,-178,24,-23.1,-32.9,6.86
-857,-177,27,-23.94,-33.32,8.26
-854,-179,49,-24.71,-34.37,10.71
-857,-185,70,-25.9,-35.42,12.39
-850,-190,89,-25.97,-37.38,13.23
-854,-208,94,-26.18,-39.83,14.21
-853,-232,80,-26.11,-42.63,14.56
-863,-251,56,-26.53,-43.26,13.51
-876,-266,6,-24.01,-41.58,8.26
-879,-250,-31,-20.93,-34.02,1.61
-870,-229,-6,-19.11,-18.76,-1.89
-861,-219,63,-21.42,-7.35,-3.15
-871,-239,127,-25.9,-2.8,-4.06
-913,-295,170,-24.78,0.35,-4.2
-970,-385,179,-17.78,-0.98,-6.51
-1021,-444,148,-9.94,-5.46,-14.77
-1050,-455,109,-2.24,-5.81,-26.25
-1060,-421,96,3.22,-2.66,-34.58
-1047,-362,78,6.65,-1.54,-38.99
-1022,-282,66,10.57,-0.7,-41.09
-990,-210,74,11.41,0.14,-40.04
-959,-152,78,9.52,0.0,-34.72
-924,-116,92,6.65,0.07,-27.44
-895,-104,112,5.32,0.63,-20.44
-885,-109,113,4.48,-0.14,-14.0
-890,-129,91,4.69,-0.28,-8.89
-903,-162,69,5.95,1.4,-5.39
-916,-197,48,6.86,3.15,-3.5
-922,-214,56,7.0,5.95,-3.08
-927,-215,87,5.53,6.44,-1.82
-929,-218,120,2.8,5.32,0.7
-941,-227,140,2.24,3.29,2.66
-963,-233,149,4.06,1.75,3.99
-984,-238,142,7.98,1.05,5.46
-1001,-250,115,11.41,0.49,7.35
-1003,-269,87,13.65,1.33,8.82
-992,-284,77,15.12,3.01,9.1
-976,-296,78,14.35,3.64,8.33
-968,-301,82,12.25,3.43,6.37
-959,-302,89,10.29,3.15,4.27
-953,-290,105,8.89,3.5,3.08
-942,-275,128,7.21,3.64,2.87
-943,-262,136,5.74,2.66,3.15
-950,-256,130,5.04,1.75,3.43
-964,-258,117,5.39,1.89,3.99
-972,-260,96,6.09,2.66,4.48
-976,-264,75,6.86,3.99,4.69
-972,-261,63,7.35,5.81,4.55
-962,-253,66,7.49,6.93,4.48
-945,-245,87,6.58,7.91,5.18
-937,-241,105,5.74,7.77,5.95
-938,-238,101,5.53,6.58,6.58
-943,-238,85,6.65,6.44,7.07
-950,-235,57,8.61,6.86,6.79
-949,-214,51,9.8,8.89,6.37
-941,-189,47,10.22,11.06,7.07
-924,-163,58,10.43,13.02,8.82
-915,-141,77,9.94,14.63,11.76
-910,-132,83,9.8,14.42,14.77
-911,-126,95,10.57,15.12,17.64
-917,-124,116,10.08,15.4,20.16
-919,-129,141,8.05,15.68,22.47
-942,-163,149,6.93,14.07,24.71
-974,-238,157,6.65,13.65,25.34
-1009,-316,154,7.49,14.07,21.7
-1034,-374,125,9.87,14.28,16.03
-1055,-408,84,11.13,14.84,10.43
