acc_x[mg],acc_y[mg],acc_z[mg],gyro_x[dps],gyro_y[dps],gyro_z[dps]
-1005,141,-83,36.47,6.58,-18.9
-985,165,-92,27.93,0.63,-11.06
-968,161,-102,21.21,-4.2,-4.27
-949,146,-108,17.22,-7.77,-1.68
-926,142,-109,14.56,-9.38,-1.33
-913,171,-101,12.39,-8.82,-0.56
-899,199,-54,7.35,-7.98,1.75
-898,212,-15,-7.49,-9.1,7.21
-914,204,-30,-30.1,-12.11,14.63
-954,157,-104,-48.37,-14.56,20.3
-992,97,-165,-48.3,-11.76,20.93
-1016,64,-150,-31.57,-6.09,14.42
-1024,80,-104,-16.94,-3.85,4.9
-1030,111,-85,-12.39,-4.06,-0.49
-983,178,-100,-11.2,-6.72,-2.66
-1068,62,-93,-8.82,-6.86,-4.97
-968,122,-60,-2.1,-5.11,-5.18
-965,134,-85,-0.77,-12.39,-8.89
-954,156,-118,-0.28,-14.28,-10.57
-937,178,-106,0.98,-14.42,-11.62
-926,204,-106,-2.24,-14.42,-10.78
-919,224,-87,-4.2,-14.49,-8.82
-933,216,-86,-9.8,-14.42,-4.48
-954,195,-97,-16.52,-12.95,-1.05
-983,158,-104,-21.56,-10.43,1.12
-1005,123,-109,-23.52,-8.54,0.07
-1072,43,-101,-21.77,-4.76,-1.47
-1056,38,-86,-16.59,-1.47,-9.03
-1035,29,-87,-9.94,-1.19,-15.82
-1081,-18,-55,-0.63,-0.42,-23.17
-1038,-6,-59,8.12,0.77,-30.17
-988,44,-51,14.21,0.49,-40.67
-973,100,-61,15.61,1.96,-45.22
-953,164,-74,15.68,2.03,-47.11
-927,226,-53,15.05,2.52,-45.22
-905,265,-26,10.15,2.52,-38.64
-902,272,-21,-0.63,-0.14,-28.91
-908,244,-46,-13.65,-4.13,-17.71
-935,187,-73,-23.8,-6.23,-7.28
-976,116,-95,-30.03,-5.67,-0.14
-1019,63,-107,-32.27,-4.06,4.2
-1041,24,-94,-30.66,-3.36,6.02
-1055,0,-67,-28.42,-2.8,6.58
-1065,-11,-47,-28.0,-3.15,6.02
-1083,-14,-61,-28.28,-4.83,3.71
-1084,-6,-69,-24.57,-6.3,-0.42
-1062,11,-69,-21.49,-6.93,-3.57
-1037,30,-84,-20.72,-7.49,-5.11
-1005,51,-90,-18.55,-8.4,-5.81
-963,74,-89,-15.89,-10.15,-6.79
-990,27,-94,-13.3,-12.53,-0.91
-979,23,-104,-13.72,-9.45,-4.9
-958,23,-104,-9.8,-10.08,-5.11
-965,3,-110,-7.07,-10.01,-6.16
-941,10,-110,-4.41,-9.66,-8.47
-929,29,-128,-3.29,-7.7,-10.01
-912,53,-132,-0.7,-2.52,-9.17
-923,65,-118,2.1,5.25,-7.35
-950,53,-64,4.97,11.76,-6.44
-971,36,-29,-0.21,17.43,-5.11
-1108,-72,-79,-13.51,25.69,-2.59
-1171,-154,-135,-17.01,35.14,-9.66
-1221,-227,-207,-7.91,46.27,-26.25
-1209,-235,-194,18.97,54.67,-47.18
-1134,-152,-133,44.52,50.61,-68.67
-1072,-73,-110,59.99,42.07,-83.72
-1045,-46,-91,71.68,33.25,-90.3
-1054,-46,-78,79.73,24.15,-91.0
-1018,-57,-89,81.13,18.83,-89.04
-1015,-75,-128,83.79,17.5,-84.07
-1035,-109,-120,93.31,18.41,-76.93
-1027,-114,-50,97.3,21.0,-71.96
-1019,-107,-5,81.48,21.42,-67.83
-1023,-113,-13,58.59,14.0,-63.21
-991,-101,-16,37.52,9.94,-58.38
-964,-89,-23,15.75,10.71,-50.47
-965,-87,-66,0.07,8.68,-41.93
-947,-65,-98,-4.34,2.94,-36.96
-923,-28,-105,-6.58,-0.91,-34.44
-910,-1,-102,-14.42,-0.56,-30.03
-905,-10,-125,-28.56,-1.54,-21.63
-922,-69,-194,-41.79,-2.59,-13.72
-926,-151,-222,-43.96,-0.98,-8.89
-925,-245,-161,-38.36,0.98,-7.49
-944,-330,-84,-35.0,-0.91,-8.75
-974,-374,-69,-38.01,-7.21,-12.88
-974,-389,-73,-44.31,-9.17,-19.39
-1001,-411,-33,-58.8,-3.22,-25.48
-1016,-396,-79,-71.12,-13.44,-33.81
-1053,-397,-119,-70.56,-23.31,-41.44
-1058,-394,-128,-63.42,-25.48,-48.58
-1032,-377,-140,-54.11,-28.07,-58.1
-996,-371,-177,-39.13,-30.59,-65.66
-993,-376,-178,-15.26,-28.63,-71.68
-1007,-392,-149,8.26,-22.75,-80.29
-1018,-409,-134,29.68,-18.62,-92.05
-1003,-399,-110,50.75,-15.12,-105.07
-993,-370,-80,67.48,-10.71,-113.96
-974,-324,-59,77.35,-7.0,-118.23
-974,-287,-58,84.28,-4.55,-121.17
-962,-235,-41,92.26,-3.92,-121.52
-940,-179,-8,94.64,-2.87,-116.27
-958,-181,15,89.67,-4.97,-108.57
-928,-197,40,82.6,-10.43,-98.56
-918,-233,68,70.77,-20.23,-92.61
-917,-253,43,55.72,-32.48,-87.71
-915,-268,11,46.2,-39.9,-80.99
-898,-286,-7,44.38,-42.07,-74.55
-918,-292,-8,46.27,-43.47,-66.57
-922,-264,-15,52.22,-46.69,-55.23
-877,-228,25,57.89,-47.25,-43.47
-852,-218,68,52.64,-46.76,-29.54
-843,-250,77,38.64,-49.98,-13.86
-850,-290,60,25.55,-55.3,0.0
-848,-312,44,15.61,-57.61,10.71
-846,-320,33,7.21,-57.19,18.27
-838,-328,3,-0.28,-54.74,24.36
-907,-413,-48,-1.33,-49.56,29.47
-885,-404,2,12.88,-49.28,25.9
-889,-378,-10,17.08,-47.25,19.67
-867,-392,-18,21.7,-37.52,15.4
-886,-381,14,28.7,-29.47,13.3
-890,-368,34,31.15,-24.36,15.96
-889,-365,48,29.54,-18.34,20.86
-891,-378,55,26.11,-11.83,23.38
-910,-397,74,23.1,-4.34,19.95
-912,-402,101,19.04,3.78,12.95
-905,-384,128,12.74,9.17,6.37
-897,-371,106,5.04,8.89,3.57
-908,-362,66,-0.56,8.33,3.43
-901,-343,54,-3.01,9.8,0.56
-872,-328,10,-10.57,6.16,-0.84
-847,-332,-107,-29.75,3.36,1.05
-858,-348,-62,-28.14,14.7,2.24
-868,-325,117,-18.41,20.79,2.59
-889,-287,192,-28.7,16.45,3.57
-908,-319,143,-50.96,12.32,7.56
-923,-373,150,-69.02,10.92,10.57
-942,-385,129,-90.65,11.13,11.76
-952,-381,28,-104.79,10.01,11.2
-976,-414,-1,-93.73,13.51,10.92
-998,-450,56,-74.41,22.33,10.22
-1037,-485,44,-67.48,27.3,5.74
-1048,-522,-10,-60.9,30.03,-1.4
-1043,-546,-29,-46.97,32.69,-9.66
-1030,-554,-27,-33.04,32.83,-16.31
-1002,-556,-24,-20.86,26.46,-22.12
-983,-532,-26,-8.96,16.66,-26.88
-957,-478,-8,0.35,11.55,-29.96
-934,-421,30,2.24,9.8,-29.61
-932,-388,20,-1.75,7.0,-26.53
-929,-367,12,-3.85,4.27,-22.89
-926,-353,2,-6.65,3.85,-19.04
-928,-359,-23,-9.38,6.16,-15.61
-935,-380,-40,-8.47,8.47,-11.9
-947,-415,-69,-4.48,10.78,-8.68
-947,-452,-72,2.87,12.53,-8.05
-930,-453,-61,10.57,13.58,-9.66
-902,-449,-44,17.99,14.0,-10.43
-893,-447,-8,23.45,11.83,-8.68
-888,-454,-27,25.41,9.03,-7.21
-894,-461,-27,29.47,8.82,-7.91
-899,-453,-11,30.94,13.51,-10.57
-901,-461,-28,29.26,19.53,-14.07
-869,-425,-12,27.51,22.82,-17.15
-873,-424,-4,20.58,31.01,-17.36
-891,-438,2,13.93,37.31,-16.66
-826,-336,-87,13.23,36.54,-18.06
-714,-234,35,10.57,46.34,9.8
-896,-422,33,-8.47,30.24,24.57
-860,-464,-122,-10.64,13.09,18.76
-932,-528,-35,-1.96,13.02,20.16
-962,-567,-3,0.28,12.11,12.25
-956,-543,-72,3.01,5.32,5.39
-914,-439,-62,10.57,5.53,-0.42
-858,-413,-69,9.59,10.15,-2.24
-909,-444,-61,11.27,9.52,5.11
-920,-419,-40,14.0,8.19,12.11
-914,-391,-99,13.02,7.49,17.64
-930,-327,0,11.48,7.14,22.05
-930,-359,4,0.91,8.05,19.6
-962,-444,-9,-11.2,-0.42,18.2
-986,-518,-16,-17.71,-0.49,15.33
-987,-527,-54,-16.1,-0.7,9.38
-965,-498,-106,-7.42,0.07,0.7
-911,-451,-94,4.41,3.92,-5.81
-916,-399,-43,11.2,7.35,-2.8
-912,-322,29,-9.87,25.69,1.12
-918,-349,88,-27.58,13.93,5.74
-977,-373,-67,-49.7,6.23,14.77
-961,-384,-74,-54.74,0.21,16.31
-957,-380,-107,-59.36,-0.07,14.42
-947,-374,-107,-61.53,-0.84,14.56
-960,-380,-78,-63.0,-4.97,16.31
-928,-404,-73,-61.53,-3.22,15.19
-906,-416,-84,-60.55,1.19,15.54
-898,-410,-102,-59.99,3.15,13.16
-863,-429,-132,-56.35,5.53,5.32
-852,-394,-168,-45.01,6.58,4.13
-885,-361,-145,-29.89,6.51,4.13
-858,-460,-85,-22.89,7.28,2.1
-833,-486,-145,-20.44,7.84,-0.84
-818,-502,-143,-5.39,15.61,-3.08
-822,-522,-171,10.99,25.13,-2.17
-826,-537,-167,9.87,23.8,5.32
-957,-497,-132,0.91,17.22,18.55
-987,-386,-128,-14.21,3.01,30.38
-907,-319,-159,-16.59,-1.19,33.88
-890,-359,-189,-7.77,0.84,29.4
-903,-407,-175,-1.4,0.14,22.68
-930,-435,-149,4.62,1.4,15.89
-949,-442,-138,8.12,1.96,13.09
-948,-427,-132,10.15,2.73,13.09
-955,-391,-134,11.13,2.66,14.21
-955,-353,-135,9.59,0.21,15.05
-944,-331,-140,6.16,-2.94,15.54
-927,-338,-133,3.43,-4.55,15.54
-926,-346,-135,1.19,-5.04,15.19
-927,-366,-149,-0.56,-6.16,15.33
-917,-380,-145,-1.19,-7.0,16.38
-902,-390,-150,1.19,-5.88,16.45
-878,-394,-169,8.61,-3.01,14.28
-890,-386,-172,17.15,-1.05,10.08
-904,-349,-153,22.75,-0.14,6.65
-921,-322,-130,25.97,0.35,4.13
-916,-321,-121,26.39,0.91,3.29
-918,-326,-133,24.92,1.26,3.99
-926,-327,-121,22.96,0.07,4.41
-947,-330,-118,20.02,-1.33,5.6
-952,-317,-121,16.45,-2.1,7.0
-942,-319,-114,13.72,-2.8,6.65
-943,-306,-114,9.8,-3.85,5.6
-946,-289,-99,4.83,-5.39,5.32
-953,-283,-90,-0.49,-7.77,6.72
-969,-288,-98,-6.86,-10.5,9.38
-970,-313,-115,-10.5,-12.04,11.41
-975,-344,-135,-9.38,-12.11,11.9
-988,-361,-128,-4.27,-11.76,10.85
-1007,-364,-111,-0.77,-12.39,10.01
-1035,-326,-113,0.49,-13.44,10.29
-1050,-280,-123,2.66,-14.77,11.2
-1065,-212,-128,3.22,-17.5,12.39
-1064,-187,-120,2.94,-20.3,13.02
-1065,-201,-119,0.56,-22.82,15.33
-1043,-236,-140,-0.21,-23.45,18.48
-1042,-254,-129,4.69,-22.68,21.0
-1063,-240,-105,10.71,-21.35,22.61
-1107,-219,-53,15.4,-21.63,25.2
-1118,-200,-6,16.66,-22.33,27.09
-1126,-134,1,15.82,-24.43,32.48
-1146,-93,23,14.56,-27.86,38.92
-1151,-90,46,10.92,-33.11,44.52
-1128,-118,40,8.68,-36.68,48.02
-1049,-159,-6,10.22,-38.15,49.35
-963,-172,-41,17.85,-35.42,46.62
-900,-153,-122,19.25,-27.23,43.12
-868,-35,-261,7.56,-15.33,41.86
-844,55,-296,-2.24,-4.2,36.4
-843,98,-263,-4.97,2.52,31.01
-859,87,-183,3.22,5.18,31.29
-865,41,-173,7.35,7.28,41.09
-863,-11,-155,6.02,8.4,55.23
-871,-67,-154,3.36,8.4,64.4
-881,-97,-148,-0.07,8.4,69.58
-900,-116,-125,-4.41,9.8,73.08
-916,-155,-103,-7.77,11.41,76.79
-941,-208,-73,-7.84,13.09,80.64
-959,-237,-49,-4.83,15.68,83.65
-989,-220,-44,-2.52,17.64,85.68
-1025,-174,-55,0.07,18.34,86.8
-1048,-135,-52,4.55,18.9,87.78
-1048,-94,-65,5.81,19.81,90.86
-1040,-113,-68,4.76,20.72,90.93
-1019,-145,-64,3.36,21.21,85.33
-1002,-179,-55,1.26,21.63,77.91
-980,-206,-63,0.07,22.33,70.21
-958,-213,-65,1.19,23.03,61.74
-954,-198,-44,2.87,23.17,54.39
-951,-202,-19,2.17,22.61,50.47
-959,-175,-2,-1.47,21.49,49.91
-966,-169,7,-7.35,19.74,47.32
-964,-181,15,-14.21,17.29,45.01
-967,-174,18,-22.19,14.7,42.56
-976,-179,0,-30.73,12.18,39.76
-975,-189,-27,-37.45,10.15,36.61
-972,-200,-48,-41.65,9.03,31.71
-962,-211,-50,-43.4,8.12,24.71
-972,-221,-56,-43.05,7.28,16.38
-978,-226,-74,-40.74,6.44,7.28
-986,-220,-70,-36.4,5.18,-0.91
-991,-202,-68,-32.83,3.01,-8.75
-1007,-171,-84,-29.4,0.56,-14.63
-1019,-131,-98,-23.8,-2.17,-17.36
-1011,-122,-81,-15.47,-4.9,-17.71
-992,-137,-39,-2.31,-4.69,-20.23
-991,-174,-57,3.43,-4.83,-22.19
-969,-160,-69,4.27,-4.83,-18.83
-916,-134,-101,6.44,-4.62,-16.73
-875,-138,-116,11.9,-4.27,-16.38
-850,-129,-125,18.83,-3.36,-16.59
-828,-125,-162,24.15,-2.24,-17.15
-808,-86,-254,19.32,3.29,-14.42
-787,-40,-251,24.43,9.94,-13.93
-813,-51,-152,38.29,15.54,-15.96
-887,-112,-61,45.5,16.73,-13.93
-989,-126,-77,38.36,17.22,-7.35
-1043,-94,-99,31.71,19.88,-2.59
-1092,-48,-122,28.91,22.4,0.42
-1146,5,-111,28.84,25.13,4.9
-1175,53,-130,26.81,26.6,10.92
-1189,111,-137,22.47,24.57,17.64
-1199,133,-78,16.73,19.18,24.08
-1224,104,-31,6.23,11.69,28.35
-1222,62,-14,-6.16,5.11,31.5
-1194,34,-62,-17.36,0.98,34.79
-1145,2,-96,-24.43,-0.7,33.6
-1070,-33,-152,-29.33,-1.61,29.47
-987,-58,-195,-28.56,-0.56,24.22
-930,-52,-238,-22.4,2.59,15.89
-902,-17,-245,-12.32,6.3,7.42
-897,13,-241,0.07,10.08,0.0
-907,46,-218,13.86,14.28,-6.58
-934,88,-209,26.46,16.94,-11.55
-962,123,-193,36.4,17.43,-12.88
-997,149,-176,41.72,16.45,-10.36
-1026,174,-169,41.23,13.23,-4.97
-1022,166,-162,35.14,8.54,2.24
-1002,133,-163,27.58,4.76,7.49
-977,97,-175,20.16,2.1,9.94
-957,68,-179,12.25,-0.28,11.06
-938,44,-181,4.13,-2.66,10.99
-920,16,-160,-1.96,-3.43,9.8
-910,-4,-170,-4.06,-1.89,7.56
-901,-3,-192,-1.26,1.05,4.69
-898,12,-222,2.45,3.71,1.19
-886,21,-247,4.69,5.18,-2.03
-862,9,-266,5.46,6.65,-4.62
-810,-35,-254,6.72,8.19,-8.47
-765,-101,-176,11.9,11.55,-14.28
-747,-168,-97,27.02,15.82,-21.28
-783,-131,-211,50.75,22.75,-26.88
-783,-5,-308,78.61,28.56,-25.13
-944,88,-236,103.88,25.06,-17.85
-1184,168,-226,103.81,22.96,0.77
-1317,247,-186,89.95,19.88,14.56
-1287,271,-158,65.73,18.2,19.88
-1255,245,-124,36.19,12.18,24.92
-1240,193,-114,7.7,1.12,30.73
-1195,136,-127,-17.5,-9.31,35.7
-1140,75,-129,-38.15,-17.5,36.33
-1063,1,-128,-52.22,-20.51,29.26
-995,-50,-179,-58.8,-19.81,20.65
-916,-69,-234,-56.0,-15.33,12.67
-846,-83,-226,-41.72,-7.77,3.01
-851,-108,-190,-20.09,0.56,-8.89
-896,-73,-219,1.54,6.86,-18.9
-959,45,-236,23.45,10.5,-21.56
-1012,172,-255,41.44,11.41,-18.41
-1081,225,-240,50.75,9.17,-10.01
-1101,212,-198,49.77,6.02,-2.24
-1101,186,-142,43.26,0.98,3.92
-1085,153,-144,30.03,-3.57,7.56
-1049,118,-149,15.19,-6.37,11.2
-997,66,-151,0.42,-6.72,11.83
-929,28,-190,-12.46,-4.62,8.4
-874,-9,-217,-17.43,-1.54,2.73
-852,-25,-259,-16.52,1.96,-3.36
-837,-33,-259,-9.1,3.57,-8.61
-867,-49,-234,1.05,5.46,-13.16
-934,-51,-207,11.69,7.14,-16.03
-1024,-44,-113,18.76,6.65,-13.16
-1146,-46,-57,13.72,4.9,-4.06
-1221,-44,-81,0.98,3.01,6.72
-1205,-9,-142,-10.01,2.38,12.53
-1085,39,-204,-13.72,2.66,14.07
-1011,75,-232,-8.89,3.08,11.13
-968,95,-226,-0.98,3.22,5.18
-972,89,-206,5.81,2.73,0.91
-978,71,-194,9.03,2.31,-0.56
-986,50,-195,8.96,2.17,0.42
-981,34,-208,7.35,2.52,2.17
-975,32,-220,6.09,2.87,3.43
-975,37,-223,5.6,2.94,3.71
-960,50,-228,6.09,3.08,2.8
-963,67,-215,5.88,2.66,2.94
-971,74,-213,2.87,2.1,3.29
-982,67,-210,-1.75,1.54,3.43
-984,61,-213,-7.49,1.05,3.15
-996,44,-211,-12.67,0.77,2.17
-1015,14,-201,-16.1,0.77,0.91
-1030,-16,-203,-19.04,1.4,0.35
-1037,-38,-213,-20.65,2.8,0.42
-1045,-55,-199,-19.11,3.92,0.07
-1049,-76,-183,-18.62,4.62,-1.61
-1048,-97,-212,-24.71,5.88,-3.43
-1035,-104,-235,-29.89,8.12,-6.3
-1026,-120,-210,-30.73,10.64,-10.92
-1033,-112,-230,-33.67,13.02,-14.42
-1040,-78,-263,-34.02,15.54,-15.68
-1043,-46,-246,-26.32,17.15,-16.1
-1090,-18,-193,-16.31,17.15,-15.26
-1129,2,-161,-9.03,15.61,-13.51
-1148,25,-155,-2.59,13.37,-10.71
-1129,40,-170,4.69,10.64,-7.63
-1111,64,-196,14.28,7.35,-3.29
-1072,78,-218,22.68,3.29,1.33
-1044,86,-253,28.14,-1.82,6.51
-1020,93,-256,33.04,-7.14,8.89
-974,102,-279,33.67,-13.23,9.66
-955,96,-278,36.54,-17.99,10.64
-920,78,-268,38.71,-21.14,9.03
-895,57,-264,38.5,-22.26,7.84
-879,26,-249,37.73,-21.49,6.3
-861,-2,-240,34.86,-19.88,3.85
-837,-17,-235,31.43,-17.92,1.61
-808,-32,-214,29.96,-15.54,-2.45
-794,-53,-175,28.49,-13.65,-7.98
-807,-67,-158,24.29,-12.81,-12.25
-813,-79,-152,18.13,-12.04,-16.87
-838,-101,-164,12.18,-11.69,-21.0
-864,-132,-170,8.96,-10.85,-23.66
-886,-149,-184,8.12,-9.94,-25.62
-912,-159,-192,9.94,-8.75,-28.49
-933,-158,-201,13.93,-7.28,-32.27
-954,-140,-195,19.67,-6.09,-35.91
-974,-118,-176,24.36,-5.25,-38.92
-996,-100,-168,25.62,-4.9,-40.74
-999,-88,-180,22.82,-4.48,-41.44
-998,-80,-216,17.36,-4.06,-40.46
-986,-64,-267,11.34,-1.89,-38.78
-980,-47,-287,10.15,1.96,-37.17
-984,-36,-282,11.62,5.88,-35.49
-999,-25,-281,12.25,9.17,-31.22
-1006,-4,-293,10.78,12.39,-24.64
-1010,21,-308,7.84,15.82,-15.89
-1007,37,-312,6.16,18.97,-8.12
-1006,34,-313,4.27,21.35,-1.75
-1011,38,-324,3.85,23.87,4.2
-1004,52,-329,6.79,26.67,8.12
-1019,71,-321,9.94,28.98,12.04
-1031,99,-298,12.39,30.94,15.96
-1038,116,-283,12.67,32.06,21.07
-1035,109,-292,10.08,32.69,26.81
-1023,100,-301,7.63,33.04,31.85
-1001,94,-298,6.79,33.74,34.86
-977,104,-287,7.07,33.46,35.49
-965,105,-278,8.26,32.97,34.79
-957,93,-250,9.73,32.06,34.16
-944,81,-245,10.36,31.5,33.25
-920,67,-233,13.44,30.8,31.85
-895,46,-210,18.06,30.66,28.84
-868,8,-174,22.61,30.17,24.08
-841,-44,-135,26.6,29.05,18.41
-808,-72,-145,30.45,27.44,13.51
-782,-77,-183,36.68,28.0,6.44
-752,-86,-173,51.45,29.33,-5.39
-741,-91,-259,62.16,31.78,-16.73
-688,-37,-233,51.87,39.76,-20.16
-726,-74,-67,63.56,38.01,-18.62
-903,-169,69,70.42,19.74,-10.08
-1065,-116,-216,38.78,5.11,5.04
-1109,101,-406,21.21,3.08,22.33
-1245,304,-345,2.17,5.39,33.88
-1542,529,-474,-35.14,9.73,38.78
-1578,632,-360,-65.45,10.64,56.77
-1540,547,-166,-113.4,-7.56,80.15
-1501,392,-161,-161.7,-20.72,83.93
-1377,320,-301,-190.12,-24.57,78.96
-1229,225,-315,-197.68,-27.51,76.09
-1104,103,-364,-196.91,-23.38,67.13
-1021,-16,-455,-186.69,-21.28,58.94
-928,-117,-440,-167.44,-22.61,55.09
-889,-211,-410,-142.1,-20.44,49.98
-885,-262,-431,-114.17,-18.06,37.94
-921,-262,-362,-82.46,-18.13,21.07
-998,-183,-341,-60.06,-20.02,3.36
-1082,-59,-302,-42.42,-24.08,-6.3
-1129,41,-255,-29.54,-29.47,-9.73
-1135,109,-243,-19.11,-34.37,-12.11
-1091,150,-223,-9.31,-38.36,-17.15
-1022,166,-242,1.05,-41.44,-27.16
-964,172,-233,12.88,-42.28,-37.87
-922,153,-248,20.3,-40.88,-45.5
-891,138,-271,27.16,-38.78,-47.39
-879,107,-257,35.21,-37.45,-47.39
-875,70,-226,39.9,-36.47,-46.97
-885,47,-210,40.11,-36.26,-45.01
-898,36,-169,39.13,-37.31,-41.58
-937,57,-168,35.7,-39.76,-37.17
-985,89,-107,35.42,-44.24,-31.43
-1049,99,-54,32.76,-49.56,-25.41
-1086,101,-32,24.15,-54.39,-17.29
-1077,44,-26,11.69,-58.38,-12.11
-1046,-4,-74,-0.14,-59.99,-10.57
-1013,-24,-107,-9.31,-58.24,-11.83
-958,-8,-144,-13.93,-54.11,-16.03
-891,11,-175,-15.33,-48.37,-22.61
-842,77,-263,-14.56,-39.69,-27.09
-788,151,-292,-11.13,-27.79,-27.37
-737,130,-265,-4.06,-17.71,-25.34
-758,116,-281,-1.12,-11.27,-24.71
-716,82,-338,-1.19,-7.91,-19.39
-678,63,-340,5.74,-5.11,-15.82
-695,68,-316,15.82,-0.98,-12.95
-726,59,-250,25.06,1.82,-7.14
-776,42,-181,30.73,2.31,-0.21
-835,21,-126,33.04,1.26,6.02
-867,10,-103,30.03,0.77,12.88
-877,10,-123,23.52,0.49,18.76
-885,-6,-99,18.69,-0.35,21.0
-896,-5,-108,17.36,-0.35,20.72
-897,13,-125,18.13,-0.14,21.07
-897,51,-168,19.88,1.33,22.75
-879,98,-195,21.28,3.85,24.78
-880,125,-206,24.57,6.86,23.24
-901,141,-180,34.02,9.1,19.46
-941,161,-148,45.01,10.5,18.48
-977,204,-138,55.72,10.22,20.58
-1018,236,-115,60.06,8.82,23.38
-1066,242,-100,56.63,6.51,27.65
-1082,231,-89,45.85,3.78,32.76
-1070,204,-129,29.68,2.66,36.61
-1012,180,-240,9.59,4.9,37.94
-897,185,-397,-15.12,10.64,36.68
-792,209,-414,-40.67,22.26,32.97
-743,153,-265,-52.92,38.64,19.81
-788,155,-255,-40.04,48.51,9.87
-897,261,-176,-0.35,47.46,10.92
-1025,447,-136,41.93,38.57,16.45
-1107,640,-212,69.65,30.52,31.71
-1068,729,-357,80.5,24.99,51.45
-981,755,-406,79.1,24.64,67.83
-881,648,-408,69.58,37.31,69.37
-778,449,-289,46.83,49.7,58.8
-658,173,-264,15.75,55.51,38.29
-464,-158,-72,-1.12,60.62,13.51
-345,-534,5,-5.74,70.84,-12.53
-512,-667,-99,-0.07,70.14,-28.07
-815,-367,-388,21.14,67.69,-26.67
-1004,19,-212,76.93,58.24,-17.5
-1031,265,-75,105.7,41.72,-9.94
-1202,411,-97,98.77,31.92,0.49
-1365,494,-134,84.49,30.52,9.1
-1573,621,-157,70.42,29.61,11.69
-1763,703,-22,50.26,24.57,13.65
-1727,648,59,-0.42,12.39,24.57
-1517,522,-4,-64.61,-3.36,36.89
-1382,383,-89,-114.87,-12.32,33.81
-1134,273,-186,-152.32,-21.07,32.97
-988,191,-277,-174.86,-23.45,32.62
-869,72,-317,-187.81,-21.84,31.99
-810,-55,-361,-191.52,-10.15,30.45
-780,-127,-416,-179.69,3.22,22.68
-754,-112,-420,-148.82,10.29,10.22
-795,-13,-372,-110.6,12.39,-0.91
-861,76,-328,-74.62,10.64,-9.8
-902,152,-300,-49.28,9.24,-14.28
-938,193,-266,-32.13,8.54,-17.43
-954,182,-251,-21.7,7.91,-23.73
-945,148,-268,-15.75,7.56,-32.62
-919,148,-276,-8.26,9.45,-40.95
-888,159,-248,3.92,12.88,-48.02
-863,158,-200,21.63,14.7,-53.13
-837,121,-156,45.78,12.67,-57.4
-778,-31,-88,70.63,6.51,-64.82
-674,-254,-90,83.23,-5.67,-70.77
-706,-369,-175,78.12,-18.41,-68.53
-624,-361,-288,67.2,-20.72,-69.79
-558,-291,-390,58.24,-18.76,-68.25
-523,-165,-449,59.57,-13.72,-71.96
-688,-139,-403,72.52,-5.53,-77.07
-896,-97,-368,58.52,6.44,-71.89
-993,21,-353,32.55,19.39,-69.51
-1123,113,-245,14.7,19.67,-66.15
-1266,122,-131,1.89,13.44,-64.82
-1380,131,-47,-5.95,7.07,-58.17
-1431,229,-101,-8.4,3.57,-44.24
-1416,353,-188,-9.59,2.59,-28.7
-1364,427,-272,-16.17,0.56,-14.98
-1288,429,-335,-30.87,-2.52,-3.36
-1228,375,-356,-49.7,-4.34,4.13
-1155,294,-369,-65.66,-1.75,5.25
-1119,208,-398,-75.95,1.82,3.64
-1052,125,-395,-82.6,2.94,4.97
-990,52,-378,-82.25,4.41,4.13
-916,1,-385,-72.38,7.07,2.8
-855,-36,-395,-53.41,9.73,-1.61
-818,-78,-365,-32.06,12.67,-6.3
-802,-96,-376,-9.87,16.24,-10.22
-787,-87,-373,12.6,18.69,-12.04
-791,-84,-342,33.18,19.81,-14.49
-824,-66,-352,49.35,18.76,-16.38
-868,-7,-339,61.53,17.71,-14.63
-935,58,-311,68.04,15.61,-12.6
-1019,114,-278,66.22,11.76,-9.03
-1089,163,-251,58.66,7.0,-2.59
-1131,198,-234,46.27,1.82,5.04
-1159,214,-235,30.8,-2.1,11.9
-1142,197,-244,15.4,-4.83,14.84
-1092,150,-261,1.26,-5.95,13.93
-1025,101,-284,-9.1,-5.46,10.22
-955,62,-297,-13.72,-3.15,3.5
-898,27,-326,-14.84,0.77,-4.27
-871,2,-347,-13.09,3.64,-11.27
-837,-27,-354,-9.03,5.53,-15.54
-806,-43,-363,-2.24,7.63,-18.83
-791,-45,-371,6.37,9.59,-22.33
-796,-36,-370,16.31,10.78,-24.78
-827,-7,-359,24.5,11.27,-24.57
-867,45,-354,28.42,10.78,-20.44
-977,101,-301,27.23,9.52,-12.32
-1042,136,-258,17.15,9.38,-4.76
-1095,146,-233,3.92,5.53,3.78
-1113,124,-218,-9.8,1.12,10.08
-1096,87,-228,-20.93,-1.33,11.9
-1056,65,-256,-28.77,-1.75,10.43
-1006,53,-287,-33.67,-1.12,6.37
-955,35,-316,-35.42,0.07,1.89
-926,12,-333,-34.23,1.82,-1.75
-918,-8,-343,-30.31,3.5,-4.41
-924,-20,-344,-25.13,4.9,-5.11
-934,-21,-335,-20.09,5.67,-4.2
-951,-13,-322,-15.89,5.81,-2.8
-966,2,-312,-12.53,4.9,-1.54
-982,22,-303,-10.5,3.71,0.0
-981,32,-309,-9.87,2.52,1.19
-973,34,-313,-9.66,1.54,1.54
-969,26,-320,-9.24,1.4,0.7
-964,24,-324,-8.89,1.05,-0.84
-951,16,-325,-8.33,0.98,-2.59
-951,13,-330,-7.35,1.12,-4.41
-956,9,-332,-5.95,1.19,-5.88
-957,6,-336,-4.62,1.33,-6.72
-961,11,-336,-3.71,1.47,-7.14
-960,17,-334,-3.64,1.75,-7.28
-962,22,-334,-4.06,1.82,-7.7
-955,22,-328,-4.41,1.54,-8.82
-958,20,-334,-5.39,1.68,-9.59
-962,12,-331,-6.3,1.61,-10.22
-972,13,-331,-7.49,1.89,-10.85
-952,16,-338,-8.54,2.87,-11.41
-955,24,-339,-8.68,2.17,-11.27
-949,34,-341,-9.03,2.17,-11.9
-948,43,-338,-10.01,1.54,-11.83
-948,42,-331,-11.2,0.63,-11.06
-960,34,-327,-12.81,-0.35,-10.57
-962,17,-322,-14.35,-1.54,-10.29
-961,-1,-321,-15.54,-1.61,-9.45
-965,-16,-318,-15.82,-2.17,-8.19
-950,-25,-322,-15.61,-2.1,-7.77
-953,-37,-310,-13.3,-2.31,-7.84
-950,-42,-311,-11.97,-2.38,-8.33
-943,-36,-311,-10.64,-2.31,-7.42
-941,-32,-311,-9.17,-1.61,-6.79
-943,-35,-317,-7.35,-1.12,-6.44
-955,-43,-320,-5.6,-0.28,-5.74
-956,-48,-323,-3.57,0.91,-5.46
-968,-55,-319,-0.56,0.91,-4.76
-969,-61,-315,2.38,0.56,-3.99
-967,-66,-323,4.55,-0.07,-3.08
-954,-74,-333,6.79,-0.35,-2.17
-942,-77,-340,10.01,-0.21,-2.24
-934,-73,-344,13.86,-0.07,-2.8
-927,-64,-348,17.92,-0.07,-3.29
-922,-62,-349,21.98,-0.14,-3.71
-921,-63,-353,25.69,-0.28,-3.78
-919,-63,-349,29.61,-0.42,-4.06
-926,-53,-346,32.41,-0.98,-3.85
-934,-40,-337,34.16,-1.54,-2.8
-938,-35,-331,34.58,-2.1,-1.26
-943,-30,-328,33.88,-2.73,0.42
-943,-24,-324,32.9,-3.15,1.96
-942,-20,-321,31.36,-3.36,2.59
-943,-16,-323,29.26,-3.43,2.8
-943,-6,-322,27.3,-3.29,3.15
-947,5,-318,24.78,-3.08,3.29
-950,17,-314,22.26,-2.94,3.29
-953,24,-310,19.46,-2.94,3.29
-953,27,-313,16.24,-3.08,3.36
-955,24,-314,13.58,-3.01,3.22
-961,18,-314,10.71,-2.94,3.08
-963,15,-314,8.75,-2.73,2.8
-963,21,-317,7.07,-2.73,2.31
-961,28,-321,5.81,-2.66,1.68
-960,26,-317,4.69,-2.52,1.4
-956,22,-314,3.22,-2.52,1.26
-951,15,-314,1.82,-2.45,0.84
-947,9,-313,0.84,-2.45,0.21
-941,5,-311,0.28,-2.59,-0.63
-939,2,-310,-0.14,-2.8,-1.05
-941,-1,-308,-0.07,-3.08,-1.33
-946,-10,-306,0.35,-3.22,-1.4
-949,-16,-306,0.91,-3.43,-1.33
-954,-18,-305,1.75,-3.5,-1.54
-959,-23,-302,2.1,-3.64,-1.96
-961,-22,-304,1.96,-3.64,-2.45
-964,-24,-302,2.03,-3.5,-3.15
-967,-29,-301,1.33,-3.43,-3.08
-966,-38,-303,0.77,-3.36,-2.94
-962,-42,-306,0.28,-3.22,-2.8
-959,-46,-306,0.21,-3.01,-2.87
-955,-50,-311,0.21,-2.73,-3.36
-951,-52,-315,0.49,-2.45,-3.78
-949,-58,-317,1.12,-2.03,-4.27
-949,-63,-315,1.68,-1.68,-4.76
-949,-66,-314,2.1,-1.33,-4.76
-952,-61,-311,2.52,-1.19,-4.34
-955,-60,-308,2.66,-1.4,-3.78
-956,-60,-307,2.73,-1.54,-3.08
-954,-62,-307,2.45,-1.75,-2.17
-948,-59,-310,2.31,-1.82,-1.4
-943,-58,-312,2.66,-1.82,-1.19
-940,-59,-310,3.08,-1.68,-1.05
-944,-58,-312,3.43,-1.61,-0.42
-942,-58,-313,3.99,-1.68,0.42
-947,-57,-311,5.11,-1.61,0.91
-953,-53,-306,6.02,-1.61,1.26
-957,-45,-303,6.37,-1.75,1.61
-962,-37,-300,6.58,-1.96,1.75
-970,-36,-287,6.3,-2.38,1.68
-982,-38,-275,4.97,-3.36,1.68
-1000,-27,-275,2.45,-4.41,2.66
-1014,-17,-274,-0.42,-5.67,3.99
-1022,-8,-273,-3.64,-6.23,5.67
-1023,8,-280,-7.21,-6.44,6.72
-1015,23,-287,-10.29,-6.02,6.93
-1009,34,-289,-12.32,-5.53,7.63
-1000,14,-281,-14.28,-5.46,7.63
-997,-11,-273,-16.38,-5.67,7.0
-1001,-34,-283,-17.99,-5.95,5.81
-998,-43,-295,-17.85,-4.97,4.69
-997,-28,-311,-17.36,-4.34,4.83
-992,-12,-306,-17.92,-4.55,4.62
-993,-9,-298,-19.25,-4.76,3.85
-988,-10,-306,-21.0,-5.53,3.29
-976,-5,-315,-22.05,-5.46,2.45
-964,-5,-303,-21.14,-5.74,0.21
-951,-2,-315,-18.9,-5.25,-2.17
-937,10,-332,-16.45,-5.95,-3.08
-930,7,-326,-13.79,-6.72,-4.27
-925,-5,-329,-10.92,-6.65,-5.67
-912,-12,-328,-7.14,-6.44,-6.3
-907,-14,-325,-3.22,-5.67,-7.28
-910,-16,-319,0.77,-5.11,-8.4
-917,-8,-319,3.99,-4.76,-8.61
-927,-3,-315,6.02,-4.41,-8.61
-938,-5,-308,7.21,-4.34,-8.75
-944,-5,-299,7.0,-4.2,-8.75
-952,-2,-289,6.09,-4.2,-8.75
-960,-3,-275,4.2,-4.62,-8.05
-961,-9,-269,1.89,-5.04,-6.58
-965,-8,-273,0.21,-5.25,-4.41
-966,-8,-279,-1.26,-5.39,-2.52
-971,-13,-273,-2.59,-5.39,-0.91
-974,-22,-268,-3.36,-5.25,0.7
-975,-26,-275,-3.43,-4.62,1.96
-977,-25,-277,-3.92,-4.2,2.45
-994,-23,-270,-3.92,-3.85,1.96
-1021,-3,-273,-4.06,-4.06,2.31
-1048,14,-267,-5.53,-4.41,3.85
-1078,19,-266,-8.19,-4.9,5.6
-1102,27,-256,-10.92,-5.39,7.49
-1126,28,-247,-12.25,-4.97,7.49
-1173,61,-248,-12.81,-6.37,9.24
-1230,109,-236,-15.82,-7.14,10.43
-1290,173,-251,-23.1,-8.68,14.14
-1348,238,-259,-35.42,-11.41,21.14
-1379,290,-271,-54.95,-14.77,29.96
-1370,300,-276,-78.12,-18.97,38.36
-1296,282,-301,-100.03,-22.68,43.26
-1205,249,-333,-112.49,-25.62,44.87
-1115,211,-376,-114.24,-26.32,43.61
-1004,172,-364,-106.68,-24.57,41.16
-918,117,-319,-89.39,-22.82,36.33
-888,76,-284,-71.68,-23.8,29.61
-852,58,-278,-56.98,-26.25,25.27
-787,37,-283,-41.86,-28.14,23.87
-722,8,-295,-28.21,-28.91,23.31
-648,-30,-300,-15.12,-27.93,21.42
-576,-66,-292,-2.03,-25.62,17.36
-509,-106,-274,12.6,-22.05,10.92
-520,-122,-257,27.51,-18.41,3.64
-506,-107,-252,38.78,-15.75,1.4
-486,-133,-199,47.39,-14.07,-0.07
-521,-154,-224,48.37,-12.18,0.84
-550,-142,-306,43.05,-7.98,5.04
-569,-127,-287,42.49,0.84,10.99
-635,-128,-207,46.83,6.16,14.0
-741,-108,-150,51.38,7.21,16.66
-836,-97,-104,51.87,6.09,21.07
-913,-74,-118,48.51,2.66,24.15
-982,-36,-117,46.97,-0.56,24.43
-1060,-7,-96,46.76,-5.25,23.66
-1174,45,-109,42.28,-9.8,23.66
-1244,167,-118,33.88,-10.64,26.88
-1310,239,-63,21.35,-11.2,32.55
-1336,264,-107,1.4,-12.6,36.61
-1296,253,-142,-17.08,-12.04,38.36
-1253,198,-153,-28.42,-11.55,32.27
-1229,167,-154,-33.81,-11.13,22.61
-1207,157,-174,-36.61,-11.2,15.19
-1177,160,-179,-36.12,-11.69,11.27
-1143,145,-172,-33.88,-13.09,7.91
-1117,133,-183,-30.1,-15.47,3.71
-1093,102,-156,-22.82,-17.71,-1.75
-1077,80,-164,-16.73,-19.88,-7.91
-1060,82,-150,-10.08,-20.37,-13.44
-1047,88,-152,-4.97,-20.93,-18.97
-1046,109,-176,-3.08,-21.42,-22.05
-1045,105,-163,-2.38,-21.28,-23.17
-1044,97,-166,-4.41,-20.44,-24.36
-1052,77,-167,-7.07,-19.67,-25.41
-1052,58,-163,-7.49,-20.02,-26.18
-1026,59,-164,-4.97,-21.14,-25.13
-1019,66,-141,-0.35,-22.33,-24.15
-959,83,-159,4.34,-22.33,-24.29
-950,96,-151,10.08,-25.97,-21.77
-941,99,-152,15.54,-27.72,-22.19
-892,89,-177,22.12,-28.28,-24.78
-896,78,-155,29.54,-30.1,-25.34
-903,104,-168,35.35,-29.47,-26.04
-907,115,-155,38.64,-28.35,-25.76
-905,124,-161,39.48,-26.53,-23.94
-896,130,-157,38.43,-24.43,-21.7
-889,132,-167,36.96,-21.98,-20.65
-875,128,-146,35.28,-19.67,-19.81
-873,125,-154,33.88,-16.66,-18.76
-877,127,-154,31.43,-14.14,-16.8
-871,128,-155,28.28,-12.11,-13.93
-873,121,-143,24.22,-10.08,-10.92
-887,106,-136,20.72,-8.4,-8.26
-905,91,-117,18.13,-7.63,-5.46
-933,81,-106,16.52,-7.35,-2.8
-954,80,-90,15.19,-7.98,-0.42
-972,82,-84,14.0,-8.82,0.91
-991,82,-72,12.67,-9.66,0.84
-1007,89,-73,11.13,-10.01,0.42
-1018,103,-63,8.47,-10.71,-0.21
-1025,107,-68,4.76,-11.34,-1.68
-1027,105,-66,0.07,-11.69,-2.17
-1026,107,-79,-2.94,-11.55,-2.73
-1015,112,-99,-5.46,-10.85,-3.43
-1000,118,-120,-7.21,-9.52,-4.06
-979,119,-137,-8.96,-7.21,-4.83
-957,113,-146,-10.92,-5.04,-6.23
-940,99,-146,-11.55,-2.52,-8.05
-935,96,-139,-9.8,-0.42,-9.17
-935,94,-137,-7.35,0.98,-8.75
-935,94,-132,-4.48,2.1,-7.49
-941,93,-122,-1.75,3.01,-5.81
-953,93,-116,0.42,3.64,-3.99
-969,86,-102,1.61,3.71,-2.24
-983,74,-92,2.24,3.15,-1.12
-999,54,-79,2.24,2.38,-0.21
-1014,33,-74,1.75,1.33,0.28
-1024,19,-64,1.82,0.0,0.14
-1030,16,-55,3.08,-1.19,-0.77
-1036,32,-59,5.39,-1.89,-1.26
-1038,56,-62,7.0,-2.38,-1.05
-1036,77,-71,7.49,-2.59,-0.63
-1022,91,-84,6.44,-2.73,-0.14
-1011,89,-86,4.41,-2.45,-0.21
-1001,84,-93,2.38,-1.68,-0.56
-995,73,-92,0.28,-0.84,-0.77
-994,56,-86,-1.05,-0.14,-0.7
-995,44,-80,-1.26,0.07,-0.91
-996,49,-82,-0.63,0.21,-0.42
-998,63,-90,0.14,0.07,0.21
-1000,84,-100,0.42,-0.56,0.91
-993,111,-118,0.84,-0.77,2.52
-977,159,-147,2.31,-0.21,4.83
-952,211,-179,4.13,1.47,7.77
-917,239,-168,5.04,5.32,12.6
-876,183,-185,0.77,10.29,16.8
-831,102,-215,-11.27,13.72,19.04
-810,-5,-195,-19.88,15.96,15.96
-828,-66,-157,-22.19,16.73,11.48
-855,-76,-137,-17.92,17.22,10.08
-871,-27,-147,-11.27,17.36,12.74
-872,44,-159,-3.64,17.22,16.03
-868,135,-198,4.76,18.62,19.32
-849,199,-243,11.69,22.33,22.82
-811,217,-257,10.5,27.09,25.69
-779,131,-255,9.59,33.95,24.15
-772,88,-315,8.89,40.18,21.56
-774,46,-242,12.88,43.68,15.89
-836,27,-164,27.23,45.22,9.59
-926,35,-106,40.88,43.12,9.52
-993,35,-25,53.62,38.15,14.63
-1122,23,14,61.67,29.68,21.07
-1243,62,60,60.41,18.76,24.01
-1400,144,128,54.6,7.28,28.42
-1524,242,141,37.38,-5.25,35.63
-1569,260,135,10.43,-16.73,47.04
-1469,205,12,-19.04,-22.4,53.62
-1278,153,-118,-41.79,-22.33,47.39
-1105,112,-201,-52.36,-18.13,26.6
-998,125,-247,-54.18,-11.9,3.15
-936,142,-257,-53.9,-5.95,-12.39
-866,140,-297,-54.46,-0.21,-18.62
-783,93,-350,-53.83,4.83,-17.71
-680,20,-389,-51.66,12.32,-16.94
-593,-59,-402,-44.45,23.1,-21.56
-531,-122,-395,-29.26,35.42,-32.13
-506,-183,-346,-4.55,48.44,-47.18
-509,-184,-339,23.03,56.42,-62.23
-461,-235,-254,50.33,61.18,-75.25
-543,-266,-243,71.05,59.22,-81.69
-621,-104,-382,97.02,54.67,-73.85
-811,-13,-277,134.54,46.97,-60.9
-1013,79,-198,142.31,38.36,-41.09
-1167,141,-38,141.89,32.48,-17.29
-1324,198,18,129.29,23.38,4.13
-1448,341,-43,106.26,13.58,20.51
-1555,453,35,89.25,8.68,36.05
-1611,432,72,59.64,5.11,52.92
-1481,271,-27,17.71,-6.02,68.74
-1251,120,-183,-17.78,-12.18,67.48
-1072,24,-345,-36.12,-6.3,43.89
-921,-18,-414,-35.98,5.67,12.67
-833,-41,-345,-22.96,20.44,-17.36
-773,-106,-298,-9.52,30.17,-38.08
-699,-180,-334,3.78,31.85,-46.62
-589,-237,-331,25.9,31.57,-49.77
-611,-230,-332,54.81,24.64,-47.53
-716,-154,-307,83.3,19.53,-37.87
-999,-27,-359,100.66,22.54,-25.55
-1089,147,-397,106.75,26.53,-24.92
-1166,340,-359,103.25,30.1,-23.38
-1254,432,-247,86.31,26.81,-16.17
-1291,410,-142,55.02,17.22,-4.48
-1222,276,-117,16.66,4.97,5.74
-1091,96,-139,-10.64,-4.06,5.88
-1020,-41,-239,-18.13,-3.36,-1.75
-944,-90,-267,-16.66,2.1,-8.19
-931,-108,-313,-11.9,5.32,-12.11
-915,-119,-353,-5.88,6.93,-8.96
-941,-118,-334,2.66,9.38,-4.62
-984,-84,-317,8.89,12.67,-3.92
-1023,-23,-310,12.32,15.54,-3.08
-1057,21,-292,10.99,14.7,-1.26
-1078,31,-275,7.21,12.32,-0.91
-1059,25,-286,1.47,8.96,-2.52
-989,15,-318,-3.08,5.18,-5.25
-916,-1,-329,-2.45,1.4,-8.96
-823,-44,-338,4.48,-0.21,-14.35
-783,-86,-348,14.77,0.49,-19.74
-765,-113,-369,26.25,1.68,-21.91
-831,-113,-380,38.22,2.94,-23.1
-917,-85,-367,47.32,5.18,-25.2
-1082,-32,-345,50.12,9.52,-21.07
-1143,70,-272,37.94,12.88,-10.99
-1206,143,-190,16.31,13.23,3.15
-1240,152,-182,-3.92,7.7,14.91
-1206,108,-242,-21.7,0.63,20.86
-1103,42,-304,-35.49,-4.2,19.32
-1014,-19,-321,-42.42,-7.7,11.2
-954,-57,-328,-42.28,-8.19,1.4
-926,-89,-301,-37.73,-7.07,-5.6
-948,-94,-306,-31.29,-3.71,-9.59
-987,-83,-352,-22.75,-0.7,-8.26
-1017,-45,-350,-16.87,0.35,-2.45
-1080,4,-335,-16.87,1.26,3.15
-1141,62,-333,-22.19,2.1,7.35
-1224,136,-326,-36.4,0.91,14.77
-1282,166,-315,-60.9,-0.77,24.22
-1274,159,-278,-97.93,-6.72,39.62
-1287,155,-265,-131.81,-16.1,52.43
-1265,150,-281,-152.11,-22.54,59.08
-1252,135,-292,-162.82,-27.93,62.44
-1218,121,-323,-167.3,-32.76,63.63
-1188,90,-319,-158.34,-31.92,60.41
-1137,28,-337,-141.19,-31.22,51.03
-1071,-40,-335,-134.26,-37.59,38.99
-1012,-100,-361,-123.55,-38.64,24.22
-942,-131,-374,-99.26,-35.49,9.94
-908,-142,-375,-70.7,-28.49,2.59
-845,-120,-353,-44.66,-18.13,-0.14
-744,-115,-354,-23.94,-10.92,-1.89
-656,-111,-398,-9.1,-6.93,-5.81
-589,-101,-408,7.0,-6.72,-14.56
-555,-85,-349,29.33,-9.52,-24.15
-588,-85,-264,52.29,-16.17,-26.88
-653,-76,-210,69.02,-21.98,-24.71
-721,-32,-199,77.14,-24.85,-18.69
-766,18,-185,83.16,-25.76,-8.82
-796,57,-176,84.35,-27.02,3.92
-820,91,-191,78.26,-28.21,16.17
-824,143,-208,72.1,-30.1,25.9
-840,170,-198,73.64,-29.68,33.32
-845,154,-181,75.11,-27.72,38.92
-843,130,-178,72.8,-27.16,42.21
-837,91,-171,70.98,-25.41,41.86
-831,65,-163,69.58,-23.03,36.89
-822,56,-167,69.02,-20.86,28.63
-804,39,-194,67.83,-18.06,18.48
-777,3,-222,65.73,-13.58,8.68
-733,-49,-226,58.24,-7.42,-0.07
-676,-96,-384,29.4,5.53,-9.03
-575,-49,-484,18.27,21.56,-20.72
-486,-19,-233,87.64,34.86,-36.47
-740,-106,-101,160.37,28.84,-49.49
-1025,56,-377,181.02,31.78,-60.27
-1113,314,-373,208.25,44.03,-65.45
-1452,558,-355,198.03,47.39,-57.05
-1608,726,-377,167.51,50.05,-46.2
-1635,742,-204,97.65,43.05,-10.78
-1621,740,-204,8.05,23.52,26.11
-1534,570,-193,-43.54,7.7,37.73
-1345,375,-189,-88.97,-5.67,34.65
-1159,174,-184,-124.04,-18.41,26.53
-1013,12,-223,-143.08,-26.39,17.78
-893,-96,-260,-145.74,-25.76,11.13
-789,-167,-308,-133.35,-19.11,4.34
-701,-212,-358,-106.26,-11.83,-2.45
-634,-224,-395,-71.82,-6.51,-7.91
-633,-193,-399,-37.52,-1.05,-13.86
-681,-116,-398,-7.56,4.9,-22.05
-763,6,-384,10.5,8.61,-25.76
-861,99,-342,22.19,10.29,-22.96
-962,147,-283,31.29,10.29,-18.27
-1061,184,-243,33.53,8.96,-12.6
-1133,205,-213,27.65,7.14,-5.39
-1159,210,-193,13.65,4.13,3.15
-1143,188,-191,-4.55,-0.21,10.64
-1090,151,-208,-23.1,-4.62,14.14
-1036,92,-225,-37.66,-8.33,13.86
-993,43,-235,-47.53,-9.03,11.2
-964,15,-241,-52.08,-8.05,7.63
-941,11,-262,-53.62,-7.21,4.27
-932,5,-259,-52.36,-5.67,1.47
-926,-8,-271,-46.2,-3.5,-1.75
-948,1,-276,-35.63,-0.42,-4.83
-1010,35,-260,-24.43,1.68,-7.14
-1083,106,-263,-15.89,2.8,-8.12
-1183,181,-271,-12.88,1.12,-5.95
-1275,249,-276,-18.48,-2.8,0.14
-1353,273,-232,-29.75,-8.33,9.73
-1368,266,-205,-48.16,-15.68,19.67
-1322,224,-175,-66.99,-24.15,27.79
-1237,196,-189,-80.01,-31.43,30.73
-1157,167,-204,-86.8,-38.99,27.16
-1083,128,-180,-87.5,-45.22,21.0
-1026,75,-167,-80.78,-44.31,13.37
-991,32,-184,-74.13,-40.39,4.83
-944,14,-223,-71.89,-36.82,-2.8
-893,23,-271,-65.45,-32.76,-8.4
-838,22,-280,-53.27,-26.81,-11.69
-791,14,-302,-40.32,-16.73,-14.07
-739,-1,-313,-29.26,-8.12,-17.36
-692,-5,-358,-22.82,-3.22,-21.77
-648,-7,-366,-15.26,-0.98,-27.72
-641,-21,-341,-6.72,-1.26,-33.6
-676,-40,-298,2.87,-1.4,-35.84
-734,-46,-216,15.75,-0.56,-35.77
-776,-39,-184,26.53,1.82,-33.67
-828,-23,-143,33.81,2.66,-26.39
-881,16,-130,34.86,2.8,-16.1
-914,58,-149,32.76,2.66,-6.72
-934,83,-177,30.87,2.94,2.17
-950,84,-191,30.45,3.22,11.2
-967,81,-173,28.35,2.8,19.95
-987,94,-195,23.38,2.59,26.81
-1000,117,-208,20.65,3.15,29.89
-1023,143,-213,19.18,3.92,30.8
-1029,166,-209,17.5,4.69,30.87
-1032,190,-219,14.77,5.53,30.1
-1029,208,-225,13.16,6.3,28.49
-1017,224,-234,12.81,7.49,26.39
-1001,231,-241,13.02,9.03,24.08
-975,238,-255,13.93,10.64,21.49
-953,236,-261,16.1,12.18,17.43
-934,252,-266,18.97,13.79,15.12
-929,245,-260,21.42,15.4,12.46
-918,254,-252,22.4,17.15,10.71
-905,273,-247,22.05,18.76,9.73
-888,282,-238,20.72,19.74,10.57
-867,289,-244,17.78,21.49,13.79
-863,277,-242,15.4,22.75,17.5
-851,266,-237,13.23,24.57,19.39
-860,281,-230,10.71,26.81,18.2
-831,281,-231,7.07,28.84,14.91
-863,286,-242,3.71,30.1,18.83
-891,234,-236,0.98,31.01,20.02
-896,125,-247,0.28,31.36,17.01
-915,105,-238,2.8,30.52,20.37
-955,80,-218,5.81,30.59,19.95
-977,89,-214,7.91,29.75,17.08
-980,98,-198,10.92,28.56,11.2
-999,108,-176,12.95,27.02,5.6
-995,120,-150,12.11,24.43,1.54
-998,130,-154,8.47,21.63,-1.68
-991,98,-153,6.65,19.25,-6.58
-961,58,-145,6.09,17.01,-11.34
-940,31,-154,5.39,14.49,-14.84
-917,17,-185,6.09,11.62,-19.25
-902,5,-203,10.15,9.66,-24.22
-883,-14,-199,14.77,7.98,-29.12
-878,-38,-197,17.5,6.58,-32.34
-861,-58,-236,14.49,8.05,-34.79
-843,-56,-246,15.19,7.84,-37.31
-827,-60,-236,20.86,6.72,-41.37
-847,-63,-221,24.01,5.18,-42.91
-883,-54,-298,17.01,5.04,-42.84
-858,-9,-430,6.02,7.7,-41.93
-862,64,-501,3.01,13.16,-40.18
-855,107,-483,11.06,18.9,-40.46
-923,113,-439,17.57,23.94,-36.89
-947,123,-411,17.78,26.67,-30.94
-960,113,-348,21.07,25.76,-25.76
-1001,89,-302,25.27,23.24,-20.79
-1035,64,-283,27.86,19.81,-16.87
-1056,51,-267,29.89,16.24,-12.6
-1053,37,-277,31.5,14.14,-9.03
-1016,24,-314,30.8,12.95,-5.81
-997,22,-346,29.96,11.69,-1.96
-1020,43,-351,28.0,9.87,-3.08
-1007,53,-345,24.22,8.68,-12.67
-1014,71,-352,21.21,8.26,-22.26
-999,48,-344,19.88,7.28,-27.51
-1003,27,-333,18.83,8.12,-27.16
-1001,33,-351,14.63,8.75,-27.65
-1006,54,-374,11.69,9.73,-29.33
-1002,80,-377,12.39,11.48,-31.78
-998,110,-363,12.53,12.25,-31.22
-1017,114,-345,7.21,11.34,-25.97
-1000,87,-335,-1.05,10.29,-19.95
-991,38,-342,-6.72,8.96,-15.26
-973,10,-353,-13.02,7.0,-11.69
-946,1,-378,-20.72,4.62,-10.36
-937,-30,-387,-23.59,2.45,-10.92
-911,-61,-382,-21.0,1.96,-12.04
-899,-81,-383,-19.11,4.13,-11.27
-891,-92,-373,-14.28,6.51,-9.52
-888,-85,-372,-4.2,9.1,-9.52
-888,-99,-397,7.14,10.92,-12.25
-902,-134,-418,21.42,14.21,-16.24
-933,-144,-428,31.92,19.46,-20.44
-933,-104,-434,40.74,23.87,-27.86
-939,-59,-429,49.56,27.16,-33.95
-943,-39,-429,51.73,29.89,-33.67
-919,-18,-433,49.63,31.08,-30.17
-971,-24,-442,45.22,30.73,-25.69
-965,-7,-443,40.46,27.93,-20.72
-962,12,-419,35.07,26.67,-16.45
-978,-2,-373,36.47,28.28,-11.83
-996,6,-313,37.03,24.15,-6.65
-1002,26,-346,25.06,19.18,1.05
-1002,-5,-369,14.49,14.98,10.22
-985,-42,-418,3.5,10.5,14.98
-948,-65,-420,-3.29,8.82,14.84
-926,-80,-417,-2.31,8.4,12.67
-917,-89,-438,2.94,9.38,10.43
-907,-93,-468,6.23,10.71,7.7
-885,-96,-464,9.66,10.57,3.5
-872,-101,-465,13.79,12.11,0.0
-847,-94,-468,20.37,14.14,-3.08
-839,-94,-487,29.19,17.29,-4.27
-857,-111,-509,35.63,17.57,-4.41
-868,-126,-511,39.97,17.99,-6.37
-890,-127,-496,39.9,18.06,-7.49
-901,-112,-501,39.13,17.43,-8.26
-892,-88,-479,45.22,17.64,-10.01
-955,-88,-464,47.25,15.4,-9.52
-927,-89,-440,43.12,11.83,-6.65
-916,-117,-467,38.22,10.36,-4.13
-891,-127,-467,32.2,8.82,-3.08
-871,-106,-452,27.72,8.89,-4.13
-854,-109,-476,19.95,7.63,-3.43
-845,-139,-486,16.03,6.37,-3.01
-837,-163,-494,15.96,7.07,-4.9
-847,-181,-503,17.99,8.96,-7.84
-860,-185,-463,21.28,11.2,-12.04
-863,-188,-466,20.65,13.65,-14.98
-866,-169,-476,23.66,16.66,-16.94
-872,-151,-450,29.75,19.53,-18.27
-868,-145,-453,31.08,20.86,-17.43
-859,-153,-450,33.04,21.91,-16.1
-865,-154,-434,35.91,23.03,-15.33
-890,-148,-422,33.95,22.61,-13.86
-893,-147,-408,27.37,19.95,-12.39
-896,-158,-414,19.46,17.01,-10.85
-905,-167,-428,11.41,14.21,-8.75
-904,-173,-423,7.07,12.53,-7.07
-907,-168,-434,4.06,11.27,-5.39
-906,-161,-419,3.92,10.78,-3.64
-902,-158,-405,2.17,9.8,-1.12
-909,-149,-412,-2.66,7.56,1.96
-906,-140,-447,-7.98,4.55,5.46
-909,-130,-498,-11.27,0.07,8.47
-926,-111,-579,-11.2,-1.54,10.36
-922,-112,-562,-2.03,0.07,9.38
-899,-122,-480,5.32,0.35,7.84
-888,-115,-480,-2.03,-3.78,9.31
-867,-128,-508,-9.87,-6.37,9.94
-847,-142,-528,-13.65,-6.44,8.05
-840,-133,-523,-12.53,-5.53,5.6
-845,-127,-494,-10.43,-4.41,4.48
-852,-121,-498,-11.69,-4.83,5.88
-861,-116,-493,-11.48,-5.46,7.42
-863,-128,-472,-10.57,-6.23,8.4
-877,-124,-498,-12.18,-7.91,9.73
-871,-120,-507,-11.76,-7.98,9.59
-859,-120,-499,-10.5,-7.63,8.89
-850,-129,-474,-9.52,-7.28,8.54
-857,-140,-477,-11.62,-6.93,8.54
-861,-139,-497,-12.88,-5.81,7.98
-863,-142,-485,-11.34,-3.85,6.65
-879,-139,-464,-11.13,-2.38,6.02
-889,-129,-455,-13.51,-1.61,6.16
-893,-117,-464,-17.78,-1.82,7.56
-889,-119,-482,-21.56,-1.96,9.1
-875,-127,-498,-22.96,-1.26,9.38
-864,-131,-504,-22.12,-0.35,8.68
-869,-128,-506,-20.51,0.28,7.49
-877,-124,-499,-17.85,-0.07,6.23
-880,-121,-500,-16.38,-0.42,4.55
-878,-120,-498,-14.56,-1.05,2.94
-884,-123,-500,-12.6,-2.31,1.4
-885,-131,-503,-10.15,-2.87,-0.49
-883,-137,-495,-6.79,-2.38,-2.8
-890,-137,-481,-4.48,-2.45,-4.41
-903,-135,-476,-4.06,-3.22,-5.32
-906,-133,-481,-4.55,-4.27,-5.25
-910,-129,-484,-4.41,-5.74,-4.48
-916,-125,-482,-4.41,-7.91,-3.43
-919,-122,-490,-4.55,-9.94,-2.17
-929,-128,-487,-3.43,-11.41,-1.05
-941,-127,-473,-4.13,-13.65,0.0
-946,-116,-485,-9.03,-16.94,1.61
-953,-104,-515,-14.07,-20.79,3.85
-955,-88,-527,-15.75,-22.82,5.25
-955,-75,-530,-16.94,-24.22,6.23
-957,-57,-506,-16.8,-26.6,7.21
-968,-40,-458,-18.13,-30.87,9.87
-1001,-29,-437,-23.8,-34.23,14.0
-1003,-20,-405,-31.22,-38.01,17.57
-990,-15,-371,-35.21,-41.09,20.79
-992,-21,-351,-40.53,-44.31,24.85
-985,-24,-364,-43.47,-45.71,27.79
-973,-68,-249,-34.44,-47.04,27.72
-997,-115,-153,-36.19,-52.08,30.24
-1035,-145,-164,-43.54,-57.4,32.27
-1039,-149,-140,-42.56,-61.25,30.03
-1054,-157,-82,-36.47,-66.36,27.44
-1094,-134,-89,-33.88,-72.87,27.72
-1117,-115,-106,-27.16,-78.61,28.28
-1123,-83,-64,-19.95,-84.14,28.0
-1114,-56,-45,-17.29,-89.95,28.77
-1110,-35,-32,-14.14,-95.13,31.15
-1139,-14,-27,-12.11,-100.03,34.23
-1123,0,4,-12.04,-104.72,37.38
-1123,10,8,-17.92,-110.95,41.65
-1127,22,5,-25.2,-116.48,45.15
-1109,43,-11,-32.62,-121.52,48.09
-1111,60,-47,-37.8,-125.79,48.44
-1101,69,-65,-35.63,-129.5,45.99
-1031,52,-57,-28.91,-132.79,43.05
-1036,88,-44,-20.44,-135.38,38.22
-1019,122,-33,-13.58,-138.53,32.13
-1028,96,-29,-7.84,-143.08,28.91
-1034,42,-55,-2.59,-144.83,25.83
-1004,-4,-78,5.88,-144.13,21.7
-980,-28,-95,15.82,-141.12,15.54
-948,-13,-114,24.01,-138.11,7.56
-918,5,-86,30.38,-137.41,-0.77
-916,-2,-32,33.39,-138.53,-8.82
-942,1,-24,33.6,-140.42,-13.72
-952,14,-56,34.09,-137.34,-15.82
-916,57,-104,36.75,-131.04,-18.06
-868,71,-130,38.22,-124.81,-21.77
-811,66,-113,45.92,-122.01,-21.77
-771,68,-66,52.64,-118.86,-24.29
-789,56,-19,58.03,-115.01,-27.02
-813,62,13,63.84,-111.02,-24.99
-878,69,25,67.27,-105.28,-20.58
-912,88,35,65.24,-99.19,-19.11
-949,97,55,57.26,-94.36,-18.62
-968,114,87,45.57,-91.63,-15.82
-953,126,178,32.69,-88.62,-11.83
-922,133,204,17.57,-84.07,-6.37
-918,133,125,2.17,-78.96,-1.05
-898,155,85,-8.26,-71.61,0.63
-886,149,88,-14.0,-63.14,-0.63
-896,142,86,-20.16,-57.05,-2.03
-895,122,101,-26.18,-52.57,-4.2
-923,101,147,-31.99,-50.4,-7.63
-938,88,173,-42.63,-49.28,-9.87
-911,85,190,-52.43,-45.78,-11.69
-902,75,173,-62.02,-42.91,-14.63
-895,65,164,-70.14,-41.37,-17.43
-898,53,197,-73.78,-40.04,-20.65
-881,30,267,-74.69,-40.04,-24.22
-898,15,305,-75.67,-39.27,-25.34
-907,12,297,-76.16,-36.89,-25.34
-909,14,245,-75.25,-33.39,-23.52
-899,14,223,-67.83,-28.77,-21.7
-895,25,240,-57.12,-24.15,-20.3
-905,9,262,-45.36,-20.44,-20.23
-907,-21,286,-33.67,-17.22,-21.28
-905,-42,309,-23.45,-14.77,-22.26
-902,-41,323,-15.61,-12.74,-22.12
-920,-37,330,-9.17,-11.48,-21.14
-915,-41,374,0.42,-10.08,-21.56
-909,-39,499,16.87,-9.52,-21.14
-978,-24,795,43.19,-12.11,-16.52
-1124,-51,953,42.14,-24.92,-10.08
-1192,-6,628,-0.28,-34.02,7.0
-1132,56,309,-24.08,-25.27,23.87
-1004,104,195,-16.73,-12.74,28.63
-919,56,280,-2.38,-4.2,25.13
-905,-40,422,4.13,0.0,17.71
-945,-67,448,0.91,0.91,11.55
-959,-41,440,-2.8,2.03,7.98
-953,-33,464,-4.69,2.31,5.39
-941,-51,496,-8.82,1.47,3.01
-932,-67,492,-15.82,-0.49,1.82
-910,-70,447,-18.9,-2.59,0.91
-881,-86,415,-13.16,-4.69,-0.56
-877,-70,428,-3.92,-6.51,-2.24
-893,-38,449,1.89,-7.84,-3.15
-898,-19,459,2.17,-8.75,-4.97
-907,-2,462,-0.42,-9.66,-6.09
-894,-22,454,-4.48,-9.45,-7.91
-883,-34,448,-6.65,-9.94,-6.72
-872,-36,455,-7.14,-9.66,-5.81
-875,-32,461,-7.77,-9.87,-4.2
-880,-26,449,-7.49,-9.66,-3.01
-881,-3,456,-4.83,-9.52,-3.01
-891,4,482,-3.36,-9.1,-3.08
-888,0,480,-5.6,-7.98,-3.36
-894,-16,479,-8.05,-7.21,-3.78
-904,-8,480,-9.45,-6.3,-3.99
-913,3,481,-10.64,-5.95,-3.01
-914,7,475,-13.02,-5.11,-0.14
-919,7,463,-14.84,-4.55,2.38
-918,-1,461,-15.61,-4.06,3.29
-910,-4,461,-16.52,-3.36,2.94
-895,-3,466,-18.27,-2.52,2.1
-906,0,462,-19.88,-2.24,2.24
-907,-6,471,-20.44,-1.96,2.03
-907,-21,475,-21.35,-2.17,2.1
-899,-23,482,-22.61,-2.45,2.59
-889,-27,473,-24.43,-3.43,2.52
-870,-36,472,-24.64,-4.27,2.52
-874,-45,480,-23.73,-5.32,2.59
-885,-52,477,-23.24,-6.65,1.82
-879,-65,481,-21.14,-7.91,0.56
-889,-58,495,-19.46,-9.31,0.7
-892,-40,497,-19.25,-10.99,0.7
-895,-32,513,-20.44,-12.11,0.84
-904,-35,517,-23.8,-12.81,0.77
-902,-36,507,-27.09,-12.67,0.77
-921,-30,499,-29.33,-12.74,1.54
-912,-34,485,-30.94,-11.2,1.19
-896,-48,470,-31.36,-10.08,2.59
-895,-67,465,-31.43,-7.42,3.08
-885,-93,473,-30.31,-5.18,1.68
-882,-104,523,-27.44,-3.22,-1.05
-905,-111,584,-27.16,-2.24,-6.37
-920,-122,632,-27.58,-1.96,-6.3
-935,-127,652,-30.94,-1.12,-2.73
-958,-137,635,-39.97,-1.19,-1.54
-974,-141,596,-62.09,-1.54,-1.33
-967,-191,536,-93.59,-3.57,-7.63
-927,-171,491,-114.94,-4.48,-3.01
-929,-147,442,-127.61,-3.57,7.77
-902,-143,408,-133.14,-0.63,16.1
-878,-157,316,-135.45,3.85,20.72
-850,-191,259,-132.02,8.26,21.14
-827,-235,254,-125.09,12.6,14.14
-820,-249,265,-115.64,16.24,1.05
-832,-261,291,-102.83,18.48,-12.67
-841,-297,336,-89.74,18.76,-24.01
-854,-326,374,-79.66,18.06,-30.52
-865,-330,378,-73.5,17.08,-32.62
-861,-305,335,-69.86,16.59,-31.29
-826,-266,281,-65.24,17.57,-29.19
-781,-265,279,-56.42,19.18,-29.05
-778,-288,283,-44.94,20.44,-31.36
-796,-305,336,-28.84,20.93,-35.84
-819,-335,401,-13.93,20.09,-39.27
-849,-351,450,-2.73,17.92,-38.01
-895,-345,471,5.18,14.77,-32.55
-908,-314,464,10.15,12.39,-28.28
-910,-287,462,14.63,10.64,-23.8
-907,-262,455,15.33,9.45,-18.62
-899,-233,423,12.11,8.75,-13.79
-893,-217,392,8.54,8.96,-10.01
-877,-215,359,5.25,9.73,-7.21
-863,-211,346,3.99,11.27,-6.51
-853,-218,360,3.99,12.25,-7.7
-861,-229,370,4.69,12.6,-8.96
-869,-242,401,7.14,12.18,-9.31
-875,-250,416,9.1,10.78,-9.31
-869,-273,435,11.69,8.96,-9.31
-897,-282,446,13.58,6.72,-9.38
-899,-273,448,13.37,5.32,-10.5
-895,-258,435,11.2,4.27,-10.43
-885,-243,414,7.84,3.85,-10.92
-882,-223,401,3.36,3.85,-12.11
-883,-205,382,-2.73,4.27,-12.95
-871,-198,378,-9.38,4.69,-13.23
-860,-199,378,-16.45,5.04,-13.44
-851,-211,376,-22.54,4.97,-13.79
-854,-232,380,-26.95,4.76,-14.77
-861,-257,386,-29.89,4.48,-15.4
-862,-274,383,-31.36,4.27,-14.91
-866,-280,370,-31.22,4.2,-14.7
-870,-273,360,-29.54,4.62,-14.63
-868,-261,358,-27.16,5.18,-13.72
-866,-259,344,-25.2,5.53,-13.02
-861,-262,332,-22.82,6.23,-13.16
-859,-260,322,-21.0,7.14,-13.65
-856,-255,317,-20.3,8.33,-13.37
-854,-267,333,-19.88,9.45,-13.23
-858,-292,356,-20.16,10.15,-13.09
-866,-317,389,-20.02,10.43,-12.39
-876,-351,413,-19.74,10.01,-10.78
-888,-379,428,-19.32,9.03,-8.4
-897,-385,416,-18.97,8.33,-5.25
-898,-378,376,-18.27,8.82,-1.33
-898,-360,328,-16.8,10.01,2.52
-887,-333,299,-13.72,11.97,4.97
-881,-310,272,-10.08,14.42,6.16
-878,-292,256,-6.16,16.17,7.63
-884,-270,224,-2.03,18.27,8.89
-895,-246,234,6.37,19.53,9.31
-925,-230,278,18.83,20.58,9.87
-965,-216,315,32.41,18.97,12.88
-997,-194,321,41.16,17.78,19.67
-1022,-179,289,40.6,18.41,29.54
-1012,-223,286,32.97,20.93,37.17
-1012,-266,255,20.93,24.29,40.39
-1011,-301,223,12.04,27.86,38.01
-998,-335,245,9.52,31.43,31.36
-971,-402,308,4.34,34.23,23.59
-955,-461,319,-8.75,35.07,14.77
-970,-496,293,-18.34,34.16,5.74
-979,-497,154,-18.69,32.76,0.91
-966,-535,140,-3.08,30.1,-3.29
-972,-582,201,3.22,30.24,-10.29
-1030,-569,164,-7.98,33.32,-17.43
-1021,-580,171,-16.17,36.26,-25.13
-979,-551,155,-23.8,37.8,-29.75
-887,-503,144,-29.82,39.13,-28.21
-835,-363,11,-32.34,40.74,-22.89
-746,-296,20,-10.99,42.63,-20.16
-747,-323,51,8.33,43.12,-9.94
-810,-364,75,21.7,43.12,2.45
-867,-406,42,29.05,44.24,14.56
-892,-438,-3,34.3,46.97,24.29
-885,-470,-33,42.98,51.17,26.88
-878,-434,-16,53.41,55.44,23.31
-902,-352,-1,58.24,59.85,17.99
-912,-294,51,57.61,64.61,10.71
-889,-266,54,49.42,68.88,5.39
-897,-213,-45,37.66,75.11,7.63
-852,-291,341,54.81,74.13,7.77
-949,-413,393,67.83,63.63,-0.77
-1054,-353,263,54.11,58.94,4.2
-991,-384,312,48.02,56.7,9.94
-947,-561,374,36.68,51.87,-0.14
-975,-733,353,21.35,46.06,-22.61
-1039,-803,304,12.95,41.65,-45.78
-1051,-765,339,19.95,37.03,-67.69
-1044,-717,435,28.56,29.19,-86.17
-1094,-578,370,13.79,19.53,-93.59
-1098,-398,293,-1.33,12.04,-88.97
-1035,-309,298,-14.63,6.65,-78.75
-983,-299,209,-35.63,1.61,-68.95
-916,-294,91,-47.46,0.14,-62.16
-837,-291,39,-47.6,3.71,-58.8
-804,-256,5,-47.11,10.22,-56.7
-744,-234,-60,-45.29,18.27,-62.23
-762,-205,-36,-33.67,24.36,-66.22
-779,-215,-13,-22.05,28.91,-57.68
-795,-264,-2,-9.8,27.23,-44.24
-757,-276,-2,9.94,24.85,-27.51
-764,-288,53,35.0,20.51,-11.48
-823,-299,119,50.89,16.94,-1.19
-871,-285,106,55.3,13.79,7.91
-865,-254,70,55.51,12.74,15.68
-851,-224,33,54.32,12.6,20.23
-849,-245,53,54.39,11.83,21.49
-872,-321,66,54.32,9.66,20.51
-893,-391,73,57.33,9.73,15.96
-914,-381,112,63.56,10.15,6.37
-953,-323,153,66.99,8.54,-4.13
-999,-267,192,63.42,4.83,-9.73
-1026,-237,183,52.43,1.26,-8.89
-1032,-213,158,39.62,-0.35,-4.9
-1000,-206,144,28.0,0.14,0.21
-971,-217,121,16.94,0.91,5.88
-952,-223,103,7.35,1.47,9.03
-949,-228,85,-0.49,2.45,10.15
-952,-234,66,-5.46,4.27,10.99
-950,-253,53,-7.42,6.93,11.9
-957,-273,24,-8.89,9.73,12.25
-943,-274,19,-8.61,12.04,11.06
-927,-288,-10,-10.5,13.44,9.24
-919,-313,-39,-11.41,16.24,7.0
-900,-362,-34,-11.27,18.41,3.85
-898,-407,-9,-10.15,18.34,-0.84
-925,-435,39,-5.46,17.78,-5.32
-977,-437,85,1.05,15.82,-7.98
-1036,-397,110,8.96,13.72,-6.65
-1075,-312,120,13.51,12.88,-1.4
-1109,-230,55,11.69,16.24,7.98
-1102,-190,-66,5.39,23.1,18.34
-1046,-229,-105,-1.33,28.35,22.68
-1004,-317,-149,-11.76,32.13,17.99
-980,-347,-243,-23.38,38.08,10.99
-947,-317,-263,-29.68,46.62,4.13
-913,-320,-217,-38.92,52.29,0.0
-913,-390,-256,-50.33,57.33,0.63
-905,-496,-311,-54.53,62.3,1.33
-877,-562,-321,-48.72,67.06,-2.17
-858,-587,-328,-32.41,73.15,-9.73
-823,-567,-279,-14.7,78.4,-17.08
-795,-566,-244,-3.85,85.33,-18.2
-758,-547,-306,-13.79,91.98,-14.07
-705,-521,-392,-35.56,97.09,-8.96
-630,-499,-319,-47.95,95.27,-5.95
-730,-605,-82,-26.18,91.42,-9.24
-843,-653,48,1.26,90.37,-6.44
-897,-646,38,7.35,88.13,2.87
-924,-605,44,10.78,83.86,15.96
-925,-604,89,17.71,76.86,21.98
-971,-625,193,25.62,68.11,21.14
-1062,-651,306,28.0,54.67,19.18
-1153,-646,299,20.51,37.66,20.65
-1198,-640,280,15.05,23.31,23.17
-1201,-644,266,13.02,10.71,22.19
-1157,-632,242,8.4,-1.33,16.8
-1092,-601,107,-3.99,-13.09,10.22
-997,-546,-101,-20.58,-21.84,5.39
-869,-518,-228,-29.68,-22.82,2.52
-757,-526,-259,-31.64,-17.29,-2.59
-700,-553,-259,-29.68,-10.71,-12.18
-710,-570,-266,-23.59,-5.81,-23.59
-754,-529,-287,-15.4,-1.68,-31.71
-799,-459,-272,-4.13,3.36,-33.95
-816,-386,-264,4.41,7.14,-33.39
-839,-346,-268,12.32,7.91,-31.78
-860,-327,-258,21.0,7.84,-30.73
-860,-335,-260,26.95,8.12,-28.98
-864,-345,-262,33.18,7.98,-28.91
-854,-332,-283,40.53,8.19,-29.68
-848,-314,-295,51.38,8.05,-29.54
-846,-303,-310,65.38,8.61,-29.33
-852,-311,-240,80.71,9.24,-27.51
-840,-321,-208,87.92,8.82,-22.54
-833,-331,-164,88.48,7.56,-18.83
-820,-341,-154,81.55,6.86,-16.73
-837,-337,-152,73.01,5.25,-14.63
-857,-353,-147,63.7,4.62,-10.99
-891,-393,-141,54.32,4.41,-6.23
-942,-426,-125,45.57,5.18,-2.66
-992,-437,-91,36.05,5.6,-0.98
-1034,-424,-58,24.99,4.76,0.21
-1064,-392,-36,11.41,2.73,3.71
-1066,-355,-25,-3.78,0.49,9.17
-1053,-328,-18,-22.4,-2.31,15.54
-1018,-332,-79,-43.82,-4.13,20.65
-965,-384,-117,-57.47,-4.83,21.91
-907,-455,-151,-66.29,-5.11,20.16
-867,-527,-209,-69.86,-4.69,16.38
-842,-573,-238,-65.31,-3.43,10.36
-829,-594,-261,-56.35,-1.96,2.66
-822,-593,-251,-44.03,0.0,-5.39
-824,-574,-234,-33.25,0.77,-11.9
-842,-549,-216,-24.43,0.77,-15.47
-869,-514,-194,-18.55,0.28,-16.03
-885,-486,-179,-16.24,-0.7,-13.72
-895,-479,-174,-16.87,-1.61,-10.08
-902,-476,-176,-19.18,-2.73,-6.93
-907,-474,-182,-21.77,-3.92,-5.04
-895,-484,-201,-24.29,-4.9,-4.13
-889,-494,-213,-24.43,-5.39,-3.78
-898,-494,-217,-23.66,-5.74,-4.83
-909,-488,-214,-23.1,-5.81,-5.81
-918,-488,-192,-22.4,-5.81,-6.09
-936,-484,-180,-23.66,-6.37,-5.32
-948,-473,-174,-26.67,-6.93,-4.06
-954,-459,-159,-33.39,-7.56,-1.4
-952,-448,-171,-45.57,-7.7,2.38
-934,-430,-192,-56.21,-7.63,5.18
-918,-434,-208,-63.49,-8.05,6.79
-917,-445,-227,-68.25,-8.54,8.61
-921,-463,-242,-69.72,-9.24,9.87
-922,-467,-253,-69.51,-10.15,11.41
-945,-460,-252,-69.58,-11.2,11.48
-977,-431,-287,-66.64,-12.46,4.55
-935,-459,-236,-63.0,-12.95,-0.84
-936,-453,-254,-65.24,-13.93,3.01
-919,-430,-264,-64.68,-14.7,7.0
-902,-427,-265,-62.93,-14.84,9.8
-880,-423,-264,-64.19,-14.91,9.59
-870,-424,-279,-66.78,-14.91,6.65
-862,-435,-288,-67.48,-14.7,4.2
-843,-436,-320,-64.47,-14.56,1.82
-800,-467,-308,-56.84,-13.86,-0.28
-783,-505,-306,-51.1,-13.79,-3.57
-779,-515,-319,-45.43,-13.79,-10.36
-781,-500,-319,-36.4,-13.58,-17.36
-766,-491,-320,-26.18,-13.16,-21.14
-740,-489,-317,-13.93,-12.39,-23.03
-753,-490,-316,-0.42,-12.04,-26.81
-765,-462,-304,11.83,-10.71,-31.64
-765,-420,-291,22.12,-9.03,-35.35
-767,-376,-290,29.19,-7.14,-36.54
-751,-346,-280,35.42,-5.11,-35.14
-742,-326,-278,41.58,-3.22,-32.06
-742,-316,-280,48.51,-0.91,-29.4
-743,-309,-285,56.28,2.17,-26.95
-740,-293,-282,62.79,5.67,-24.43
-723,-294,-284,68.81,9.31,-22.68
-708,-304,-269,75.04,12.74,-22.12
-707,-320,-248,80.15,15.33,-22.54
-711,-351,-235,84.07,16.87,-22.47
-706,-366,-202,86.94,17.01,-19.6
-704,-368,-162,84.91,16.73,-10.29
-818,-387,-162,77.0,15.47,4.76
-881,-420,-144,69.86,13.58,12.74
-905,-452,-148,61.53,13.37,17.78
-904,-490,-139,56.91,13.93,21.07
-916,-492,-116,52.15,13.58,23.94
-942,-473,-103,42.14,11.62,25.97
-966,-443,-101,29.26,8.82,27.79
-968,-438,-85,17.08,6.23,29.89
-989,-455,-67,4.83,2.8,31.57
-1008,-449,-103,-11.55,-0.91,31.92
-1012,-447,-139,-23.73,-3.36,31.85
-1009,-456,-173,-32.34,-4.69,31.29
-984,-463,-219,-41.65,-5.04,29.33
-944,-485,-254,-47.04,-4.34,26.32
-909,-516,-266,-47.18,-2.52,21.28
-876,-540,-258,-43.12,-0.77,13.3
-861,-532,-254,-35.49,0.49,5.11
-861,-506,-223,-24.5,1.19,-0.14
-874,-498,-225,-16.59,0.63,0.35
-870,-496,-227,-9.87,0.35,2.94
-851,-490,-228,-4.55,0.35,4.55
-846,-479,-236,-0.98,0.42,4.06
-856,-466,-228,1.68,0.63,3.01
-875,-461,-212,2.94,0.91,1.75
-903,-460,-201,3.01,0.35,0.7
-925,-458,-185,3.08,-0.84,1.05
-935,-453,-182,0.77,-1.96,2.8
-928,-447,-187,-1.68,-2.59,3.43
-916,-435,-193,-3.71,-2.94,2.94
-905,-426,-200,-5.32,-3.29,2.24
-904,-434,-207,-6.02,-3.57,1.47
-904,-442,-209,-5.95,-3.64,0.63
-896,-445,-217,-4.97,-3.85,-0.14
-889,-450,-221,-3.15,-3.92,-0.84
-876,-461,-226,-0.98,-3.78,-1.68
-858,-460,-232,3.15,-3.29,-3.22
-856,-456,-227,7.63,-2.8,-4.27
-853,-448,-222,10.29,-2.17,-5.25
-853,-444,-222,10.99,-1.54,-5.46
-854,-451,-214,11.55,-1.12,-6.09
-869,-455,-204,12.46,-1.05,-6.86
-885,-457,-193,12.6,-1.26,-7.56
-899,-453,-194,10.99,-1.54,-7.49
-907,-448,-197,8.75,-1.75,-6.72
-901,-449,-200,6.37,-1.96,-5.39
-902,-445,-200,4.06,-2.38,-3.57
-899,-436,-203,1.05,-2.87,-1.19
-892,-444,-207,-2.59,-3.64,0.63
-893,-455,-213,-6.09,-4.48,1.54
-904,-454,-224,-8.05,-5.18,1.68
-898,-445,-224,-8.4,-5.74,0.77
-907,-447,-207,-9.31,-6.58,0.21
-917,-442,-204,-11.27,-7.63,0.21
-922,-437,-202,-13.02,-8.61,0.91
-927,-437,-211,-14.42,-9.38,1.68
-922,-444,-213,-14.77,-9.59,1.54
-912,-444,-221,-14.91,-9.45,1.26
-908,-444,-217,-14.28,-9.1,0.0
-894,-450,-210,-13.93,-8.82,-2.24
-892,-452,-208,-12.74,-8.89,-4.13
-887,-456,-205,-10.5,-8.82,-6.02
-888,-457,-199,-7.77,-8.82,-7.42
-886,-461,-197,-5.81,-8.89,-7.77
-892,-466,-193,-4.69,-9.17,-7.07
-897,-467,-202,-4.76,-9.52,-5.67
-908,-454,-220,-5.25,-9.87,-3.92
-915,-441,-223,-5.18,-9.94,-1.61
-927,-419,-218,-3.5,-9.66,0.14
-934,-393,-204,0.56,-9.03,1.33
-946,-372,-188,3.22,-8.96,3.71
-958,-356,-189,2.17,-9.66,8.26
-956,-342,-206,-0.42,-10.22,13.09
-952,-324,-226,-2.66,-10.64,17.01
-947,-305,-228,-4.48,-10.78,21.56
-945,-274,-257,-6.58,-11.13,27.3
-941,-236,-264,-5.46,-10.99,33.04
-947,-206,-241,-3.57,-10.43,38.71
-977,-192,-246,-3.85,-9.73,45.36
-999,-192,-238,-1.33,-8.89,51.59
-1003,-210,-195,3.08,-7.98,55.86
-1021,-232,-169,4.13,-7.91,58.73
-1047,-248,-169,3.22,-7.7,60.62
-1050,-262,-144,5.46,-6.65,59.5
-1017,-253,-133,5.46,-5.67,55.72
-992,-249,-129,5.88,-5.18,51.03
-975,-234,-105,6.3,-5.74,44.73
-955,-231,-78,3.01,-7.63,39.41
-939,-243,-79,-4.13,-10.71,35.98
-930,-282,-79,-10.43,-13.23,33.11
-923,-347,-94,-14.98,-15.26,30.17
-911,-394,-108,-16.45,-16.52,27.3
-888,-423,-106,-13.23,-17.36,24.57
-872,-434,-130,-9.24,-18.06,22.82
-859,-412,-156,-2.59,-17.99,21.07
-844,-388,-144,4.48,-17.57,19.11
-844,-369,-158,6.02,-17.57,17.85
-870,-359,-152,6.51,-17.08,16.03
-917,-319,-208,1.47,-17.71,16.73
-964,-260,-231,0.21,-18.06,18.55
-1019,-205,-198,-2.03,-19.6,21.49
-1126,-146,-191,-9.73,-23.52,26.67
-1289,-77,-140,-15.05,-27.72,34.02
-1261,-2,-120,-27.02,-34.02,46.34
-1213,64,-130,-42.0,-41.3,59.99
-1083,134,-120,-53.62,-49.63,69.51
-1059,171,-61,-63.28,-58.17,73.15
-1098,144,-155,-89.74,-65.73,77.56
-1150,123,-625,-128.66,-62.51,92.54
-1138,62,-782,-132.79,-42.56,101.29
-990,13,-659,-124.88,-19.25,96.95
-896,6,-564,-116.55,-3.85,83.58
-830,58,-447,-100.31,5.53,73.99
-777,124,-347,-81.97,10.5,79.52
-749,127,-259,-66.71,12.11,91.7
-759,45,-201,-55.86,11.55,105.14
-783,-114,-170,-45.64,10.15,117.67
-846,-293,-124,-31.22,9.24,128.59
-886,-434,-87,-13.72,9.38,136.71
-916,-494,-65,5.11,9.87,140.84
-874,-501,-52,21.98,10.64,142.24
-837,-425,-50,37.45,12.18,141.96
-788,-308,-24,52.57,14.14,131.46
-772,-237,18,63.98,14.77,118.58
-805,-236,48,72.31,14.35,109.48
-820,-240,65,77.0,14.14,99.26
-857,-238,68,79.38,14.77,88.2
-899,-247,53,77.56,15.68,82.81
-898,-274,24,74.27,16.94,79.94
-872,-302,15,72.31,18.13,77.28
-811,-289,-193,59.36,18.83,69.93
-641,-252,-129,60.83,25.27,48.86
-574,-296,44,69.86,24.08,22.75
-758,-329,-76,60.55,16.94,2.94
-940,-255,-239,52.78,16.59,-7.7
-936,-108,-277,44.8,21.98,-7.91
-961,74,-379,35.21,28.07,-0.35
-1029,284,-387,40.74,33.67,3.64
-1136,498,-288,49.21,31.29,9.59
-1286,669,-169,49.14,20.65,24.78
-1517,778,13,38.43,5.67,49.07
-1739,816,90,7.49,-3.57,84.0
-1689,639,55,-35.91,-5.88,114.31
-1399,327,-134,-80.78,-6.65,120.82
-1128,114,-275,-97.02,-4.55,98.21
-939,-2,-312,-85.54,-0.91,54.39
-886,26,-305,-64.47,4.27,13.93
-847,150,-277,-43.89,9.17,-20.23
-858,254,-254,-28.91,13.65,-37.94
-860,311,-279,-19.04,15.61,-38.57
-851,332,-290,-6.37,15.68,-32.55
-818,321,-283,7.91,17.22,-31.43
-809,301,-280,21.07,18.2,-31.08
-828,307,-258,31.57,18.41,-27.16
-840,326,-265,33.88,17.29,-20.51
-837,312,-276,28.84,16.1,-15.4
-824,251,-295,18.2,16.17,-14.28
-805,155,-266,8.75,17.92,-17.99
-817,85,-251,4.76,19.6,-25.97
-866,104,-255,8.05,20.51,-34.51
-918,204,-264,16.31,20.37,-38.92
-958,327,-244,25.06,19.67,-39.13
-972,385,-199,28.98,17.64,-33.74
-973,365,-213,24.36,13.51,-25.55
-957,292,-242,16.87,10.29,-20.72
-972,196,-251,8.89,7.7,-20.44
-1003,112,-256,-0.84,6.02,-21.21
-1025,74,-286,-13.23,5.81,-20.3
-1035,95,-300,-24.99,9.24,-20.51
-1050,108,-242,-34.44,11.97,-21.63
-1087,154,-280,-46.48,9.66,-18.83
-1084,210,-303,-53.76,10.64,-14.28
-1066,228,-279,-56.63,11.76,-11.83
-1037,227,-287,-58.66,10.5,-10.22
-1005,209,-317,-56.49,8.33,-7.28
-960,159,-303,-48.3,7.98,-7.28
-946,101,-308,-37.66,8.19,-10.29
-935,54,-308,-24.57,10.01,-14.91
-928,21,-311,-11.76,12.11,-19.39
-925,15,-322,0.0,13.93,-22.82
-932,46,-329,12.25,15.68,-25.27
-956,100,-313,23.94,16.8,-26.53
-988,151,-292,31.99,15.82,-25.06
-1011,183,-276,34.79,12.81,-21.0
-1026,189,-280,33.53,9.52,-16.94
-1032,179,-278,32.2,7.7,-14.42
-1028,159,-266,30.94,6.16,-13.51
-1028,153,-263,28.77,3.99,-13.44
-1023,154,-265,27.23,2.17,-13.44
-1004,150,-268,26.25,0.91,-12.81
-985,143,-260,25.9,0.35,-12.67
-967,128,-267,24.99,-0.49,-12.81
-949,117,-284,23.1,-0.98,-12.6
-936,110,-290,22.12,0.0,-12.74
-936,107,-289,21.07,0.84,-13.09
-942,103,-286,19.6,1.61,-12.6
-953,98,-275,17.71,2.31,-11.13
-963,94,-283,14.84,1.89,-9.24
-963,93,-295,12.46,1.68,-7.14
-956,92,-282,11.41,1.61,-5.95
-954,81,-278,10.01,0.91,-5.53
-961,70,-298,8.26,0.07,-4.76
-958,52,-307,8.05,0.21,-4.06
-958,30,-315,8.96,0.35,-3.85
-960,18,-321,11.34,0.49,-3.85
-968,18,-331,14.28,0.63,-4.06
-976,23,-332,18.13,1.05,-4.06
-985,27,-329,22.68,1.68,-3.99
-995,30,-325,27.58,2.24,-3.99
-1008,35,-321,33.32,2.45,-3.36
-1013,45,-317,39.55,2.31,-2.24
-1010,62,-315,45.29,1.82,-1.12
-1003,79,-314,49.84,1.19,-0.14
-994,93,-306,53.41,0.63,1.26
-978,122,-298,55.09,-0.7,3.36
-949,159,-305,52.64,-2.38,5.25
-895,191,-306,47.81,-3.36,7.84
-838,240,-312,42.77,-4.9,11.13
-870,233,-302,37.24,-7.14,13.23
-874,237,-295,31.15,-9.66,12.11
-899,237,-309,24.43,-12.74,10.85
-909,231,-329,21.42,-15.89,9.73
-921,203,-329,23.59,-16.03,10.78
-943,178,-306,26.88,-16.38,9.31
-989,185,-306,26.6,-16.66,7.0
-1024,203,-286,24.57,-16.1,5.32
-1058,225,-247,17.71,-16.1,6.86
-1103,239,-234,3.43,-16.59,11.41
-1119,244,-246,-14.28,-17.99,16.45
-1111,231,-243,-30.31,-19.67,23.45
-1084,206,-247,-46.76,-21.91,27.51
-1075,183,-254,-63.21,-25.41,27.02
-1064,153,-192,-81.34,-30.03,26.39
-1087,148,-241,-105.7,-35.0,30.1
-1031,127,-298,-123.48,-34.65,30.66
-956,54,-327,-139.16,-20.02,33.04
-908,17,-413,-133.49,-6.72,27.86
-868,-39,-414,-112.35,6.44,16.66
-871,-62,-401,-85.89,13.65,1.61
-867,-53,-368,-57.19,18.41,-14.91
-863,-47,-284,-27.58,21.91,-29.47
-880,-27,-261,-13.44,20.51,-35.98
-894,-10,-248,-7.91,16.94,-34.3
-882,6,-231,-0.35,14.77,-29.26
-865,11,-223,6.86,11.9,-24.43
-853,-2,-221,12.88,9.59,-19.53
-842,2,-205,20.51,6.65,-15.82
-845,48,-188,25.76,3.36,-11.55
-854,95,-170,26.04,-0.21,-6.23
-875,118,-163,20.51,-3.71,-0.49
-896,116,-169,14.21,-7.07,5.67
-903,99,-174,10.99,-9.87,9.8
-915,81,-176,10.29,-12.25,11.76
-921,60,-181,11.2,-14.21,10.5
-926,48,-185,13.23,-15.26,7.7
-927,39,-189,17.15,-15.54,2.45
-917,35,-192,19.67,-16.31,-3.71
-906,38,-204,18.48,-17.64,-9.38
-890,44,-233,15.54,-18.41,-14.91
-868,52,-273,11.2,-18.48,-19.81
-847,85,-308,12.95,-16.45,-27.51
-824,49,-314,25.06,-11.62,-39.27
-805,38,-402,22.89,-12.25,-45.43
-759,19,-436,20.23,-2.03,-49.42
-703,-22,-396,27.79,10.85,-57.89
-705,-67,-345,40.39,21.14,-67.2
-759,-88,-350,47.39,26.81,-69.09
-762,-62,-392,52.71,29.19,-65.66
-828,-14,-369,66.01,34.02,-58.87
-907,19,-284,79.17,41.86,-52.5
-1010,105,-257,80.57,41.02,-40.25
-1088,172,-258,78.12,36.26,-23.45
-1155,238,-287,67.97,32.13,-6.79
-1210,305,-295,56.49,26.11,5.18
-1265,347,-264,45.01,19.88,15.4
-1262,313,-255,31.29,16.73,25.55
-1204,229,-238,18.9,13.3,33.53
-1145,147,-236,7.28,7.07,36.33
-1108,65,-255,-1.68,2.45,33.11
-1046,-7,-278,-4.41,0.49,24.22
-999,-58,-290,-0.28,1.33,15.19
-957,-74,-311,5.81,4.13,6.3
-938,-53,-323,14.35,7.77,-1.4
-939,-20,-330,24.43,11.69,-5.81
-948,-8,-361,33.53,14.42,-7.63
-963,7,-376,41.44,17.57,-9.24
-998,51,-357,46.41,20.72,-10.01
-1027,68,-319,48.72,22.05,-8.05
-1016,71,-307,42.0,18.97,-0.42
-1015,80,-288,30.45,13.65,8.05
-993,74,-293,20.79,9.8,12.53
-974,59,-319,14.35,7.14,17.15
-939,51,-315,7.28,4.48,20.3
-922,63,-320,-1.47,2.87,19.74
-923,64,-317,-8.33,1.54,16.03
-920,42,-325,-13.58,-0.07,14.84
-927,63,-331,-18.69,-0.7,15.96
-927,61,-321,-22.12,-0.21,17.64
-967,78,-324,-23.8,0.21,19.32
-979,63,-329,-27.51,0.21,19.32
-1008,58,-314,-32.9,-1.12,22.33
-1023,87,-327,-38.43,-3.01,23.31
-1030,90,-330,-42.07,-5.46,21.63
-1044,78,-324,-46.34,-7.77,20.3
-1024,83,-330,-51.38,-10.08,21.21
-1006,73,-329,-53.9,-10.43,22.4
-999,62,-327,-53.55,-9.66,21.63
-981,46,-328,-51.66,-7.84,18.34
-983,27,-332,-49.42,-5.67,14.14
-969,17,-330,-45.57,-3.92,8.89
-968,13,-344,-41.16,-1.33,4.13
-961,32,-354,-37.73,0.21,0.14
-958,42,-347,-35.56,1.68,-3.92
-955,53,-334,-32.76,1.47,-7.63
-947,63,-327,-26.67,0.77,-11.76
-962,65,-331,-19.95,0.42,-15.68
-949,57,-324,-14.7,1.4,-17.5
-945,53,-308,-10.36,1.96,-16.24
-956,53,-309,-7.28,1.19,-16.1
-955,60,-321,-5.88,0.14,-16.17
-958,70,-332,-4.2,-0.63,-15.33
-952,76,-334,-0.49,-0.49,-15.12
-956,73,-335,4.2,-0.56,-16.03
-952,75,-335,6.79,-1.4,-16.73
-960,76,-328,9.8,-2.17,-17.36
-958,85,-330,12.32,-3.01,-17.78
-965,94,-334,14.42,-4.76,-17.85
-970,104,-353,14.91,-7.49,-16.1
-974,105,-351,17.29,-8.26,-14.56
-980,109,-332,19.39,-8.68,-13.23
-1009,117,-303,18.9,-9.52,-11.41
-1023,126,-275,15.61,-10.78,-7.91
-1035,124,-262,11.55,-14.14,-2.17
-1042,122,-252,9.94,-16.45,3.85
-1036,101,-210,13.37,-15.54,8.75
-1044,81,-250,14.07,-14.35,14.21
-1024,63,-260,10.57,-13.02,19.95
-993,23,-243,3.5,-14.07,22.54
-989,-28,-198,-4.27,-17.08,19.81
-978,-101,-103,-11.9,-23.87,13.65
-999,-174,-57,-18.9,-33.46,6.02
-1028,-220,-47,-16.73,-41.65,-1.96
-1054,-218,-43,-4.97,-47.39,-9.94
-1075,-196,-40,11.41,-53.13,-16.73
-1065,-145,-32,26.6,-60.69,-21.7
-1056,-108,-38,35.42,-67.27,-24.92
-1035,-99,-41,43.05,-73.5,-29.26
-1034,-100,-55,50.12,-79.66,-33.18
-998,-46,-54,56.0,-87.15,-34.37
-1016,-17,-33,61.95,-96.46,-31.99
-1064,-20,-17,64.82,-100.1,-29.75
-1066,13,-17,66.22,-100.59,-29.68
-1063,41,-21,67.41,-101.01,-27.3
-1048,76,-25,65.24,-99.61,-23.17
-1031,94,-29,62.86,-97.44,-19.25
-1020,101,-54,56.21,-95.69,-13.79
-996,103,-46,45.01,-95.34,-7.42
-976,94,-28,31.92,-95.55,-0.84
-978,71,-8,21.91,-95.55,3.71
-983,60,13,14.91,-94.71,6.65
-966,47,27,10.29,-94.22,9.52
-956,28,2,10.08,-91.77,11.83
-943,8,-10,13.09,-88.34,12.81
-957,-1,-18,14.49,-87.29,12.67
-955,0,-20,14.77,-87.78,12.39
-974,3,-28,18.97,-87.85,11.06
-943,-16,-2,26.11,-86.8,8.12
-910,-12,16,29.82,-85.82,6.3
-891,-16,35,31.92,-84.77,4.62
-889,-31,40,35.49,-83.09,2.52
-874,-28,16,40.04,-79.87,0.21
-882,-18,2,44.38,-76.02,-2.8
-904,6,8,42.98,-75.18,-4.69
-907,27,15,38.92,-75.74,-4.83
-920,32,35,38.57,-74.34,-5.74
-920,34,60,39.2,-71.96,-7.49
-929,52,72,37.17,-70.35,-7.42
-941,71,91,31.36,-69.44,-5.25
-953,76,118,23.87,-67.41,-4.2
-945,68,110,15.4,-63.98,-3.36
-940,47,98,10.99,-59.99,-2.38
-925,31,108,9.45,-54.04,-2.73
-933,39,108,6.44,-47.88,-3.08
-946,55,101,0.77,-43.05,-2.73
-936,66,100,-5.74,-38.01,-2.8
-928,59,117,-10.08,-33.18,-3.92
-928,50,115,-12.46,-27.23,-5.32
-924,34,120,-11.97,-21.0,-6.09
-921,23,119,-11.97,-15.4,-7.35
-913,19,111,-12.32,-11.13,-8.75
-899,0,109,-10.57,-7.77,-10.85
-882,-20,95,-6.09,-4.41,-13.37
-872,-38,78,-0.56,-0.98,-16.45
-851,-38,155,9.66,0.28,-21.84
-862,41,481,33.46,-7.49,-27.37
-1162,40,1030,70.63,-29.47,-27.16
-1503,-6,734,75.04,-30.38,-16.73
-1373,221,132,57.82,-4.48,7.91
-1067,246,-19,42.49,1.4,32.62
-924,99,110,5.88,-2.87,31.15
-933,3,247,-9.31,-3.01,15.61
-985,51,270,-0.84,1.54,4.34
-1017,114,229,4.48,3.85,1.75
-1018,110,261,1.4,2.59,2.87
-1004,77,320,-5.32,-0.56,4.55
-997,37,341,-6.86,-2.94,5.53
-985,10,328,-1.54,-4.62,6.23
-963,0,311,6.79,-6.02,5.53
-942,0,307,16.1,-7.07,3.85
-947,10,323,27.3,-7.7,3.01
-953,21,334,37.1,-8.47,4.06
-943,28,334,42.84,-9.73,6.93
-942,41,302,42.56,-11.48,7.91
-951,76,272,42.77,-15.61,-0.49
-977,85,252,41.86,-20.02,-13.09
-1000,62,280,41.86,-23.66,-19.67
-1014,21,307,41.37,-24.5,-21.14
-1019,-7,308,44.1,-23.38,-23.8
-1007,-37,301,48.79,-20.44,-27.58
-998,-41,290,51.8,-17.92,-32.55
-994,-17,278,55.79,-16.66,-40.88
-1009,-27,293,61.6,-17.08,-48.86
-992,-16,295,63.7,-16.8,-52.78
-1015,-18,326,70.0,-16.45,-56.28
-1025,-12,331,69.72,-16.8,-56.42
-993,-24,323,67.9,-16.03,-52.5
-990,-30,334,67.9,-14.56,-47.74
-973,-26,323,64.82,-12.53,-46.2
-958,-21,335,61.39,-11.48,-43.12
-935,-35,362,59.85,-9.45,-38.71
-925,-37,355,58.38,-8.33,-34.58
-913,-49,356,59.85,-6.86,-31.64
-887,-71,358,64.26,-4.2,-27.65
-881,-85,358,70.7,-0.07,-24.99
-870,-94,334,75.67,4.41,-24.78
-882,-119,342,81.27,8.54,-24.71
-866,-105,317,86.52,11.48,-27.58
-873,-88,308,95.48,14.56,-33.11
-903,-83,330,103.46,18.34,-37.45
-922,-49,307,106.33,21.49,-43.12
-938,-28,282,110.46,23.8,-47.67
-951,-19,287,111.37,27.65,-49.56
-975,-16,282,107.03,29.4,-49.63
-978,-4,279,98.91,30.59,-47.11
-998,26,276,89.6,31.99,-42.21
-1035,57,272,76.51,34.23,-32.69
-1049,65,254,62.16,36.96,-20.37
-1055,66,225,49.98,40.39,-8.75
-1061,63,200,40.25,43.68,0.0
-1047,48,188,32.48,45.78,3.43
-1052,38,220,26.81,45.29,4.41
-1049,2,160,24.43,45.01,5.25
-1020,-48,46,30.24,45.85,1.89
-941,-109,41,28.35,49.84,-4.06
-917,-152,46,16.24,52.71,-9.8
-955,-165,16,12.18,55.72,-16.8
-974,-177,16,20.37,62.86,-24.22
-973,-223,13,25.83,71.75,-28.07
-966,-270,-19,29.61,80.22,-31.22
-971,-231,-20,37.45,87.78,-34.79
-1000,-109,23,42.49,92.89,-39.41
-1024,9,60,37.59,92.61,-41.72
-1025,39,34,22.47,90.72,-38.64
-999,5,3,8.75,88.69,-32.83
-999,-37,-13,1.05,86.8,-28.63
-989,-89,-32,-1.4,86.38,-28.42
-981,-126,-40,2.52,87.85,-29.96
-991,-128,-37,5.32,88.9,-32.2
-999,-115,-38,2.38,88.34,-36.05
-1026,-118,-43,-1.68,90.79,-42.07
-1024,-112,-34,-7.7,91.56,-48.09
-1040,-72,-11,-11.97,89.6,-50.75
-1065,-47,-25,-13.02,88.13,-55.09
-1030,-44,-27,-12.81,87.29,-58.52
-992,-46,-3,-14.21,85.75,-60.83
-965,-60,-18,-19.6,82.74,-62.37
-962,-63,-26,-26.53,79.31,-61.32
-963,-60,-14,-28.21,77.49,-61.53
-992,-67,7,-26.53,76.51,-59.01
-1000,-77,17,-27.93,75.67,-55.86
-985,-125,-8,-31.64,73.5,-52.71
-1029,-158,-10,-29.47,70.49,-52.43
-1034,-130,0,-24.71,66.36,-56.98
-992,-132,4,-19.95,61.67,-59.08
-970,-134,4,-13.93,56.07,-57.89
-951,-116,-21,-4.76,50.47,-57.47
-968,-135,-28,5.74,45.15,-56.98
-966,-151,-43,15.4,39.62,-55.72
-968,-159,-15,27.72,35.7,-53.48
-954,-146,17,34.23,32.48,-51.94
-975,-143,5,28.98,27.65,-49.84
-976,-140,-2,21.84,22.33,-46.97
-994,-155,-7,15.89,17.15,-43.19
-988,-177,-65,11.41,11.97,-37.66
-984,-198,-47,16.59,9.24,-33.74
-953,-195,-48,17.85,6.51,-32.9
-922,-197,-77,17.57,1.68,-31.57
-943,-213,-63,16.38,-3.08,-29.4
-938,-234,-77,10.43,-7.14,-26.88
-924,-223,-79,5.11,-10.43,-24.64
-938,-219,-48,4.13,-12.95,-21.56
-948,-238,-31,9.59,-15.12,-16.87
-943,-254,-60,17.85,-16.03,-12.74
-913,-262,-95,22.96,-16.17,-10.57
-883,-293,-118,21.98,-15.47,-8.89
-879,-351,-153,18.69,-15.4,-7.07
-879,-405,-186,12.6,-14.14,-7.07
-866,-448,-230,1.68,-10.5,-9.73
-809,-436,-237,-7.07,-5.11,-13.58
-842,-447,-215,-10.01,-0.07,-17.71
-842,-400,-168,-7.63,3.57,-19.81
-875,-357,-131,-4.69,6.09,-17.43
-904,-336,-106,0.35,8.26,-12.67
-935,-353,-117,4.34,11.06,-7.7
-960,-375,-158,11.27,14.42,-1.82
-982,-391,-233,16.38,17.92,2.1
-1004,-395,-268,17.99,20.3,4.48
-1010,-380,-267,15.33,20.37,5.25
-1040,-355,-271,7.91,18.48,4.55
-1083,-320,-274,-0.21,15.47,4.83
-1098,-299,-272,-5.95,12.88,6.09
-1096,-301,-266,-10.29,11.27,8.19
-1081,-305,-261,-14.42,8.75,9.31
-1049,-299,-262,-16.8,5.53,9.03
-1004,-301,-247,-17.15,2.03,8.68
-958,-324,-238,-17.99,-1.61,8.89
-934,-359,-253,-17.5,-4.41,8.96
-898,-392,-244,-15.96,-6.23,7.0
-881,-399,-235,-14.28,-5.32,3.29
-900,-387,-235,-11.9,-4.62,-0.63
-927,-361,-228,-8.61,-3.22,-1.68
-947,-340,-218,-5.6,-1.12,-0.91
-974,-333,-223,-6.09,0.07,3.08
-984,-337,-211,-7.91,0.28,6.16
-976,-345,-204,-12.95,-0.63,8.89
-979,-338,-206,-18.27,-2.31,10.5
-979,-333,-200,-21.14,-3.85,9.94
-969,-327,-198,-23.94,-5.81,9.03
-942,-321,-211,-26.04,-7.63,8.05
-914,-330,-220,-27.37,-9.59,6.93
-889,-334,-232,-26.18,-10.78,4.83
-880,-332,-241,-22.4,-10.92,1.89
-875,-323,-245,-21.91,-11.62,0.21
-889,-319,-263,-20.65,-10.57,-0.91
-915,-322,-268,-14.56,-7.91,-1.96
-926,-308,-263,-10.36,-5.11,-0.91
-942,-299,-271,-7.84,-3.01,0.07
-951,-295,-260,-6.37,-2.38,1.33
-948,-300,-245,-8.12,-2.17,2.1
-955,-305,-229,-9.17,-3.01,1.33
-961,-301,-214,-8.82,-3.92,-0.49
-956,-294,-203,-9.8,-5.53,-1.61
-943,-286,-207,-11.62,-7.77,-1.33
-931,-289,-207,-12.11,-9.45,-0.7
-913,-298,-214,-13.65,-11.27,0.14
-907,-314,-219,-14.42,-12.11,0.84
-903,-326,-222,-13.93,-11.97,0.91
-909,-326,-229,-12.81,-11.27,0.35
-904,-324,-225,-11.27,-10.64,-0.14
-906,-320,-224,-10.99,-10.71,0.49
-915,-316,-220,-11.55,-10.99,1.26
-919,-320,-214,-13.44,-11.27,3.01
-918,-318,-217,-12.88,-10.71,4.13
-913,-311,-219,-10.15,-9.45,3.92
-906,-304,-213,-10.71,-9.24,4.48
-907,-305,-215,-11.62,-9.45,5.18
-908,-308,-221,-10.71,-9.52,4.9
-904,-310,-219,-9.59,-9.66,3.99
-899,-305,-219,-8.89,-9.87,3.01
-894,-301,-221,-7.7,-9.45,2.1
-893,-300,-217,-7.0,-9.03,1.26
-897,-294,-217,-5.95,-8.54,0.21
-903,-288,-214,-5.39,-8.19,-0.21
-906,-291,-205,-6.16,-7.7,0.21
-909,-288,-201,-7.14,-7.28,0.42
-913,-282,-194,-7.91,-6.86,0.63
-923,-282,-194,-8.19,-5.88,0.91
-933,-283,-203,-8.26,-4.83,1.47
-938,-287,-209,-9.66,-4.41,3.01
-938,-292,-215,-12.39,-4.69,4.55
-946,-295,-216,-15.26,-5.18,5.81
-963,-291,-222,-17.85,-6.58,7.42
-969,-299,-219,-20.51,-7.84,9.31
-996,-315,-211,-21.14,-8.19,9.38
-997,-316,-201,-21.91,-8.12,8.4
-1006,-309,-194,-23.03,-8.54,8.33
-1033,-309,-200,-22.89,-9.17,8.19
-1050,-295,-194,-24.5,-9.31,9.52
-1054,-277,-178,-26.88,-9.1,12.04
-1051,-255,-171,-28.14,-7.49,15.12
-1053,-235,-183,-28.21,-6.16,17.99
-1037,-206,-159,-26.81,-0.91,20.79
-1024,-197,-135,-22.47,2.03,22.61
-988,-199,-144,-20.51,1.26,25.13
-968,-220,-160,-16.8,-0.42,26.11
-935,-229,-170,-15.33,-4.27,25.34
-908,-204,-155,-13.72,-8.05,22.47
-875,-172,-4,-5.67,-15.75,16.31
-922,-151,50,5.11,-23.03,13.58
-966,-123,49,16.45,-29.19,17.15
-971,-101,62,25.2,-35.7,25.06
-979,-121,34,32.69,-41.37,33.04
-986,-160,32,42.42,-45.78,39.83
-995,-146,77,53.69,-49.56,45.01
-1016,-116,88,62.02,-52.99,48.58
-1035,-79,81,66.43,-56.63,54.95
-1042,-55,86,68.25,-59.5,63.28
-1053,-36,89,70.14,-61.53,69.3
-1067,-11,94,70.84,-62.51,72.59
-1062,38,102,66.5,-65.59,76.72
-1083,59,90,56.35,-69.23,82.46
-1087,75,98,43.54,-73.57,89.6
-1089,67,82,27.93,-78.05,95.76
-1104,18,41,11.97,-83.79,99.54
-1097,-55,22,-1.75,-88.41,99.96
-1075,-119,3,-8.75,-90.3,93.03
-1071,-133,-4,-8.19,-87.43,81.13
-1061,-110,20,-5.39,-83.3,69.65
-1040,-80,8,-9.38,-80.22,60.62
-1021,-51,0,-15.96,-78.12,54.25
-994,-37,6,-25.2,-78.82,49.49
-982,-31,9,-35.77,-79.59,44.24
-945,-55,5,-43.61,-80.22,40.67
-932,-97,-24,-47.88,-79.1,37.45
-934,-125,-72,-48.58,-75.74,33.25
-918,-99,-88,-44.38,-71.19,28.0
-921,-48,-61,-39.55,-65.94,23.45
-923,-31,-35,-35.84,-62.44,22.61
-933,-23,-36,-36.05,-59.22,22.4
-940,-13,-58,-37.17,-55.58,21.49
-952,0,-54,-35.49,-51.94,19.88
-955,-2,-30,-31.71,-47.04,17.71
-968,-6,0,-30.66,-42.91,17.29
-986,0,-12,-32.41,-38.15,17.85
-997,6,-15,-31.85,-34.16,18.62
-995,8,-10,-29.26,-28.21,18.69
-988,26,-2,-25.41,-21.21,17.43
-991,47,-7,-24.78,-14.91,17.85
-986,50,27,-23.87,-9.66,18.9
-992,29,27,-23.24,-4.13,20.72
-994,14,27,-22.82,0.49,23.1
-1004,9,31,-20.86,5.46,24.57
-1015,1,28,-17.99,10.29,25.55
-1017,-7,32,-13.02,16.03,26.18
-1009,-3,48,-7.56,22.54,26.04
-1011,9,72,-4.34,27.58,26.53
-1008,17,82,-1.75,32.06,27.3
-1010,28,83,0.91,35.56,28.42
-1012,30,90,4.55,38.15,29.4
-1025,19,104,7.7,40.39,30.31
-1030,-2,96,9.03,41.72,31.29
-1036,-23,85,11.55,42.84,31.43
-1041,-21,75,15.12,44.59,29.12
-1030,-6,100,21.14,46.62,24.64
-1026,2,106,23.52,46.97,22.33
-1034,7,107,22.89,46.69,20.79
-1018,14,124,20.72,45.64,19.04
-1005,15,125,18.9,44.17,17.5
-1009,18,120,19.88,43.26,14.35
-998,24,131,21.77,42.63,9.8
-982,9,126,21.49,41.02,5.95
-982,-5,122,20.93,39.55,1.12
-979,-6,116,21.14,38.71,-4.48
-987,12,113,21.35,37.52,-9.52
-986,29,111,19.88,36.33,-12.88
-980,32,121,18.55,35.63,-15.47
-976,39,118,15.4,33.88,-17.15
-970,32,101,11.55,31.99,-18.48
-956,15,99,9.73,31.43,-20.51
-947,-2,107,9.17,31.15,-22.54
-940,-9,95,7.91,30.73,-24.78
-938,-15,88,6.16,29.89,-28.35
-943,-17,90,4.48,29.19,-33.18
-969,-25,98,4.76,29.19,-38.29
-993,-19,89,3.99,29.19,-43.05
-1004,-8,83,1.68,28.77,-47.39
-1006,5,110,-1.47,28.14,-51.24
-1026,7,117,-4.06,27.3,-53.69
-1029,-6,112,-6.09,26.53,-54.25
-1036,-15,113,-8.12,25.83,-54.25
-1057,-35,128,-9.38,24.78,-54.18
-1053,-57,112,-9.87,23.94,-52.64
-1055,-62,115,-7.0,23.17,-51.31
-1070,-71,126,-3.92,21.35,-50.05
-1077,-81,138,0.14,19.74,-48.16
-1084,-104,162,4.83,18.13,-47.74
-1078,-124,175,7.35,15.54,-48.3
-1102,-147,200,10.22,11.06,-50.4
-1097,-177,209,12.32,6.23,-52.99
-1118,-187,199,15.47,0.28,-55.3
-1104,-175,212,22.12,-5.39,-58.17
-1110,-139,247,29.68,-11.48,-59.71
-1093,-114,244,31.43,-19.39,-58.45
-1083,-114,241,31.22,-28.35,-56.42
-1073,-130,235,32.13,-37.59,-54.46
-1063,-150,212,34.23,-45.22,-52.92
-1043,-171,194,38.01,-51.1,-52.36
-1035,-173,185,42.84,-55.37,-52.22
-1018,-170,195,48.37,-59.08,-52.08
-993,-182,195,53.76,-63.0,-50.75
-985,-180,188,58.1,-66.5,-48.65
-987,-166,170,63.98,-68.53,-47.46
-977,-153,174,69.16,-69.3,-45.78
-952,-140,164,71.89,-70.84,-43.12
-942,-114,147,77.84,-70.7,-40.04
-934,-100,151,82.53,-69.51,-35.35
-932,-108,149,84.84,-69.65,-29.82
-938,-120,133,86.38,-68.11,-25.55
-949,-119,102,86.87,-66.36,-22.89
-921,-115,75,87.85,-63.77,-22.33
-895,-120,57,85.68,-61.32,-21.63
-898,-116,13,79.45,-58.66,-21.63
-898,-107,17,74.41,-55.58,-23.38
-896,-94,37,69.51,-51.94,-25.13
-896,-105,27,63.42,-48.37,-26.6
-885,-106,-1,53.76,-45.57,-27.79
-864,-107,-54,42.63,-42.84,-29.26
-804,-112,-74,30.17,-40.53,-31.15
-765,-131,-103,13.93,-38.22,-32.2
-749,-176,-108,-1.05,-37.8,-34.02
-739,-205,-92,-14.0,-38.29,-34.65
-735,-229,-134,-22.12,-35.49,-37.17
-742,-239,-137,-26.67,-32.41,-40.04
-756,-274,-123,-33.74,-28.77,-41.58
-808,-271,-249,-53.2,-19.25,-41.93
-810,-217,6,-58.38,-9.87,-44.38
-919,-162,351,-53.06,-7.84,-46.06
-1161,-3,279,-16.38,-12.67,-43.96
-1273,143,355,33.88,-7.77,-36.61
-1421,199,397,42.21,-7.56,-19.39
-1652,230,413,35.98,-10.71,-1.75
-1777,190,375,14.21,-2.73,14.28
-1516,83,243,-36.19,2.87,27.44
-1162,-61,120,-69.72,-5.04,24.22
-1047,-166,61,-76.3,-14.42,16.52
-1081,-192,83,-82.39,-20.3,7.98
-1061,-202,136,-94.92,-24.08,-2.31
-1023,-243,170,-104.44,-27.58,-8.68
-1006,-301,203,-99.26,-28.42,-12.67
-973,-316,222,-89.11,-28.35,-16.17
-928,-347,222,-79.24,-27.79,-15.96
-901,-383,253,-68.88,-26.46,-14.35
-872,-423,253,-60.06,-25.97,-14.28
-854,-450,254,-50.19,-25.2,-14.0
-826,-475,259,-39.55,-21.7,-16.31
-818,-466,280,-29.82,-19.95,-19.39
-825,-445,278,-22.54,-18.55,-20.44
-841,-420,280,-16.31,-17.64,-19.74
-843,-400,278,-11.9,-15.47,-18.48
-855,-385,269,-8.05,-13.44,-16.38
-870,-371,260,-3.99,-11.83,-13.37
-867,-376,263,0.0,-7.84,-10.78
-874,-371,274,3.08,-4.76,-8.47
-878,-361,268,4.48,-2.52,-6.23
-878,-365,285,5.88,-0.91,-3.99
-882,-368,298,6.51,0.7,-2.24
-882,-372,292,7.21,1.96,-1.05
-878,-373,286,7.0,2.87,-0.7
-880,-380,279,7.77,4.55,-1.12
-881,-372,294,8.68,5.11,-0.49
-876,-372,290,9.24,5.81,0.0
-865,-374,286,9.59,6.51,-0.07
-857,-383,289,9.94,6.72,-0.7
-854,-396,275,11.13,6.93,-2.1
-857,-396,287,13.16,7.7,-4.27
-861,-381,315,14.14,7.49,-5.53
-893,-361,317,14.14,6.58,-4.48
-908,-347,315,15.4,6.51,-4.06
-922,-332,311,15.82,6.16,-2.87
-944,-320,299,14.91,4.97,-1.4
-958,-316,278,14.0,3.85,-0.35
-954,-312,275,13.72,4.06,0.07
-949,-301,271,12.25,4.13,0.21
-948,-290,273,10.08,3.92,0.0
-939,-284,270,8.4,3.57,0.35
-935,-290,271,6.51,2.1,1.12
-928,-308,272,3.85,0.91,2.17
-919,-316,272,3.15,0.28,2.52
-912,-317,271,3.43,0.0,2.03
-909,-317,275,3.36,-0.91,1.61
-906,-317,274,3.08,-1.54,1.05
-901,-322,278,3.08,-1.89,0.91
-903,-319,282,3.15,-2.24,0.63
-902,-316,282,4.13,-1.75,0.49
-906,-314,286,4.9,-1.61,0.63
-916,-313,289,4.62,-1.82,1.19
-915,-312,288,4.2,-1.82,1.89
-915,-313,291,3.99,-1.89,2.03
-921,-313,292,3.08,-1.68,1.89
-919,-315,294,2.24,-2.03,2.17
-915,-320,291,0.63,-2.03,2.03
-909,-329,292,0.07,-1.89,2.03
-903,-336,294,0.49,-1.96,1.61
-896,-343,291,0.14,-2.03,1.4
-890,-350,288,-0.42,-2.24,0.77
-903,-347,300,-0.42,-2.73,0.49
-887,-355,293,-0.42,-2.03,-0.42
-897,-356,300,1.61,-1.89,-0.35
-901,-351,301,2.45,-1.4,-0.84
-905,-349,300,2.94,-0.98,-0.84
-907,-344,300,3.43,-0.77,-0.84
-906,-339,300,3.57,-0.7,-0.84
-906,-339,299,3.57,-0.35,-0.63
-906,-339,298,3.15,-0.35,-0.21
-909,-338,297,3.5,-0.21,-0.28
-912,-337,293,3.43,-0.21,-0.28
-909,-333,294,3.71,-0.21,-0.42
-913,-335,294,4.06,-0.56,-0.35
-915,-336,292,4.06,-1.05,-0.35
-912,-332,293,3.99,-1.26,-0.21
-912,-328,292,4.41,-1.19,-0.42
-910,-327,293,5.04,-1.68,-0.49
-912,-333,292,5.18,-2.17,-0.07
-912,-331,287,5.39,-2.52,0.42
-910,-324,283,6.23,-2.38,0.49
-911,-317,279,6.51,-2.52,0.84
-908,-315,277,5.88,-2.73,1.47
-907,-318,271,5.88,-2.66,1.61
-906,-315,262,6.86,-2.24,1.4
-912,-311,264,8.4,-1.26,1.33
-919,-308,265,9.87,-0.56,1.47
-924,-302,264,11.69,0.07,1.68
-932,-294,263,13.65,0.49,2.03
-938,-290,259,15.05,0.7,2.8
-938,-283,261,15.4,1.33,4.13
-942,-273,246,14.98,2.1,5.11
-948,-257,203,14.07,3.57,6.44
-947,-230,173,14.7,6.16,7.91
-966,-210,158,18.2,9.45,9.38
-973,-192,144,21.49,13.79,11.34
-977,-189,140,23.52,18.41,15.19
-991,-184,141,27.09,22.82,18.97
-1002,-176,178,33.67,27.79,22.47
-1024,-169,214,41.44,32.83,26.88
-1039,-156,238,46.13,37.59,33.04
-1042,-155,279,53.55,42.0,37.45
-1053,-154,321,59.15,46.48,40.81
-1066,-144,366,63.35,49.56,44.66
-1090,-144,385,67.62,51.45,46.9
-1104,-174,336,60.83,53.55,50.75
-1129,-201,221,41.44,54.46,54.39
-1075,-233,60,18.97,57.19,52.78
-1035,-243,-21,-4.55,59.29,47.39
-979,-244,-223,-34.02,68.25,39.41
-925,-196,-412,-53.69,77.21,31.99
-874,-146,-445,-63.49,85.33,25.48
-843,-151,-352,-71.75,91.14,23.24
-869,-206,-246,-77.63,94.78,25.9
-917,-269,-155,-80.15,95.69,30.52
-952,-320,-110,-80.85,96.04,33.81
-958,-352,-157,-80.99,98.35,34.37
-944,-340,-190,-81.27,103.6,33.04
-897,-291,-229,-78.68,109.41,27.65
-901,-179,-193,-72.94,108.36,25.41
-890,-116,-174,-66.08,110.04,28.21
-901,-99,-174,-55.65,109.83,34.86
-907,-114,-177,-39.97,110.18,38.22
-923,-150,-170,-27.09,110.32,40.6
-941,-180,-126,-14.42,109.55,37.73
-959,-197,-100,1.19,110.53,31.01
-1004,-209,-114,13.65,109.76,25.76
-996,-203,-54,24.99,106.96,19.53
-1002,-180,-21,34.58,105.63,12.81
-1002,-150,-36,41.16,106.05,8.05
-999,-113,-41,41.37,104.44,7.49
-997,-77,-16,39.27,101.5,7.42
-1012,-68,-27,37.31,99.4,10.64
-1035,-86,-43,38.78,96.32,17.01
-1041,-127,-58,41.65,92.4,20.23
-1025,-149,-76,45.08,87.71,19.25
-1031,-133,-60,53.06,84.14,14.07
-1040,-96,-56,54.67,78.89,7.63
-1059,-94,-17,54.6,71.33,4.41
-1077,-100,-18,47.95,62.02,3.22
-1085,-120,-18,36.19,52.01,1.05
-1088,-116,-9,23.38,42.28,-2.87
-1083,-110,-15,10.29,32.62,-6.58
-1056,-97,-16,-0.56,23.1,-9.31
-1010,-102,-17,-11.34,13.93,-11.83
-970,-128,-46,-23.17,5.32,-12.46
-918,-160,-55,-31.01,-2.66,-12.67
-880,-203,-69,-38.15,-8.75,-12.95
-848,-246,-56,-39.34,-15.05,-16.66
-813,-281,-30,-37.03,-20.3,-22.26
-803,-306,-50,-34.3,-25.27,-28.21
-796,-324,-65,-31.36,-29.82,-34.16
-806,-311,-63,-30.8,-31.57,-39.76
-836,-247,30,-24.99,-33.32,-45.5
-948,-172,30,-9.24,-35.56,-47.46
-1081,-110,-90,10.71,-33.11,-42.14
-1133,-110,-219,26.39,-26.25,-35.49
-1120,-160,-329,30.31,-19.88,-31.57
-1085,-183,-357,25.2,-14.0,-30.03
-1106,-182,-407,16.52,-9.59,-29.4
-1116,-173,-414,2.87,-5.81,-27.58
-1088,-164,-362,-14.77,-2.8,-23.31
-1095,-167,-258,-24.57,-4.27,-19.25
-1134,-165,-185,-31.01,-5.81,-14.14
-1134,-179,-196,-38.08,-5.88,-7.63
-1095,-228,-224,-42.77,-4.9,-1.47
-1023,-271,-255,-45.85,-3.64,1.26
-947,-297,-265,-46.9,-2.94,0.84
-883,-322,-265,-44.87,-2.66,-1.33
-840,-342,-265,-38.78,-2.31,-4.83
-828,-352,-271,-29.4,-1.82,-9.1
-828,-345,-276,-17.5,-0.98,-13.02
-826,-326,-291,-5.32,0.21,-16.03
-823,-307,-300,6.51,1.19,-18.13
-826,-299,-304,17.78,1.26,-19.04
-845,-290,-299,28.42,1.96,-20.65
-870,-266,-301,36.33,2.94,-22.33
-922,-226,-294,41.16,3.64,-21.91
-946,-179,-283,40.6,4.76,-18.41
-968,-164,-268,38.36,5.53,-12.11
-987,-179,-248,32.69,6.02,-5.74
-992,-202,-227,23.73,5.04,-0.84
-983,-218,-228,15.61,3.99,2.45
-979,-229,-219,10.99,2.1,4.69
-968,-247,-218,6.02,0.0,6.16
-971,-257,-207,0.14,-1.4,6.09
-965,-247,-261,-1.4,-1.75,4.2
-965,-230,-257,3.78,-0.98,2.52
-964,-212,-290,2.94,-0.28,2.66
-975,-214,-302,4.69,1.4,3.57
-986,-215,-315,5.25,3.5,3.85
-985,-202,-312,4.9,5.39,3.71
-986,-198,-303,2.59,6.3,3.99
-978,-207,-291,0.56,6.23,4.06
-952,-227,-290,-0.98,5.46,3.92
-952,-222,-297,-3.01,4.13,3.43
-943,-213,-285,-3.71,2.94,2.38
-938,-206,-284,-3.36,2.1,2.73
-938,-212,-294,-2.03,1.68,3.22
-931,-224,-298,-1.4,1.4,3.5
-928,-219,-297,-0.49,1.26,3.01
-933,-208,-292,-0.21,1.05,2.17
-946,-205,-295,-1.05,0.42,2.52
-951,-210,-301,-1.19,-0.84,3.01
-954,-213,-295,-1.75,-1.82,3.36
-957,-210,-298,-3.29,-2.45,2.73
-965,-201,-291,-4.34,-3.64,2.45
-967,-204,-285,-7.56,-4.55,1.75
-953,-202,-288,-9.8,-5.67,1.96
-951,-210,-288,-10.43,-6.37,2.03
-956,-215,-281,-11.34,-6.51,1.82
-955,-209,-281,-11.97,-6.3,1.54
-948,-206,-272,-11.76,-6.09,1.4
-942,-214,-271,-12.95,-5.67,1.4
-935,-216,-274,-12.81,-5.53,1.33
-936,-211,-261,-11.13,-4.9,0.56
-937,-211,-280,-11.69,-4.83,0.35
-947,-212,-275,-11.97,-5.74,0.56
-956,-214,-274,-11.13,-5.74,0.35
-965,-213,-267,-11.13,-5.25,0.63
-964,-208,-260,-11.55,-4.76,1.12
-967,-208,-253,-12.25,-4.34,1.33
-976,-207,-256,-14.21,-4.27,2.1
-973,-209,-253,-15.47,-3.43,2.24
-967,-206,-243,-15.54,-3.36,2.31
-1001,-204,-272,-15.61,-2.31,2.17
-999,-199,-273,-14.77,-0.98,2.1
-1018,-190,-277,-15.26,-0.42,2.1
-1025,-178,-275,-17.57,-0.56,2.94
-1029,-185,-269,-22.61,-1.26,4.62
-1017,-191,-266,-27.93,-2.24,5.74
-1003,-206,-251,-30.94,-3.5,6.16
-1000,-232,-237,-31.01,-5.04,5.81
-1008,-265,-233,-29.75,-6.51,4.13
-1002,-270,-242,-29.96,-8.05,2.03
-1021,-267,-232,-28.0,-8.96,0.28
-1052,-248,-238,-23.52,-9.31,-1.4
-1096,-229,-242,-17.99,-8.75,-1.82
-1138,-212,-264,-14.63,-8.05,-0.35
-1122,-196,-268,-14.49,-8.47,2.31
-1122,-194,-277,-16.94,-9.1,5.74
-1133,-193,-251,-20.79,-9.94,7.77
-1093,-186,-260,-27.58,-11.48,9.52
-1096,-198,-252,-31.92,-15.82,11.62
-1051,-204,-231,-38.43,-19.81,13.09
-1019,-205,-222,-42.0,-24.5,13.23
-978,-199,-211,-41.58,-29.19,10.71
-971,-206,-186,-37.8,-33.74,7.49
-961,-214,-205,-33.67,-36.82,5.11
-954,-219,-217,-27.16,-37.73,3.08
-941,-209,-222,-20.79,-38.36,0.7
-956,-199,-252,-10.43,-38.22,-1.12
-977,-190,-273,3.01,-38.71,-1.54
-972,-182,-272,10.01,-37.45,-0.35
-957,-187,-249,14.63,-36.82,0.0
-962,-187,-225,18.83,-36.54,-0.21
-970,-151,-220,22.05,-37.73,-0.84
-962,-119,-220,24.01,-37.94,-0.7
-920,-106,-177,18.41,-40.39,3.43
-884,-126,-182,13.23,-42.7,8.82
-884,-156,-202,18.83,-43.82,10.64
-867,-165,-231,23.94,-41.65,9.87
-841,-163,-239,27.3,-38.85,8.26
-816,-149,-246,32.97,-35.84,5.32
-804,-137,-243,41.44,-31.99,2.31
-790,-129,-242,43.47,-28.35,2.59
-788,-137,-232,45.29,-24.5,3.92
-819,-153,-241,50.33,-20.23,3.85
-828,-156,-219,55.51,-14.63,2.24
-825,-148,-204,58.03,-9.38,0.63
-826,-130,-202,58.59,-5.32,-0.21
-839,-118,-145,56.35,-2.59,1.05
-856,-119,-144,49.7,0.42,3.15
-881,-125,-143,44.24,2.66,5.67
-894,-137,-144,38.57,4.69,8.05
-894,-152,-161,32.34,6.58,9.03
-900,-157,-180,28.84,7.91,8.26
-894,-151,-197,24.92,9.45,6.58
-882,-137,-184,22.75,9.94,5.11
-865,-133,-176,21.56,10.78,4.2
-853,-134,-179,22.33,12.39,2.52
-866,-142,-182,25.13,15.19,0.91
-879,-137,-165,29.54,20.02,-1.12
-894,-121,-175,32.27,25.41,-2.38
-924,-109,-176,36.82,29.54,-2.45
-953,-104,-159,40.04,31.78,-1.26
-1001,-92,-168,42.63,31.99,1.05
-1054,-68,-175,46.62,32.69,2.59
-1083,-42,-135,44.94,33.6,4.83
-1093,-28,-145,37.38,32.55,8.68
-1092,-25,-139,32.27,29.82,12.53
-1096,-33,-144,24.15,25.13,15.61
-1092,-64,-169,11.41,19.18,17.64
-1073,-82,-158,1.82,13.65,18.34
-1049,-114,-166,-2.24,10.15,16.52
-1039,-128,-174,-3.64,6.02,14.21
-1027,-134,-169,-6.79,2.66,11.41
-1013,-138,-150,-11.55,-0.63,8.47
-1009,-142,-157,-16.45,-3.92,6.58
-1007,-152,-164,-19.39,-5.46,5.39
-981,-140,-157,-23.17,-6.72,2.94
-966,-130,-173,-25.55,-7.0,0.56
-959,-130,-181,-24.78,-6.02,0.21
-965,-142,-183,-23.87,-4.76,0.7
-963,-155,-192,-23.45,-4.48,1.89
-956,-166,-186,-21.7,-3.71,2.17
-951,-170,-195,-19.74,-2.38,1.47
-963,-173,-224,-15.82,-1.61,1.26
-963,-168,-211,-11.13,-0.49,1.05
-956,-163,-205,-8.75,0.42,0.7
-965,-178,-225,-5.74,1.05,0.0
-982,-184,-222,-0.07,1.82,-0.42
-974,-206,-204,4.48,1.82,-1.05
-969,-208,-193,8.75,1.33,-1.89
-967,-194,-190,12.74,1.33,-2.24
-965,-178,-164,13.37,0.56,-1.4
-973,-158,-147,12.46,-0.7,-0.49
-972,-155,-146,11.76,-1.89,0.84
-963,-164,-144,11.48,-1.47,2.66
-959,-190,-166,12.88,-1.19,3.85
-962,-203,-167,18.13,-0.63,3.43
-963,-177,-137,22.89,0.91,0.98
-971,-130,-128,24.15,1.68,-0.63
-986,-106,-133,23.38,2.31,-0.7
-988,-121,-147,20.58,2.52,0.7
-992,-162,-157,17.99,2.24,2.31
-988,-199,-171,19.95,2.87,2.87
-962,-216,-172,26.74,5.18,1.89
-963,-194,-180,32.76,7.07,0.07
-991,-180,-169,37.59,8.05,-1.19
-993,-170,-140,40.6,8.61,-1.54
-984,-155,-144,41.44,8.68,-2.17
-974,-136,-127,40.67,8.33,-2.94
-965,-126,-127,38.01,7.63,-2.52
-960,-117,-141,35.28,6.93,-1.82
-955,-116,-134,30.94,7.56,-1.61
-958,-103,-140,22.12,6.51,-0.14
-962,-100,-156,13.16,5.11,0.98
-960,-117,-173,6.86,4.9,1.26
-949,-138,-190,2.52,3.43,1.12
-943,-159,-194,0.42,3.78,0.07
-937,-190,-193,-4.83,3.57,0.28
-940,-158,-170,-11.76,1.89,0.49
-928,-143,-179,-18.83,1.05,-2.66
-924,-163,-166,-23.45,-0.84,-3.01
-935,-326,-284,-22.89,-2.17,-1.96
-890,-186,-121,-26.53,-3.22,0.98
-873,-140,-174,-30.59,4.41,-12.74
-931,-222,-320,-39.34,-2.8,-8.33
-927,-125,-234,-40.39,3.99,-15.47
-919,-111,-200,-38.78,3.01,-17.64
-931,-121,-271,-39.06,-1.68,-10.71
-930,-145,-340,-30.38,1.4,-11.13
-916,-153,-362,-22.82,4.48,-14.56
-882,-164,-331,-16.73,4.55,-17.92
-854,-158,-252,-12.18,3.43,-21.35
-855,-225,-109,-8.47,4.2,-26.11
-871,-138,-247,-11.9,7.28,-33.74
-1031,-105,-321,6.02,12.46,-32.2
-1092,-91,-300,18.55,19.11,-32.69
-1130,-106,-251,26.18,21.07,-34.23
-1184,-135,-270,31.08,22.96,-34.65
-1214,-162,-295,35.49,27.86,-29.75
-1161,-203,-300,40.53,30.8,-22.4
-1049,-236,-267,46.76,30.45,-16.52
-945,-196,-224,52.5,26.6,-14.77
-865,-199,-195,51.59,21.21,-17.71
-906,-175,-188,46.2,20.09,-21.98
-913,-231,-188,44.03,19.32,-30.73
-920,-231,-238,40.6,19.18,-28.07
-1017,-266,-256,44.31,20.51,-24.22
-1053,-275,-242,49.77,20.65,-18.2
-1068,-269,-281,51.31,20.86,-13.93
-1084,-271,-267,54.74,19.04,-11.83
-1078,-278,-226,56.56,17.57,-12.39
-1044,-295,-210,56.07,18.48,-12.04
-1011,-275,-225,55.23,17.99,-10.36
-988,-239,-226,53.48,16.24,-8.82
-988,-203,-218,48.51,12.04,-8.19
-985,-211,-228,41.09,7.56,-7.35
-938,-210,-202,33.88,3.71,-5.11
-926,-213,-196,23.87,-0.7,-0.07
-916,-227,-195,12.95,-5.6,7.63
-939,-269,-274,7.84,-10.85,17.43
-916,-213,-242,15.4,-11.48,21.42
-856,-189,-222,17.01,-8.75,22.75
-858,-194,-240,17.92,-7.28,23.8
-873,-192,-252,21.35,-5.04,21.49
-901,-197,-248,24.64,-3.57,17.57
-937,-221,-235,24.57,-3.57,14.42
-959,-251,-231,22.96,-4.13,11.76
-957,-265,-207,24.15,-4.83,9.38
-926,-273,-188,23.31,-7.0,8.75
-906,-265,-181,21.42,-4.55,10.78
-907,-277,-202,16.45,-3.29,10.92
-899,-274,-188,14.42,-3.08,10.99
-900,-272,-200,15.54,-1.89,9.87
-907,-253,-204,19.95,-0.77,7.63
-933,-221,-193,23.52,0.14,5.6
-944,-203,-185,26.04,0.35,3.64
-956,-242,-201,26.6,0.56,2.1
-981,-277,-215,24.43,0.84,2.94
-984,-269,-207,20.86,1.33,3.29
-1018,-270,-216,16.94,1.89,2.66
-1037,-272,-191,16.24,1.96,1.89
-1031,-260,-190,15.82,1.96,0.35
-982,-230,-175,15.61,1.82,-1.54
-924,-208,-135,8.96,1.19,-0.35
-859,-193,-113,-7.07,1.05,4.69
-857,-187,-159,-29.82,0.84,11.9
-903,-180,-187,-54.81,-2.66,19.25
-945,-146,-189,-76.44,-6.51,22.26
-1031,-182,-343,-85.54,-9.94,19.46
-1092,-240,-397,-48.72,-11.62,10.29
-1010,-264,-220,-14.84,-9.66,1.61
-1011,-263,-339,-12.32,-13.3,1.68
-981,-234,-210,3.57,-12.81,0.21
-924,-176,-229,-2.17,-10.01,-1.89
-923,-144,-284,-4.48,-11.06,-1.26
-954,-169,-247,1.05,-11.13,-1.61
-947,-187,-219,0.7,-11.9,-3.01
-928,-194,-217,-0.7,-11.62,-3.64
-910,-195,-225,-2.52,-10.71,-4.62
-903,-192,-234,-4.13,-9.87,-5.95
-912,-194,-229,-5.11,-8.68,-6.02
-904,-222,-240,-5.95,-7.7,-5.53
-924,-209,-222,-7.49,-9.87,-1.47
-962,-198,-201,-12.04,-8.54,-5.04
-956,-227,-231,-14.14,-7.42,-11.83
-936,-276,-240,-10.5,-7.07,-10.92
-924,-240,-201,-6.16,-6.02,-3.15
-988,-188,-191,-8.19,-6.79,-3.36
-980,-216,-195,-9.03,-7.21,-12.6
-940,-259,-183,-7.49,-6.51,-13.58
-935,-270,-181,-9.03,-4.13,-8.89
-955,-251,-203,-13.37,-3.57,-6.23
-959,-241,-202,-15.82,-4.69,-6.72
-961,-245,-186,-18.06,-5.32,-7.0
-969,-256,-194,-19.74,-5.88,-5.88
-987,-282,-197,-17.08,-6.09,-4.97
-1000,-291,-193,-11.41,-6.72,-4.48
-983,-299,-200,-6.65,-7.49,-5.11
-960,-287,-177,-2.17,-8.68,-4.83
-981,-282,-188,-3.29,-3.5,-6.58
-965,-296,-228,-0.14,-3.85,-7.14
-932,-278,-165,6.72,-7.63,-2.03
-934,-252,-157,5.6,-5.53,0.91
-955,-234,-164,3.22,-5.04,0.21
-977,-262,-171,3.29,-4.34,-2.45
-984,-300,-205,3.85,-4.83,-5.11
-955,-305,-166,8.19,-4.69,-6.3
-949,-297,-164,11.34,-4.69,-4.06
-943,-281,-174,14.28,-3.99,-2.66
-946,-265,-144,16.38,-0.91,-2.52
-966,-241,-153,16.59,0.63,-3.01
-953,-253,-162,19.53,1.82,-2.45
-958,-274,-167,18.2,2.59,1.54
-982,-256,-163,15.89,1.96,4.69
-986,-248,-162,14.49,1.68,4.34
-965,-233,-158,9.73,-0.28,-1.54
-958,-148,-138,4.55,-3.15,-0.49
-960,-174,-124,1.19,-2.87,4.76
-951,-275,-147,-1.12,-2.1,7.42
-970,-302,-177,-2.8,-0.63,8.4
-973,-269,-156,-2.17,-0.56,8.33
-979,-231,-144,-1.68,-1.26,10.01
-985,-219,-165,-1.54,-0.84,9.73
-969,-231,-174,-2.45,0.21,8.19
-951,-231,-175,-5.67,1.26,6.65
-913,-228,-47,-13.65,6.93,5.81
-990,-197,-342,-26.39,12.46,7.56
-961,-241,-221,-8.68,-0.91,4.48
-970,-255,-172,-3.92,0.49,4.97
-947,-222,-210,-4.76,-1.05,4.9
-969,-201,-196,-0.56,1.54,2.87
-974,-203,-179,1.19,3.64,1.54
-979,-210,-200,2.73,4.76,1.61
-1001,-227,-209,4.62,6.65,0.63
-1044,-230,-246,9.24,7.49,-2.24
-1045,-252,-250,18.48,7.42,-6.02
-1019,-241,-211,22.96,7.28,-8.61
-1004,-216,-261,25.97,7.14,-9.52
-980,-218,-230,32.2,7.77,-9.8
-973,-201,-234,32.13,8.68,-7.35
-961,-194,-214,33.11,10.5,-3.99
-975,-177,-236,34.02,12.25,-1.47
-1007,-192,-251,36.68,13.58,0.07
-1035,-211,-271,39.2,14.28,1.19
-1063,-220,-306,44.31,15.05,0.91
-1062,-227,-289,52.08,14.63,-1.47
-1018,-224,-251,56.14,14.91,-3.08
-935,-213,-214,54.32,13.86,-4.41
-862,-203,-194,48.65,12.18,-4.97
-805,-225,-152,40.32,10.64,-2.38
-781,-250,-160,28.35,7.07,3.92
-776,-284,-128,18.48,2.87,10.78
-828,-279,-132,7.56,1.19,18.9
-883,-271,-132,0.21,0.56,21.7
-914,-249,-153,-5.88,0.77,20.02
-927,-246,-203,-9.8,2.17,15.47
-934,-251,-223,-10.71,4.06,10.36
-933,-256,-238,-9.66,5.88,6.65
-918,-278,-221,-7.07,8.4,3.78
-906,-284,-224,-6.37,9.31,2.87
-878,-299,-217,-4.27,10.78,3.5
-853,-303,-205,-0.98,12.74,5.81
-844,-294,-193,-1.54,13.58,7.63
-845,-272,-157,-3.08,14.49,8.61
-861,-250,-141,-5.88,15.47,8.75
-899,-258,-146,-9.03,16.24,9.17
-972,-279,-123,-11.62,14.98,10.08
-1064,-291,-140,-11.9,12.53,9.45
-1142,-330,-149,-8.12,9.52,6.51
-1185,-335,-136,-2.1,5.6,2.66
-1170,-327,-163,4.34,1.47,-1.61
-1107,-312,-180,11.48,-2.45,-4.13
-1024,-272,-202,16.66,-5.11,-4.48
-955,-231,-204,19.18,-6.79,-2.8
-913,-195,-220,19.88,-7.28,0.77
-881,-181,-213,18.34,-6.72,4.06
-858,-182,-228,14.0,-5.39,6.23
-853,-206,-238,10.01,-3.29,7.0
-866,-217,-237,6.44,-1.75,7.28
-879,-216,-239,3.85,-0.35,6.58
-879,-206,-238,1.75,1.26,5.25
-875,-203,-240,-0.14,3.36,4.13
-874,-220,-248,-1.89,4.83,4.34
-869,-242,-249,-3.92,5.46,5.11
-855,-269,-230,-7.14,5.32,5.88
-854,-278,-231,-10.43,5.18,5.74
-864,-271,-211,-10.99,5.39,3.92
-873,-245,-227,-13.09,4.69,2.03
-872,-216,-249,-14.42,4.27,-0.91
-871,-196,-269,-14.35,4.62,-4.13
-868,-189,-271,-14.91,5.95,-6.51
-851,-195,-281,-18.13,7.84,-7.42
-832,-210,-284,-21.0,8.96,-8.33
-815,-234,-287,-21.28,7.91,-9.38
-814,-250,-259,-23.66,6.58,-9.45
-825,-216,-226,-25.2,7.7,-10.85
-882,-163,-246,-22.26,8.4,-12.81
-966,-132,-263,-19.95,9.03,-12.11
-1009,-144,-294,-19.67,11.13,-11.9
-1033,-194,-318,-15.54,14.84,-12.81
-1053,-260,-334,-8.26,14.77,-15.4
-1076,-322,-320,-0.77,12.74,-16.59
-1068,-357,-275,6.72,9.38,-17.08
-1038,-354,-214,12.39,5.11,-16.24
-1031,-294,-165,14.28,1.82,-15.19
-1051,-217,-196,16.45,0.77,-15.19
-1054,-202,-236,22.47,-0.49,-17.01
-1049,-211,-262,23.8,-2.03,-19.74
-1041,-197,-327,26.11,-0.28,-23.73
-1037,-217,-341,31.71,2.87,-28.21
-1042,-243,-325,34.86,3.92,-29.54
-1022,-276,-305,38.22,4.27,-28.07
-980,-293,-273,38.22,4.2,-22.68
-926,-288,-242,35.28,2.1,-17.15
-864,-280,-224,30.87,-1.75,-14.98
-835,-268,-222,22.75,-4.55,-9.45
-821,-256,-185,13.23,-6.72,-3.92
-839,-219,-152,2.66,-7.56,0.42
-875,-185,-178,-4.55,-6.79,1.96
-889,-193,-194,-8.4,-4.76,0.56
-896,-219,-226,-16.52,-3.78,-0.84
-930,-236,-274,-21.35,-2.1,-2.52
-973,-286,-293,-19.04,-0.7,-5.25
-1001,-347,-286,-15.54,-0.49,-7.63
-1019,-381,-268,-11.69,-0.07,-9.38
-1023,-385,-256,-7.91,0.14,-9.94
-1000,-361,-240,-3.78,-0.7,-9.38
-956,-325,-222,-1.05,-2.73,-7.91
-912,-298,-215,-1.54,-4.62,-5.25
-886,-282,-209,-4.97,-5.74,-1.61
-878,-271,-221,-9.24,-6.02,1.33
-880,-269,-230,-12.18,-5.88,3.08
-889,-271,-242,-14.07,-5.11,3.29
-898,-285,-263,-13.93,-3.64,2.1
-906,-299,-286,-12.88,-2.45,0.28
-906,-312,-297,-10.64,-1.4,-1.68
-904,-318,-303,-7.21,-0.91,-3.01
-891,-315,-305,-3.43,-0.84,-4.27
-861,-300,-291,-0.42,-1.05,-4.48
-829,-266,-240,-1.19,-1.05,-2.87
-822,-236,-172,-7.7,0.07,0.91
-884,-230,-262,-17.15,0.28,5.46
-955,-255,-293,-13.02,2.38,5.25
-998,-324,-280,-4.06,4.9,1.61
-1044,-384,-304,0.63,4.76,-1.89
-1081,-417,-291,9.24,4.27,-6.16
-1085,-406,-258,18.69,3.08,-10.22
-1049,-367,-239,24.29,1.47,-12.25
-1001,-324,-216,26.74,-0.35,-11.34
-966,-291,-203,26.6,-1.82,-9.38
-949,-268,-214,24.08,-3.36,-7.07
-933,-263,-231,21.35,-3.78,-5.18
-938,-278,-246,20.02,-4.06,-3.92
-931,-276,-241,18.69,-4.06,-4.06
-915,-258,-237,16.1,-3.22,-4.69
-911,-248,-240,13.02,-2.1,-5.6
-905,-256,-235,10.71,-0.98,-6.16
-907,-270,-233,7.91,-0.56,-5.67
-916,-286,-236,4.9,-0.35,-4.27
-924,-299,-231,2.94,-0.49,-2.8
-927,-313,-230,1.68,-1.05,-1.68
-934,-313,-230,0.63,-1.47,-0.84
-942,-313,-239,-0.14,-1.82,-0.49
-944,-309,-236,-0.07,-2.17,-0.63
-927,-297,-229,-0.63,-2.24,-1.05
-910,-292,-234,-1.54,-1.89,-1.19
-906,-305,-245,-2.31,-1.47,-0.56
-912,-320,-251,-2.73,-1.26,0.49
-916,-325,-257,-2.8,-1.4,1.19
