acc_x[mg],acc_y[mg],acc_z[mg],gyro_x[dps],gyro_y[dps],gyro_z[dps]
-999,-109,51,-0.21,-0.49,-0.07
-998,-110,53,-0.07,-0.7,0.0
-996,-108,52,-0.07,-0.84,0.14
-997,-107,54,0.07,-0.98,0.14
-997,-106,55,0.35,-1.05,-0.07
-997,-108,56,0.49,-1.05,-0.14
-996,-108,55,0.56,-1.12,-0.14
-995,-108,57,0.63,-1.19,-0.14
-996,-106,58,0.56,-1.12,-0.14
-996,-107,58,0.49,-1.05,-0.28
-995,-107,57,0.28,-0.84,-0.28
-996,-106,59,0.14,-0.7,-0.42
-997,-106,58,0.14,-0.56,-0.49
-997,-109,54,0.28,-0.49,-0.49
-998,-113,53,0.14,-0.7,-0.28
-996,-111,52,0.14,-0.98,0.0
-997,-108,54,0.28,-1.26,0.14
-996,-105,56,0.49,-1.47,0.14
-997,-104,58,0.56,-1.54,-0.07
-996,-103,58,0.56,-1.4,-0.28
-995,-102,59,0.35,-1.12,-0.49
-994,-103,61,0.21,-0.91,-0.7
-997,-106,59,0.14,-0.56,-0.91
-997,-109,57,0.14,-0.28,-0.98
-996,-111,54,-0.07,-0.28,-0.84
-996,-110,56,-0.07,-0.42,-0.77
-997,-110,54,0.14,-0.7,-0.7
-998,-114,54,0.28,-1.05,-0.56
-997,-112,55,0.28,-1.26,-0.28
-995,-108,55,0.21,-1.47,0.0
-997,-108,59,0.21,-1.47,0.07
-995,-105,59,0.28,-1.4,-0.07
-995,-105,60,0.28,-1.33,-0.14
-995,-105,60,0.21,-1.05,-0.28
-995,-107,59,0.14,-0.77,-0.28
-996,-110,56,0.14,-0.7,-0.28
-997,-109,55,-0.14,-0.7,-0.07
-996,-109,57,-0.14,-0.84,0.21
-996,-107,56,-0.21,-0.91,0.35
-997,-108,56,-0.35,-0.98,0.42
-996,-107,57,-0.28,-1.26,0.42
-996,-105,59,-0.35,-1.19,0.49
-996,-105,60,-0.42,-0.98,0.28
-996,-106,62,-0.49,-0.63,0.21
-995,-106,61,-0.7,-0.14,0.28
-996,-106,62,-0.84,0.28,0.21
-996,-108,61,-1.05,0.7,0.28
-994,-106,58,-1.26,0.98,0.42
-997,-107,60,-1.4,0.91,0.42
-996,-105,59,-1.47,0.91,0.42
-996,-105,56,-1.47,0.91,0.28
-995,-108,63,-1.4,1.05,0.21
-999,-102,47,-0.91,1.54,0.21
-995,-106,56,-1.47,1.26,0.21
-997,-107,53,-1.47,1.33,0.14
-997,-108,51,-1.26,1.33,0.35
-998,-107,48,-1.12,0.91,0.42
-998,-108,50,-0.77,0.28,0.56
-998,-107,49,-0.49,-0.21,0.63
-998,-106,51,-0.42,-0.56,0.84
-997,-106,54,-0.49,-0.56,0.98
-996,-106,54,-0.56,-0.42,1.05
-996,-105,52,-0.49,-0.42,1.05
-997,-105,51,-0.56,-0.42,1.19
-996,-104,52,-0.56,-0.42,1.26
-997,-105,52,-0.49,-0.63,1.19
-998,-104,50,-0.28,-0.7,1.19
-996,-104,51,0.0,-0.84,1.19
-997,-105,51,-0.07,-0.98,1.47
-996,-103,54,-0.07,-1.05,1.68
-997,-101,57,-0.07,-0.98,1.68
-997,-103,58,-0.21,-0.84,1.75
-997,-102,54,-0.35,-0.56,1.82
-996,-105,53,-1.12,-0.49,2.24
-998,-107,52,-1.61,-0.56,2.45
-999,-109,53,-2.03,-0.7,3.22
-996,-106,52,-1.96,-0.98,3.85
-996,-104,53,-1.82,-0.98,4.34
-997,-103,51,-1.68,-0.91,4.69
-998,-103,51,-1.47,-0.84,4.97
-997,-102,50,-1.33,-0.7,5.32
-998,-100,49,-1.05,-0.77,5.53
-1001,-100,49,-0.77,-1.05,5.74
-999,-96,46,-0.49,-1.54,6.02
-999,-93,44,-0.56,-1.96,6.3
-998,-94,44,-0.91,-2.59,6.86
-998,-89,50,-1.05,-3.08,7.0
-998,-84,53,-0.91,-3.29,7.21
-997,-80,56,-0.56,-3.29,6.86
-997,-77,56,-0.28,-3.08,6.72
-998,-78,57,-0.42,-3.01,6.16
-997,-80,58,-0.21,-2.94,5.81
-999,-78,58,0.07,-2.94,5.67
-998,-80,59,0.42,-3.22,5.39
-998,-78,60,0.84,-3.36,5.18
-998,-75,61,1.05,-3.5,4.9
-998,-77,60,0.77,-3.22,4.69
-997,-77,62,0.35,-2.73,4.55
-998,-77,65,0.0,-2.31,4.55
-997,-76,66,-0.07,-1.75,4.48
-998,-72,64,-0.07,-1.26,4.41
-998,-70,63,0.0,-1.05,4.2
-998,-74,65,-0.07,-0.84,4.06
-997,-75,63,-0.14,-0.42,4.13
-998,-74,61,-0.42,-0.14,4.34
-999,-72,61,-0.42,-0.14,4.48
-1000,-73,57,-0.07,-0.14,4.69
-1000,-75,53,0.07,-0.42,4.97
-998,-72,53,0.21,-0.98,5.11
-1001,-70,56,0.28,-1.47,5.25
-1001,-67,58,0.42,-1.61,5.46
-1000,-66,59,0.56,-1.68,5.6
-998,-62,60,0.35,-1.75,5.53
-999,-59,64,0.21,-1.4,5.32
-1000,-59,65,0.0,-0.91,5.11
-999,-60,66,-0.14,-0.56,4.69
-999,-58,67,0.0,-0.14,4.41
-997,-57,62,0.0,0.21,4.27
-998,-57,61,0.0,0.35,3.78
-1001,-59,61,0.0,0.35,3.15
-1000,-58,60,0.07,0.21,3.08
-999,-59,58,0.14,0.07,3.22
-1000,-60,57,0.28,-0.07,3.43
-1002,-60,56,0.35,-0.28,3.85
-1001,-59,55,0.21,-0.42,4.27
-999,-59,55,0.42,-0.56,4.48
-1002,-62,55,0.84,-0.91,4.9
-1003,-61,53,0.91,-1.61,5.46
-1002,-58,56,0.91,-2.31,5.88
-997,-50,60,1.19,-2.94,6.09
-999,-47,61,1.54,-3.01,5.88
-999,-45,62,1.54,-2.94,5.39
-999,-43,63,1.47,-2.73,5.39
-998,-41,64,1.61,-2.59,5.32
-1000,-40,66,1.4,-2.03,4.83
-1000,-40,64,0.91,-1.4,4.34
-999,-37,66,0.42,-1.05,4.13
-998,-36,68,0.28,-0.7,3.71
-997,-39,66,0.21,-0.21,3.22
-998,-37,66,0.14,0.07,2.8
-999,-38,66,0.21,0.35,2.24
-999,-40,66,0.35,0.7,1.82
-999,-39,65,0.63,0.91,1.75
-1000,-41,63,1.12,1.12,1.82
-1001,-43,56,0.98,1.05,1.96
-1004,-46,57,0.49,0.98,1.89
-1002,-41,59,0.28,0.84,2.17
-1000,-38,60,0.49,0.63,2.45
-1000,-37,62,0.77,0.63,2.45
-1001,-37,61,1.05,0.7,2.24
-1000,-37,61,1.26,0.77,2.17
-1000,-37,59,1.12,0.91,2.03
-1001,-35,59,1.05,0.98,1.96
-1000,-34,57,0.98,1.12,1.89
-1001,-34,55,0.91,1.12,1.61
-1002,-37,53,0.91,0.91,1.47
-1004,-39,53,0.7,0.56,1.61
-1001,-37,55,0.84,0.28,1.96
-1000,-36,57,1.05,0.21,2.17
-1002,-38,59,1.12,0.28,2.17
-1003,-39,62,1.05,0.56,2.38
-1000,-37,63,1.05,0.84,3.01
-1000,-32,63,1.33,1.33,3.29
-999,-31,63,1.33,1.75,3.15
-1000,-33,60,1.26,2.03,3.22
-1001,-33,59,1.33,2.17,3.43
-1003,-35,54,1.12,2.31,3.5
-1005,-35,52,0.56,2.17,3.64
-1003,-34,53,-0.14,2.1,4.27
-1001,-31,50,-0.63,1.82,4.83
-1000,-27,54,-0.98,1.82,4.97
-1001,-23,55,-0.98,1.75,4.76
-1000,-20,54,-0.63,1.68,4.55
-1000,-20,54,-0.28,1.61,4.27
-1000,-20,53,-0.35,2.03,4.27
-999,-19,49,-0.42,2.73,3.92
-1001,-21,48,-0.63,3.08,3.43
-1003,-26,47,-0.77,3.36,3.29
-1004,-27,42,-0.77,3.22,3.71
-1004,-27,44,-0.63,2.8,4.41
-1003,-26,40,-0.56,2.8,4.97
-1004,-25,41,-0.63,2.24,5.25
-1003,-23,45,-0.49,1.82,5.46
-1002,-16,45,-0.21,1.61,5.67
-1001,-14,47,0.35,1.33,5.81
-1001,-14,47,1.12,1.19,6.02
-1001,-12,47,1.47,1.47,6.16
-1001,-12,48,1.82,1.82,6.3
-1001,-10,41,1.89,2.17,6.58
-1001,-7,38,1.82,2.17,6.51
-1003,-5,41,1.89,1.89,6.37
-1001,-2,38,2.1,1.61,6.3
-1000,0,37,2.24,1.47,5.81
-1001,-1,34,2.17,1.19,5.11
-1003,-4,34,2.1,0.7,4.9
-1005,-4,34,2.03,0.0,5.04
-1001,-1,33,2.1,-0.7,5.32
-1001,0,33,2.03,-1.26,5.25
-1003,0,38,1.68,-1.54,5.18
-1003,0,42,1.61,-1.68,5.11
-1001,1,44,1.47,-1.75,5.18
-1001,5,44,1.19,-1.75,5.11
-1003,6,49,0.84,-1.89,4.9
-1001,7,50,0.42,-1.4,4.9
-998,11,50,0.21,-0.63,4.69
-999,10,51,0.0,-0.07,3.99
-1002,7,50,-0.35,0.63,3.29
-1000,5,47,-0.84,1.05,3.22
-1001,3,48,-1.12,1.33,3.29
-1003,2,47,-0.98,1.82,3.5
-1002,4,42,-1.05,2.17,3.78
-1002,3,41,-1.05,2.1,3.92
-1002,5,38,-0.98,1.82,4.13
-1003,5,40,-0.77,1.26,4.27
-1004,4,41,-0.42,0.84,4.62
-1002,7,40,-0.21,0.56,5.04
-1001,10,43,0.0,0.63,5.11
-998,14,39,0.21,1.12,4.97
-1000,18,37,0.07,1.47,4.69
-1000,21,38,0.07,1.54,4.27
-1002,19,35,0.42,1.33,3.85
-1003,16,31,0.91,1.05,3.71
-1002,16,29,0.98,0.63,3.92
-1005,12,29,1.12,0.28,4.13
-1003,10,27,0.98,0.0,4.69
-1001,15,26,0.84,-0.77,5.04
-1005,18,31,0.84,-1.54,5.32
-1004,19,32,0.98,-2.24,5.6
-1001,24,32,1.05,-2.8,5.81
-997,33,36,0.98,-3.01,5.53
-997,38,40,1.05,-2.87,4.83
-999,40,42,1.05,-2.45,4.06
-1000,41,44,0.84,-1.75,3.15
-1001,38,45,0.63,-0.77,2.24
-1000,36,42,0.28,0.21,1.75
-995,36,36,-0.07,0.49,1.26
-997,35,36,-0.07,0.21,0.63
-1001,33,38,0.14,-0.21,0.14
-1001,30,37,0.49,-0.35,-0.28
-1000,29,34,0.91,-0.56,-0.35
-1005,24,34,1.19,-0.63,-0.28
-1006,20,33,1.26,-0.56,-0.14
-1002,19,28,1.05,-0.91,0.21
-1002,22,30,0.98,-1.47,0.77
-1005,22,36,0.77,-1.96,1.12
-1001,27,37,0.77,-2.17,1.33
-999,30,42,0.98,-2.31,1.4
-999,31,45,1.19,-2.17,1.26
-1000,29,45,1.19,-1.61,1.12
-1000,29,45,0.84,-1.33,1.4
-997,33,43,0.56,-0.91,1.54
-1000,34,43,0.56,-0.63,1.12
-1002,32,36,0.63,-0.35,0.63
-1001,31,32,0.42,-0.42,0.42
-1001,32,30,0.35,-0.91,0.42
-1001,34,28,0.42,-1.47,0.49
-1002,37,31,0.49,-2.24,0.35
-1001,35,36,0.84,-2.8,0.21
-1003,34,35,1.26,-3.01,-0.07
-1001,33,34,1.33,-3.5,-0.28
-1001,30,37,1.4,-3.71,-0.21
-1001,29,42,1.47,-4.34,-0.07
-1000,28,43,1.68,-4.55,0.14
-1000,28,48,1.68,-4.55,0.35
-1000,29,50,1.47,-4.2,0.35
-1001,27,55,1.4,-3.57,0.49
-1001,29,53,1.05,-2.8,0.77
-1000,33,51,0.63,-2.24,0.84
-1002,34,51,0.63,-1.96,0.7
-999,35,50,0.77,-1.75,0.7
-998,36,47,0.7,-1.47,0.49
-997,38,50,0.42,-1.05,-0.07
-1001,38,49,0.35,-0.56,-0.49
-1000,38,47,0.28,-0.35,-0.7
-1000,38,46,0.07,-0.42,-0.98
-1000,38,45,-0.21,-0.56,-1.47
-999,39,45,-0.21,-0.77,-1.82
-997,39,43,0.07,-0.98,-2.24
-999,35,40,0.07,-1.4,-2.8
-1003,31,42,-0.14,-1.82,-3.29
-1001,31,43,0.0,-2.03,-3.22
-1001,32,43,0.28,-2.24,-3.15
-1000,32,42,0.56,-2.66,-3.5
-1002,29,39,0.56,-3.15,-4.13
-1002,27,38,0.7,-3.92,-4.48
-1002,28,38,0.98,-4.9,-4.69
-1003,25,45,1.05,-5.67,-4.83
-1003,21,49,1.4,-5.74,-4.48
-998,20,50,1.68,-5.53,-3.92
-1001,19,52,1.75,-5.18,-3.36
-1002,19,51,1.54,-4.83,-2.94
-1002,20,50,1.19,-5.04,-2.52
-1001,23,53,0.84,-5.39,-2.24
-999,24,57,0.77,-5.39,-2.24
-999,25,60,1.19,-5.32,-2.24
-1003,20,62,1.47,-5.18,-2.03
-1000,18,61,1.26,-4.55,-1.68
-998,23,56,1.05,-4.13,-1.4
-998,27,59,0.77,-4.06,-1.4
-1001,28,54,0.63,-4.13,-1.96
-1000,28,55,0.49,-4.62,-2.38
-999,29,55,0.28,-5.04,-2.38
-997,30,51,0.0,-5.18,-2.59
-999,32,52,-0.56,-5.74,-3.43
-1000,31,58,-0.77,-6.23,-4.27
-997,33,60,-0.56,-6.44,-4.69
-993,35,62,0.0,-6.51,-5.53
-999,28,67,0.56,-6.09,-6.65
-1001,21,60,0.7,-5.67,-7.28
-1000,14,59,0.63,-6.02,-7.35
-1002,10,55,0.21,-7.14,-7.35
-1003,6,63,-0.35,-8.47,-7.28
-1003,4,71,-0.21,-9.52,-6.86
-1000,3,78,0.77,-10.15,-6.37
-1002,-3,78,0.7,-9.38,-5.18
-1001,-1,74,0.28,-9.24,-4.69
-1001,0,80,-0.14,-9.59,-4.41
-1001,3,86,0.21,-10.01,-3.99
-1000,5,89,1.12,-9.87,-3.36
-999,2,93,1.68,-8.82,-2.94
-998,2,91,1.61,-7.35,-2.59
-1000,1,92,1.26,-6.16,-2.17
-999,4,95,1.05,-5.04,-1.61
-996,10,95,1.33,-4.06,-1.33
-999,7,95,1.75,-3.08,-1.54
-1000,4,91,1.75,-1.89,-1.47
-998,3,88,1.4,-1.05,-1.12
-1000,3,86,0.91,-0.56,-0.7
-999,1,81,0.49,-0.28,-0.35
-1001,1,80,0.07,-0.42,-0.14
-1001,3,83,-0.28,-0.84,0.28
-999,7,84,-0.14,-0.98,0.49
-998,9,85,0.14,-0.91,0.42
-998,9,85,0.28,-0.91,0.28
-998,8,85,0.07,-0.98,0.14
-996,10,85,0.07,-1.05,0.0
-1000,8,85,0.21,-1.19,-0.21
-1000,6,85,-0.14,-1.33,-0.21
-1000,7,85,-0.28,-1.33,-0.14
-997,10,89,-0.21,-1.26,-0.21
-996,10,91,0.14,-1.12,-0.42
-997,10,88,0.42,-0.84,-0.91
-998,7,88,0.35,-0.77,-1.26
-999,4,87,0.28,-0.77,-1.4
-1000,2,89,0.14,-1.05,-1.4
-1000,1,89,0.14,-1.19,-1.33
-997,2,87,0.21,-1.12,-0.91
-999,2,89,0.07,-0.91,-0.63
-1000,2,89,-0.14,-0.98,-0.63
-997,5,89,-0.07,-1.19,-0.49
-997,7,90,0.14,-1.26,-0.49
-998,6,87,0.21,-0.84,-0.56
-999,5,87,-0.07,-0.56,-0.56
-999,6,87,-0.21,-0.28,-0.42
-998,7,88,-0.07,-0.14,-0.28
-997,8,89,0.07,0.14,-0.28
-1000,7,84,-0.07,0.63,-0.56
-1000,6,85,-0.49,0.49,-0.77
-1000,7,80,-0.7,0.21,-0.7
-997,6,81,-0.84,-0.42,-0.7
-997,5,82,-0.56,-0.63,-0.91
-997,4,81,-0.28,-0.7,-0.84
-1001,1,84,0.0,-0.77,-0.7
-1002,0,85,0.14,-0.56,-0.42
-1000,3,84,0.07,-0.7,0.0
-1000,3,83,0.14,-0.98,0.07
-1002,2,84,0.21,-1.33,0.0
-1000,1,85,0.35,-1.68,0.14
-997,4,84,0.63,-2.03,0.42
-999,6,88,0.63,-2.17,0.49
-997,8,91,0.49,-1.82,0.42
-997,11,92,0.49,-1.33,0.28
-998,12,92,0.56,-0.84,0.0
-997,11,89,0.35,-0.49,-0.28
-1000,11,83,0.21,-0.49,-0.77
-1002,8,81,0.07,-0.91,-1.12
-1000,7,78,0.07,-1.26,-1.12
-999,7,77,0.28,-1.61,-0.91
-999,8,79,0.35,-1.96,-0.7
-998,9,83,0.42,-2.17,-0.77
-997,11,86,0.77,-2.17,-0.91
-998,8,89,0.77,-2.17,-1.19
-998,8,90,0.49,-1.89,-1.19
-997,5,92,0.42,-1.54,-1.19
-998,2,93,0.35,-1.26,-1.26
-999,0,92,0.28,-1.12,-1.05
-999,-2,93,0.0,-1.19,-0.84
-998,-2,93,-0.14,-1.26,-0.49
-999,-2,95,-0.14,-1.19,-0.28
-998,-2,92,-0.07,-1.19,0.0
-998,0,92,0.0,-1.05,0.21
-997,4,93,0.07,-0.91,0.35
-998,7,90,0.35,-0.7,0.21
-998,8,87,0.49,-0.49,0.14
-999,9,84,0.35,-0.49,0.0
-999,9,85,0.42,-0.56,-0.14
-998,11,82,0.7,-0.7,-0.14
-999,10,82,1.05,-0.91,-0.21
-1000,10,82,1.05,-1.12,-0.49
-1001,6,85,1.12,-1.54,-0.63
-999,5,83,1.12,-1.82,-0.56
-998,6,85,0.98,-1.96,-0.42
-1000,2,88,0.77,-2.1,-0.49
-996,4,87,0.56,-1.96,-0.14
-998,6,93,0.35,-1.89,0.0
-997,8,96,0.28,-1.54,-0.14
-995,11,94,0.14,-1.19,-0.35
-997,10,97,0.14,-0.84,-0.77
-998,8,96,0.21,-0.63,-1.05
-999,4,95,0.35,-0.49,-1.19
-998,4,94,0.07,-0.42,-1.12
-997,3,95,-0.28,-0.07,-1.12
-999,2,93,-0.21,0.28,-1.12
-998,2,92,-0.14,0.42,-0.91
-998,1,89,0.07,0.49,-0.77
-998,1,88,0.28,0.42,-0.7
-999,-1,87,0.35,0.14,-0.63
-1000,0,87,0.28,-0.21,-0.21
-1000,1,90,0.21,-0.49,0.07
-998,3,92,0.28,-0.42,0.21
-998,4,92,0.28,-0.35,0.14
-998,4,92,0.21,-0.21,0.14
-999,4,91,0.14,-0.07,0.14
-997,4,91,0.07,0.07,0.0
-998,4,87,0.14,0.14,-0.07
-1000,2,87,0.0,-0.07,0.0
-1000,4,85,-0.07,-0.35,0.07
-998,6,85,0.07,-0.56,0.21
-1000,7,85,0.14,-0.7,0.14
-1000,6,84,0.21,-0.77,0.21
-1000,7,85,0.07,-1.12,0.14
-998,10,88,0.21,-1.54,-0.07
-998,10,88,0.49,-1.61,-0.35
-997,9,89,0.42,-1.54,-0.7
-998,7,91,0.35,-1.19,-0.91
-1000,3,88,0.35,-1.12,-0.77
-998,0,86,0.21,-1.33,-0.63
-999,1,87,0.14,-1.61,-0.35
-999,3,89,0.14,-1.68,-0.07
-997,6,92,0.21,-1.61,0.0
-997,6,93,0.28,-1.4,-0.14
-997,8,93,0.28,-1.26,-0.42
-996,10,93,0.14,-1.12,-0.56
-997,10,93,0.07,-0.91,-0.77
-997,8,93,-0.21,-0.42,-1.19
-997,7,93,-0.42,-0.21,-1.47
-998,4,91,-0.49,0.0,-1.75
-999,1,87,-0.56,0.07,-1.61
-1001,0,86,-0.28,-0.42,-1.26
-999,-1,85,-0.28,-0.63,-0.91
-999,0,86,-0.28,-0.91,-0.56
-1000,3,87,-0.14,-1.12,-0.28
-999,6,90,-0.14,-1.33,-0.21
-998,8,91,0.0,-1.33,-0.28
-997,10,89,0.0,-1.12,-0.49
-995,10,89,-0.21,-0.91,-0.77
-998,8,89,-0.28,-0.77,-0.98
-999,4,87,-0.21,-0.91,-1.05
-999,3,87,0.0,-0.98,-0.98
-999,1,86,0.0,-1.12,-0.84
-1001,0,87,0.0,-1.26,-0.84
-1000,0,90,0.14,-1.47,-0.7
-998,0,89,0.14,-1.61,-0.35
-998,2,90,0.07,-1.82,-0.21
-998,4,94,0.0,-1.89,-0.21
-998,5,92,0.07,-1.89,-0.21
-997,4,93,0.07,-1.89,-0.28
-998,6,95,0.0,-1.68,-0.28
-996,7,95,0.0,-1.26,-0.35
-996,8,95,0.07,-0.91,-0.49
-997,8,94,0.21,-0.56,-0.84
-998,5,93,0.21,-0.28,-1.12
-999,1,90,0.07,-0.21,-1.19
-999,3,90,-0.07,-0.28,-1.12
-998,2,91,-0.07,-0.49,-0.91
-998,1,90,0.14,-0.56,-0.84
-998,0,93,0.14,-0.63,-0.63
-1000,-1,95,0.07,-0.56,-0.42
-999,0,95,0.0,-0.28,0.0
-998,3,95,-0.21,-0.14,0.28
-998,3,95,-0.42,-0.07,0.21
-998,5,96,-0.63,-0.07,-0.07
-998,5,94,-0.35,-0.14,-0.21
-998,4,92,-0.21,0.0,-0.42
-998,2,90,-0.42,0.07,-0.49
-998,3,90,-0.28,0.28,-0.56
-998,3,90,-0.07,0.28,-0.56
-1000,1,87,0.14,0.35,-0.56
-1000,1,86,0.14,0.28,-0.35
-1000,2,85,0.07,-0.14,-0.14
-1000,3,88,0.35,-0.56,-0.07
-999,2,91,0.56,-0.84,0.0
-998,1,91,0.77,-1.05,0.0
-999,1,89,0.77,-1.05,0.0
-999,1,90,0.56,-1.19,0.0
-999,5,91,0.7,-1.19,0.07
-998,4,90,0.84,-1.12,0.07
-998,4,89,0.91,-1.12,-0.07
-999,4,89,0.84,-1.05,-0.07
-998,3,91,0.84,-1.12,0.07
-998,3,89,0.91,-1.05,0.21
-997,5,91,0.77,-1.12,0.28
-998,2,94,0.63,-0.91,0.35
-997,4,96,0.49,-0.63,0.49
-997,5,95,0.49,-0.35,0.42
-997,5,95,0.49,-0.07,0.21
-998,3,93,0.21,0.14,0.07
-997,5,91,0.14,0.28,0.14
-997,6,93,0.07,0.28,0.21
-998,4,91,0.07,0.42,0.35
-999,4,90,-0.07,0.56,0.56
-999,6,91,-0.28,0.63,0.63
-998,6,91,-0.14,0.7,0.49
-999,4,87,0.0,0.7,0.56
-1000,5,86,-0.07,0.35,0.49
-998,7,87,-0.21,0.14,0.21
-998,10,88,-0.07,0.0,0.0
-998,7,88,0.07,0.0,-0.14
-999,4,88,0.07,0.07,-0.21
-998,3,86,0.0,0.07,0.0
-1000,5,86,-0.14,-0.14,0.07
-999,5,87,-0.07,-0.42,0.07
-998,5,87,0.28,-0.63,0.07
-998,6,86,0.42,-0.84,0.07
-998,7,84,0.35,-0.84,0.07
-998,8,84,0.14,-0.98,0.07
-999,9,87,0.0,-1.26,0.0
-997,10,88,0.28,-1.12,-0.21
-996,11,88,0.49,-0.98,-0.49
-998,7,87,0.63,-0.84,-0.77
-999,7,86,0.49,-0.91,-0.7
-998,8,88,0.49,-1.12,-0.63
-999,5,90,0.63,-1.05,-0.63
-998,6,91,0.63,-0.7,-0.49
-998,5,90,0.35,-0.42,-0.49
-999,3,89,-0.07,-0.28,-0.42
-998,6,90,-0.14,-0.35,-0.35
-997,8,89,0.07,-0.35,-0.28
-998,7,91,0.14,-0.21,-0.42
-998,5,91,0.21,0.07,-0.56
-998,6,88,0.14,0.14,-0.42
-998,5,88,0.07,0.21,-0.42
-998,5,89,-0.14,0.28,-0.49
-999,7,90,-0.14,0.42,-0.49
-997,8,88,-0.07,0.49,-0.42
-998,8,86,-0.21,0.49,-0.56
-1000,7,84,-0.21,0.49,-0.63
-999,5,83,-0.28,0.21,-0.56
-1000,6,83,-0.21,-0.07,-0.35
-999,6,84,0.0,-0.21,-0.35
-999,7,85,0.0,-0.42,-0.35
-998,7,86,0.14,-0.35,-0.49
-999,7,88,0.21,-0.28,-0.63
-997,6,85,0.14,-0.21,-0.56
-1000,4,83,0.07,-0.28,-0.7
-1000,3,86,0.0,-0.63,-0.7
-998,4,84,0.0,-0.84,-0.49
-998,5,85,-0.07,-0.98,-0.35
-998,5,87,0.07,-0.91,-0.35
-999,4,85,0.21,-0.91,-0.35
-998,5,85,0.21,-1.12,-0.28
-996,6,88,0.28,-1.19,-0.21
-997,9,91,0.35,-1.05,-0.28
-998,7,91,0.35,-0.63,-0.42
-997,6,90,0.35,-0.28,-0.49
-997,6,89,0.07,-0.14,-0.56
-999,5,90,-0.07,-0.07,-0.77
-998,3,89,-0.28,0.0,-0.98
-998,3,89,-0.35,0.07,-0.91
-998,5,91,-0.35,0.28,-0.77
-998,6,90,-0.28,0.56,-0.91
-998,5,90,0.35,0.56,-1.33
-1000,4,91,0.42,0.56,-1.19
-996,4,90,0.07,1.26,-1.05
-1000,0,88,-0.28,1.54,-1.05
-1000,1,88,-0.49,1.61,-1.05
-1000,2,86,-0.77,1.61,-0.91
-1000,1,83,-0.84,1.26,-0.91
-999,3,81,-0.84,1.12,-0.7
-998,5,82,-0.98,1.12,-0.63
-1000,6,82,-0.91,1.19,-0.77
-999,6,84,-0.56,1.33,-0.77
-999,5,80,-0.49,1.26,-0.77
-1001,5,80,-0.63,1.26,-0.98
-998,7,78,-0.98,1.19,-1.19
-999,6,76,-1.26,1.4,-1.4
-1000,5,75,-1.26,1.47,-1.4
-1001,2,73,-1.12,1.05,-1.26
-1000,0,74,-1.05,0.56,-0.98
-999,1,77,-0.84,0.21,-0.63
-1000,2,78,-0.49,0.14,-0.42
-999,4,79,-0.28,0.28,-0.35
-998,5,80,-0.21,0.42,-0.49
-1000,4,80,-0.07,0.56,-0.7
-998,5,81,-0.07,0.56,-0.77
-998,2,83,-0.07,0.84,-0.91
-998,1,81,0.0,1.12,-0.98
-1000,-1,80,-0.14,1.19,-0.98
-1000,-1,82,-0.14,1.33,-0.63
-998,2,82,-0.07,1.54,-0.42
-999,3,83,0.0,1.96,-0.49
-998,4,84,0.07,2.52,-0.56
-997,5,82,0.07,3.15,-0.63
-997,8,85,0.07,4.06,-0.98
-996,11,84,0.28,4.97,-1.61
-998,5,88,0.84,6.09,-2.03
-996,12,81,0.91,7.35,-2.38
-998,8,85,1.26,8.19,-3.01
-997,6,84,2.24,9.1,-3.22
-997,4,78,3.64,9.94,-3.64
-999,-4,69,4.83,10.22,-4.13
-1006,-13,53,4.97,9.45,-4.69
-1007,-18,49,4.2,7.91,-4.27
-1008,-8,35,3.5,5.95,-3.36
-1001,-4,43,2.87,3.36,-2.73
-1004,-5,44,2.66,2.24,-2.52
-1004,-4,42,2.45,1.68,-2.31
-1002,-6,45,2.03,1.4,-1.82
-1002,-4,47,1.61,1.05,-1.33
-1001,-1,51,1.4,0.77,-1.05
-999,0,56,1.4,0.7,-1.19
-1001,0,59,1.12,1.12,-1.54
-1000,-2,61,0.7,1.61,-1.68
-999,-2,62,0.35,2.1,-1.68
-1000,-3,62,0.14,2.45,-1.82
-1000,-4,63,-0.21,2.94,-1.89
-1001,-7,62,-0.56,3.64,-1.96
-1002,-9,64,-0.91,4.41,-1.75
-1000,-8,64,-1.19,5.46,-1.47
-1000,-8,65,-1.4,6.51,-1.26
-999,-6,61,-1.47,7.49,-1.12
-999,-6,55,-1.54,8.4,-1.19
-1001,-6,52,-1.61,8.68,-1.4
-1001,-4,48,-1.75,8.89,-1.68
-999,-2,44,-1.47,8.68,-1.89
-1001,-6,40,-1.19,8.33,-2.17
-1005,-10,40,-0.98,7.98,-2.31
-1002,-14,42,-0.42,8.12,-1.96
-1004,-10,21,0.07,7.84,-1.26
-1004,-15,20,0.0,6.3,-0.84
-1007,-17,20,-0.35,4.97,-0.7
-1004,-13,22,-0.07,3.43,0.0
-1004,-11,28,0.56,2.52,0.63
-1004,-10,32,0.98,2.52,0.91
-1002,-8,31,1.19,3.08,1.26
-1001,-7,33,1.26,3.36,1.47
-1001,-10,35,1.47,3.64,1.4
-1003,-3,27,1.68,3.5,1.4
-1002,-5,37,1.33,3.22,1.61
-1003,-7,38,1.54,3.43,1.4
-1003,-7,37,1.68,4.06,1.54
-1002,-9,34,1.68,4.55,1.82
-1001,-7,31,1.75,4.69,2.03
-1002,-5,27,1.82,4.48,1.75
-1004,-3,24,1.96,4.13,1.33
-1003,-2,25,1.96,3.78,1.19
-1004,-2,26,2.17,3.78,1.33
-1002,-1,22,1.89,4.13,1.4
-1002,-3,21,1.47,4.2,1.47
-1004,-3,21,1.19,4.41,1.68
-1004,-3,20,1.05,4.34,2.03
-1003,-3,19,1.26,4.13,2.31
-1004,-4,17,1.05,4.06,2.38
-1002,-2,14,0.7,4.27,2.31
-1005,-3,11,0.56,4.2,2.31
-1003,0,8,1.05,3.29,2.03
-1005,2,7,0.84,2.8,2.38
-998,10,8,0.84,2.66,2.03
-1001,8,10,1.05,2.59,1.47
-1006,4,10,1.26,3.01,0.84
-1004,0,9,1.12,3.15,1.12
-1001,3,10,1.47,3.08,1.54
-1001,6,13,1.89,3.15,1.61
-1000,5,19,2.24,3.5,1.26
-1000,6,20,2.73,4.13,1.05
-1001,7,27,3.36,4.69,0.91
-1000,7,31,4.2,5.88,0.7
-997,9,29,4.9,7.14,0.42
-999,7,21,5.32,7.84,-0.35
-1002,6,15,5.46,7.84,-1.12
-1001,7,6,5.25,7.14,-1.75
-1003,5,-1,5.25,5.6,-2.24
-1006,-1,-6,4.9,3.99,-2.52
-1006,-4,-4,4.69,2.45,-2.66
-1005,-2,-1,4.27,1.61,-1.96
-1000,1,-1,3.71,1.82,-1.47
-998,8,-2,3.22,2.66,-1.47
-998,8,-3,2.38,3.43,-2.24
-1000,7,-4,1.54,4.34,-3.57
-1001,4,-2,0.77,5.32,-4.55
-1003,2,0,0.35,6.44,-4.76
-1000,0,-4,-0.21,7.49,-4.69
-999,-1,-8,-0.98,7.98,-5.11
-998,0,-11,-2.1,8.82,-5.95
-997,4,-12,-3.15,9.24,-7.14
-999,6,-8,-3.64,9.52,-8.4
-1000,8,-6,-3.99,10.22,-9.45
-998,8,-1,-4.55,11.48,-10.5
-993,11,-6,-5.39,13.51,-11.9
-993,9,-6,-6.58,15.47,-14.0
-995,4,-7,-7.7,17.64,-16.38
-996,0,-9,-8.96,20.02,-18.41
-998,-8,-15,-9.45,21.91,-19.46
-1000,-20,-16,-9.45,23.45,-19.88
-999,-29,-35,-9.52,24.64,-19.74
-1001,-37,-50,-9.38,24.5,-19.67
-1003,-47,-53,-9.38,23.52,-19.53
-1006,-55,-57,-9.1,22.68,-18.83
-1004,-60,-64,-8.61,21.98,-17.15
-1002,-63,-69,-7.91,21.14,-15.12
-1005,-72,-75,-7.0,20.37,-13.3
-1010,-83,-80,-5.74,18.97,-10.78
-1010,-90,-82,-4.41,17.57,-7.42
-1008,-83,-99,-3.01,16.52,-3.99
-1005,-91,-100,-2.31,13.72,-0.98
-1007,-85,-104,-1.54,11.27,1.26
-1009,-81,-111,-0.7,7.98,3.71
-1010,-70,-107,0.35,4.13,5.53
-1007,-62,-105,1.12,1.05,7.07
-997,-49,-103,1.68,-1.33,7.7
-998,-43,-93,1.82,-3.01,7.84
-1000,-39,-86,1.47,-3.64,7.98
-995,-29,-81,1.19,-3.64,7.77
-995,-26,-74,1.26,-3.43,7.0
-998,-26,-71,0.98,-3.01,5.81
-998,-28,-66,0.56,-1.89,4.69
-997,-31,-63,0.21,-0.77,4.34
-994,-30,-65,0.14,0.42,4.13
-995,-32,-69,0.0,1.54,3.43
-1001,-40,-69,-0.28,2.31,2.73
-1001,-43,-72,-0.49,3.08,3.15
-998,-38,-78,-0.42,3.29,3.78
-1000,-37,-74,-0.28,3.64,3.71
-999,-34,-77,-0.21,4.27,3.5
-999,-33,-79,-0.28,4.41,3.5
-999,-32,-79,-0.35,4.48,3.57
-998,-28,-86,-0.7,4.41,3.43
-998,-27,-87,-0.77,3.99,3.01
-998,-26,-91,-0.56,3.5,2.73
-1000,-27,-91,-0.42,3.08,2.38
-998,-25,-95,-0.42,2.73,2.38
-996,-25,-95,-0.42,2.24,2.1
-1001,-27,-90,-0.14,1.89,1.68
-999,-27,-92,0.0,1.75,1.47
-996,-25,-93,0.14,1.26,1.4
-999,-24,-89,0.21,0.77,0.91
-1000,-25,-89,0.28,0.77,0.63
-998,-24,-90,0.42,0.63,0.63
-997,-25,-92,0.42,0.49,0.42
-998,-26,-92,0.35,0.35,-0.21
-1000,-29,-93,0.42,-0.21,-0.63
-1001,-31,-92,0.56,-0.7,-0.28
-1001,-31,-93,0.91,-0.98,0.21
-1001,-33,-89,0.98,-1.05,0.35
-1001,-34,-90,0.91,-0.56,0.56
-998,-29,-93,0.77,-0.63,1.12
-997,-26,-92,0.77,-0.98,1.19
-997,-23,-89,0.84,-1.26,0.91
-998,-22,-87,0.91,-1.4,0.56
-998,-22,-88,1.12,-1.4,0.28
-997,-23,-86,1.12,-1.26,0.0
-999,-26,-87,0.91,-0.84,-0.14
-998,-26,-91,0.63,-0.7,-0.14
-999,-27,-89,0.49,-0.91,0.07
-998,-24,-89,0.56,-0.84,0.14
-998,-24,-91,0.56,-0.91,-0.28
-1000,-27,-87,0.7,-0.98,-0.56
-1001,-28,-91,0.63,-1.05,-0.21
-998,-26,-89,0.42,-1.4,0.0
-997,-24,-89,0.42,-1.61,-0.14
-998,-23,-88,0.35,-1.82,-0.35
-1000,-24,-88,0.21,-1.75,-0.49
-998,-21,-86,0.14,-1.4,-0.63
-999,-24,-84,0.28,-1.26,-0.91
-1001,-30,-84,0.49,-1.05,-0.84
-1000,-31,-85,0.21,-0.98,-0.28
-998,-29,-85,0.07,-0.84,0.07
-997,-25,-86,-0.07,-0.84,0.0
-998,-23,-86,0.0,-0.91,-0.21
-999,-26,-85,0.21,-0.91,-0.35
-999,-28,-86,0.21,-0.7,-0.35
-999,-29,-91,0.21,-0.49,-0.21
-1000,-29,-91,-0.07,-0.63,-0.21
-1001,-27,-89,-0.07,-1.05,-0.07
-998,-23,-91,0.07,-1.4,0.14
-997,-21,-91,0.21,-1.75,0.07
-998,-23,-91,0.35,-1.75,-0.28
-1000,-27,-88,0.21,-1.89,-0.35
-1002,-30,-87,0.35,-2.03,0.0
-998,-26,-87,0.56,-2.03,0.42
-999,-28,-87,0.7,-1.96,0.56
-1001,-31,-88,0.63,-1.96,0.77
-1000,-27,-89,0.56,-2.24,1.12
-997,-24,-83,0.49,-2.38,1.12
-998,-24,-78,0.56,-2.31,0.91
-1001,-24,-78,0.77,-2.03,0.98
-999,-24,-80,0.77,-1.54,0.98
-997,-22,-84,0.63,-1.33,0.91
-999,-22,-86,0.49,-1.33,0.56
-1000,-23,-86,0.35,-1.47,0.35
-1000,-24,-85,0.28,-1.61,0.42
-998,-22,-83,0.42,-1.68,0.49
-999,-22,-84,0.42,-1.47,0.42
-1000,-24,-85,0.35,-1.4,0.28
-1003,-24,-83,0.21,-1.4,0.56
-999,-24,-84,0.14,-1.33,0.98
-998,-22,-82,0.14,-1.26,1.19
-997,-20,-81,0.07,-1.19,1.05
-998,-19,-81,0.0,-0.84,0.77
-1000,-21,-78,-0.14,-0.42,0.42
-998,-21,-81,-0.07,-0.14,0.49
-997,-20,-82,-0.07,-0.07,0.35
-998,-23,-85,-0.21,-0.07,0.0
-1000,-25,-85,-0.35,-0.28,-0.14
-1000,-22,-87,-0.28,-0.56,0.21
-999,-20,-87,-0.14,-0.84,0.28
-1000,-21,-84,0.0,-0.98,0.07
-1001,-22,-84,0.0,-0.84,0.14
-1000,-23,-86,0.0,-0.77,0.35
-1000,-22,-85,0.0,-0.77,0.49
-998,-19,-84,0.14,-0.77,0.49
-998,-19,-85,0.28,-1.05,0.21
-1001,-20,-82,0.35,-1.19,0.07
-999,-20,-83,0.42,-1.05,0.14
-998,-18,-85,0.28,-0.98,0.14
-1000,-18,-84,0.35,-0.98,-0.14
-999,-19,-85,0.42,-0.98,-0.14
-998,-20,-84,0.49,-0.98,-0.07
-1000,-21,-84,0.42,-0.98,0.0
-999,-21,-84,0.21,-0.91,0.14
-1000,-20,-84,0.21,-0.98,0.35
-998,-21,-83,0.14,-1.26,0.35
-1000,-23,-82,0.21,-1.33,0.35
-999,-23,-80,0.07,-1.19,0.77
-998,-20,-80,0.07,-1.05,1.05
-998,-18,-80,0.21,-0.77,0.84
-998,-18,-79,0.21,-0.77,0.63
-999,-17,-81,0.42,-0.84,0.63
-998,-17,-80,0.35,-0.84,0.49
-999,-17,-82,-0.07,-0.63,0.14
-1000,-16,-78,-0.14,-0.56,-0.14
-1000,-16,-79,0.0,-0.42,-0.21
-1000,-19,-81,0.21,-0.07,-0.28
-999,-18,-83,0.21,0.07,-0.14
-999,-17,-85,0.07,0.21,-0.07
-998,-19,-86,0.07,0.21,-0.21
-1000,-20,-86,0.0,0.0,-0.21
-999,-20,-86,0.28,-0.42,-0.07
-1001,-21,-85,0.42,-0.7,0.0
-1002,-22,-85,0.42,-0.63,0.14
-999,-22,-86,0.14,-0.77,0.42
-1000,-21,-82,-0.07,-1.05,0.63
-999,-18,-80,-0.07,-1.05,0.77
-999,-16,-79,-0.21,-1.05,0.7
-1000,-16,-77,-0.14,-0.84,0.63
-998,-15,-80,-0.07,-0.35,0.56
-998,-14,-81,-0.07,-0.07,0.35
-997,-12,-83,0.0,0.14,-0.07
-999,-13,-87,0.0,0.14,-0.49
-1001,-18,-88,0.0,-0.07,-0.7
-1001,-20,-87,-0.14,-0.28,-0.56
-999,-17,-89,-0.14,-0.56,-0.21
-998,-16,-87,-0.07,-0.84,-0.21
-1000,-17,-83,0.0,-0.98,-0.28
-1000,-18,-84,0.07,-0.98,0.07
-999,-16,-84,-0.07,-0.91,0.35
-998,-18,-81,-0.21,-0.84,0.14
-1001,-20,-79,-0.21,-0.63,0.0
-1000,-20,-81,-0.21,-0.49,0.21
-1000,-19,-82,-0.28,-0.56,0.42
-999,-17,-81,-0.42,-0.63,0.42
-999,-17,-82,-0.35,-0.56,0.42
-999,-17,-85,-0.14,-0.56,0.49
-997,-13,-85,-0.21,-0.56,0.42
-999,-11,-84,-0.14,-0.49,0.0
-1001,-13,-84,0.0,-0.35,-0.28
-998,-14,-86,0.07,-0.28,-0.21
-999,-13,-87,-0.07,-0.21,-0.21
-1001,-17,-87,-0.21,-0.21,-0.21
-999,-17,-90,-0.07,-0.35,0.0
-1001,-19,-88,-0.28,-0.7,0.28
-1001,-19,-86,-0.28,-0.91,0.56
-999,-15,-82,-0.14,-0.91,0.84
-998,-13,-79,0.07,-0.77,0.84
-999,-12,-80,0.21,-0.42,0.63
-1000,-14,-78,0.21,-0.14,0.49
-999,-16,-78,0.28,0.14,0.21
-999,-19,-78,0.28,0.35,0.21
-1001,-22,-78,0.42,0.7,0.35
-1001,-27,-78,0.49,1.12,1.12
-1003,-25,-83,0.63,1.26,2.38
-999,-19,-84,0.7,1.05,3.29
-998,-12,-89,0.21,1.33,3.64
-999,-5,-92,0.07,1.47,3.78
-999,0,-98,-0.35,1.4,3.71
-997,5,-100,-0.84,1.19,3.22
-998,9,-99,-0.56,0.63,2.38
-997,7,-102,-0.14,-0.21,1.47
-997,2,-102,0.21,-1.05,0.63
-997,-4,-97,0.49,-1.82,-0.07
-998,-9,-94,0.7,-2.45,-0.56
-998,-12,-89,0.98,-2.94,-0.91
-999,-19,-82,1.12,-3.15,-1.26
-999,-22,-78,1.33,-3.08,-1.61
-998,-23,-76,1.54,-3.01,-1.82
-1000,-25,-74,1.75,-3.08,-1.75
-1001,-25,-73,1.96,-2.94,-1.33
-1002,-22,-75,2.03,-2.8,-0.63
-1001,-19,-79,2.45,-2.94,0.28
-999,-18,-81,2.1,-2.94,0.42
-1000,-14,-84,1.54,-2.59,0.28
-1001,-12,-82,1.26,-2.45,0.56
-1001,-9,-80,0.98,-2.45,1.12
-1000,-8,-81,0.84,-2.31,1.54
-1001,-8,-79,0.56,-2.17,2.1
-1000,-5,-79,0.21,-2.1,2.66
-995,0,-76,-0.63,-1.54,2.66
-998,1,-75,-1.33,-0.56,1.96
-999,3,-72,-1.54,-0.07,1.33
-996,3,-74,-1.89,0.63,1.12
-998,1,-77,-2.31,1.19,0.7
-999,0,-78,-2.59,1.54,0.28
-1000,-2,-83,-2.8,1.75,0.14
-998,-4,-88,-3.01,1.75,0.0
-1001,-7,-88,-3.22,1.54,-0.28
-1001,-8,-89,-3.01,1.26,-0.21
-998,-7,-88,-2.66,0.84,-0.21
-1000,-8,-91,-2.31,0.77,-0.49
-1000,-9,-91,-1.89,0.49,-0.77
-1002,-12,-90,-1.47,0.0,-0.91
-1001,-14,-93,-0.7,-0.49,-0.63
-999,-13,-93,-0.42,-1.05,-0.35
-999,-12,-93,-0.35,-1.61,-0.28
-998,-7,-92,-0.14,-2.1,-0.21
-999,-5,-88,0.14,-2.59,-0.35
-998,-4,-85,0.49,-2.8,-0.63
-999,-4,-83,0.56,-2.8,-0.84
-998,-3,-81,0.63,-2.73,-0.84
-1002,-6,-81,1.19,-2.59,-0.7
-999,-8,-82,1.54,-2.8,-0.35
-1000,-9,-84,1.47,-2.73,-0.42
-999,-7,-82,1.26,-2.8,-0.49
-999,-6,-78,1.12,-2.66,-0.35
-999,-5,-77,0.91,-2.24,-0.42
-1000,-3,-76,0.49,-1.75,-0.56
-997,-2,-77,0.42,-1.4,-0.56
-999,-2,-74,0.21,-1.19,-0.56
-999,-4,-75,-0.07,-0.77,-0.7
-1000,-4,-76,-0.21,-0.28,-0.7
-999,-5,-77,-0.28,0.07,-0.7
-999,-7,-79,-0.28,0.49,-0.77
-1001,-9,-82,-0.28,0.63,-0.77
-1000,-12,-84,-0.35,0.56,-0.63
-1001,-10,-86,-0.56,0.49,-0.21
-1000,-10,-84,-0.7,0.21,0.14
-1000,-7,-81,-0.42,0.07,0.28
-1000,-8,-81,-0.21,0.0,0.21
-1000,-8,-82,-0.07,0.21,0.14
-999,-7,-82,-0.28,0.35,0.21
-998,-6,-82,-0.35,0.35,0.21
-999,-4,-84,-0.42,0.28,0.14
-999,-5,-84,-0.42,0.07,-0.07
-1000,-6,-86,-0.21,-0.14,-0.14
-999,-7,-86,-0.07,-0.35,0.0
-999,-6,-87,0.0,-0.49,0.0
-999,-7,-86,0.0,-0.77,-0.07
-1000,-8,-82,-0.14,-0.91,-0.14
-999,-8,-81,-0.14,-0.77,-0.07
-999,-7,-81,-0.07,-0.84,0.07
-999,-7,-82,-0.07,-0.84,0.0
-999,-5,-82,-0.21,-0.63,-0.14
-999,-6,-81,-0.28,-0.7,-0.14
-998,-7,-78,-0.28,-0.63,-0.14
-999,-6,-78,-0.35,-0.35,-0.07
-999,-4,-80,-0.28,-0.14,-0.07
-998,-4,-81,-0.35,-0.07,-0.21
-999,-5,-83,-0.49,0.0,-0.49
-1000,-7,-85,-0.42,0.0,-0.56
-999,-8,-85,-0.35,-0.35,-0.28
-999,-8,-86,-0.07,-0.7,-0.14
-999,-8,-87,0.14,-1.05,-0.07
-999,-8,-86,0.14,-1.26,0.0
-1000,-8,-82,0.14,-1.47,0.07
-1000,-8,-81,0.42,-1.61,0.49
-1002,-8,-82,0.91,-1.68,0.91
-1001,-14,-86,1.26,-1.96,1.4
-1001,-14,-89,1.54,-2.45,1.96
-1000,-15,-91,1.89,-3.15,2.52
-1006,-13,-94,2.52,-3.99,3.22
-997,-8,-89,2.52,-4.9,3.92
-998,-1,-85,2.8,-5.18,3.78
-999,1,-80,3.29,-5.32,3.57
-998,1,-78,3.64,-5.46,3.36
-1002,-2,-74,3.57,-5.25,3.36
-1000,0,-73,3.36,-4.76,3.71
-998,2,-74,3.01,-4.69,3.92
-1000,1,-73,2.87,-4.55,3.78
-1001,2,-71,2.73,-4.62,3.64
-1000,5,-73,2.66,-4.55,3.5
-997,8,-67,2.52,-4.2,2.94
-999,10,-67,2.31,-3.57,2.31
-999,9,-67,2.03,-3.01,1.89
-999,9,-67,1.54,-2.52,1.61
-998,10,-68,1.19,-2.31,1.33
-1001,8,-69,0.98,-2.1,0.91
-999,5,-71,0.56,-1.96,0.7
-998,6,-72,0.21,-1.54,0.42
-999,9,-70,0.14,-1.4,0.14
-1001,8,-70,0.28,-1.26,-0.21
-998,6,-71,0.49,-1.19,-0.35
-1000,6,-73,0.56,-1.33,-0.42
-1000,8,-71,0.7,-1.61,-0.7
-1000,6,-72,0.77,-1.82,-1.05
-1003,0,-71,0.7,-1.89,-1.05
-1004,-2,-71,0.42,-1.75,-0.56
-1004,-4,-68,0.07,-1.68,0.07
-1004,-3,-67,0.0,-1.33,0.7
-999,1,-68,0.07,-1.33,1.12
-998,3,-66,0.35,-1.33,1.19
-1002,4,-66,0.42,-1.12,0.91
-1001,3,-67,0.42,-0.98,0.98
-1000,6,-71,0.56,-0.98,1.26
-1000,3,-72,0.56,-1.26,1.61
-1000,3,-71,0.7,-1.82,1.82
-1001,2,-71,0.56,-1.82,1.96
-1003,1,-72,0.77,-2.1,2.52
-1005,-1,-74,1.05,-2.8,3.5
-1005,-1,-75,1.26,-3.71,4.76
-1001,0,-76,1.54,-4.55,5.74
-1001,4,-70,1.61,-5.25,6.44
-1002,11,-67,1.82,-5.6,6.86
-1000,14,-64,1.96,-5.6,6.93
-997,19,-62,2.03,-5.46,6.72
-997,24,-60,2.17,-5.18,6.09
-994,28,-58,1.68,-4.48,5.25
-997,28,-56,1.19,-3.57,4.13
-997,28,-54,1.12,-2.87,3.43
-996,28,-58,0.91,-2.31,2.66
-995,27,-57,0.49,-1.68,1.47
-999,22,-55,0.0,-0.98,0.7
-1001,21,-56,0.07,-0.49,0.56
-1000,20,-59,0.21,-0.35,0.63
-1000,17,-63,0.07,-0.35,0.63
-1001,18,-63,-0.14,-0.56,0.7
-1000,21,-65,-0.28,-0.91,0.91
-998,25,-66,-0.07,-1.26,0.7
-1000,22,-67,-0.14,-1.47,0.14
-1001,23,-66,-0.28,-1.68,-0.21
-1000,23,-64,-0.28,-1.82,-0.35
-1000,25,-62,-0.14,-1.89,-0.49
-999,24,-62,0.14,-1.82,-0.7
-1001,20,-61,0.28,-1.89,-0.77
-1002,15,-63,0.21,-1.89,-0.63
-1001,17,-63,0.21,-1.96,-0.35
-999,20,-60,0.21,-2.17,-0.28
-1000,19,-57,0.49,-2.17,-0.42
-1002,17,-57,0.49,-2.1,-0.35
-1001,18,-57,0.49,-1.96,-0.21
-1000,20,-57,0.49,-1.82,-0.21
-1001,19,-57,0.63,-1.96,-0.14
-1001,20,-59,0.84,-1.89,-0.14
-999,21,-58,0.77,-1.89,-0.21
-1000,19,-57,0.77,-1.89,-0.21
-1001,20,-57,0.49,-1.82,-0.14
-1000,21,-57,0.28,-1.82,0.0
-1001,21,-54,0.28,-1.89,0.07
-1002,19,-54,0.28,-1.75,0.14
-999,21,-57,0.21,-1.47,0.35
-1001,20,-55,0.0,-1.47,0.42
-1001,20,-56,0.0,-1.4,0.42
-1001,22,-59,0.14,-1.47,0.42
-1001,22,-61,-0.21,-1.68,0.35
-1002,22,-57,-0.21,-1.75,0.07
-1001,23,-57,-0.14,-1.68,0.07
-1000,22,-57,-0.14,-1.68,0.0
-1002,18,-54,0.0,-1.68,0.0
-1002,21,-56,0.07,-1.68,0.42
-1000,23,-57,0.14,-1.82,0.49
-999,22,-52,0.14,-1.75,0.0
-999,22,-53,0.14,-1.47,-0.28
-1000,23,-54,0.14,-1.26,-0.28
-1001,23,-53,0.0,-1.19,-0.49
-1000,24,-55,0.14,-1.12,-0.77
-1001,23,-56,0.28,-1.33,-0.77
-1000,22,-55,0.35,-1.33,-0.84
-1000,23,-56,0.21,-1.19,-0.84
-1000,25,-55,0.14,-1.12,-0.98
-1000,23,-53,0.21,-1.12,-1.12
-1002,19,-50,0.21,-0.91,-1.05
-1001,17,-51,0.21,-0.49,-0.84
-1001,17,-53,0.0,-0.21,-0.56
-1001,18,-53,-0.21,0.07,-0.35
-999,21,-54,0.0,0.0,-0.28
-1000,23,-55,0.07,-0.28,-0.56
-1000,20,-56,0.14,-0.28,-0.84
-1001,21,-56,-0.07,-0.35,-0.98
-1001,22,-56,-0.07,-0.56,-0.84
-1002,22,-56,0.07,-0.63,-0.77
-1002,19,-57,0.14,-0.91,-0.77
-1003,17,-58,0.07,-0.91,-0.56
-1003,19,-56,-0.07,-0.98,-0.21
-1000,20,-54,0.07,-1.05,0.0
-999,21,-53,0.14,-1.26,-0.07
-1002,22,-52,0.21,-1.4,-0.14
-1002,19,-50,0.42,-1.26,-0.21
-998,20,-53,0.49,-1.12,-0.28
-999,22,-52,0.42,-0.84,-0.63
-1000,22,-51,0.49,-0.7,-1.12
-1001,17,-47,0.63,-0.56,-1.26
-1005,21,-63,1.75,0.49,-1.33
-999,16,-49,0.42,-0.35,-0.91
-1003,20,-59,0.42,0.0,-1.05
-1001,19,-54,0.63,-0.49,-0.63
-1003,17,-54,0.63,-0.49,-0.35
-1001,17,-53,1.05,-0.35,-0.14
-999,20,-58,0.63,-0.28,0.14
-1001,25,-56,0.42,-0.21,-0.07
-1000,21,-52,0.28,-0.35,-0.42
-1002,20,-54,0.21,-0.42,-0.7
-1000,21,-54,0.0,-0.14,-0.49
-1001,21,-56,0.07,-0.07,-0.49
-1000,21,-60,0.28,-0.14,-0.42
-1001,18,-61,0.28,-0.56,-0.28
-1000,21,-59,0.28,-0.91,-0.21
-1000,22,-56,0.28,-1.19,-0.35
-1000,21,-56,0.56,-1.26,-0.63
-1002,18,-56,0.77,-1.4,-0.7
-1002,17,-57,0.63,-1.47,-0.49
-999,20,-57,0.42,-1.47,-0.42
-999,21,-54,0.49,-1.54,-0.56
-1001,20,-54,0.7,-1.4,-0.84
-999,19,-55,0.91,-1.47,-0.98
-999,18,-53,0.91,-1.68,-0.84
-1001,17,-54,0.91,-1.61,-0.7
-999,19,-53,0.77,-1.61,-0.63
-1000,20,-52,0.7,-1.54,-0.77
-1001,19,-54,0.84,-1.33,-0.98
-1003,16,-54,0.77,-1.4,-0.98
-1002,17,-53,0.77,-1.47,-0.77
-1002,18,-52,0.49,-1.54,-0.56
-1002,18,-50,0.35,-1.54,-0.42
-1000,18,-48,0.42,-1.47,-0.35
-1001,19,-50,0.42,-1.33,-0.21
-1002,18,-51,0.28,-1.12,-0.28
-1002,17,-50,0.14,-0.98,-0.35
-1001,17,-49,0.14,-0.91,-0.35
-1001,18,-48,0.21,-0.77,-0.14
-1001,21,-51,-0.07,-0.35,-0.07
-999,22,-51,-0.28,-0.14,-0.14
-1000,23,-54,-0.35,-0.07,-0.21
-1000,24,-55,-0.21,-0.14,-0.35
-1002,21,-58,-0.07,-0.28,-0.42
-1001,19,-59,-0.21,-0.56,-0.56
-1003,19,-57,-0.28,-0.7,-0.35
-1002,21,-57,-0.14,-1.05,-0.21
-1000,20,-54,0.07,-1.4,-0.21
-1000,19,-54,0.28,-1.47,-0.35
-1003,19,-52,0.35,-1.4,-0.49
-1000,19,-53,0.28,-1.33,-0.49
-1001,18,-52,0.14,-1.4,-0.42
-1002,18,-50,0.0,-1.4,-0.35
-1001,18,-48,-0.28,-1.26,-0.42
-1002,19,-45,-0.28,-1.12,-0.56
-1001,21,-46,-0.21,-0.77,-0.63
-1000,19,-47,-0.07,-0.56,-0.77
-1001,17,-49,0.07,-0.35,-0.91
-1001,16,-49,0.07,-0.21,-0.91
-1001,15,-50,0.0,0.07,-0.77
-1001,16,-54,0.0,0.42,-0.42
-1001,18,-55,-0.14,0.42,-0.28
-1002,19,-55,-0.07,0.28,-0.28
-1001,17,-55,-0.28,0.07,-0.14
-1002,19,-56,-0.56,-0.07,0.0
-1001,21,-54,-0.63,-0.21,0.14
-1000,22,-54,-0.56,-0.28,0.21
-1001,21,-55,-0.49,-0.14,0.0
-1003,20,-54,-0.56,0.0,-0.14
-1000,21,-55,-0.35,0.28,-0.07
-999,23,-54,-0.21,0.35,-0.07
-1000,21,-55,-0.28,0.21,-0.28
-1000,23,-55,-0.28,0.21,-0.42
-1000,21,-53,-0.35,0.07,-0.63
-999,22,-52,-0.35,0.07,-0.84
-999,19,-52,-0.35,0.07,-1.12
-999,16,-51,-0.21,0.07,-1.33
-1002,19,-51,0.07,0.0,-1.12
-1001,13,-50,-0.21,0.28,-0.84
-1002,15,-50,-0.28,0.77,-0.91
-1000,13,-51,-0.28,0.84,-0.7
-1002,14,-54,-0.21,0.91,-0.42
-1001,16,-54,-0.21,0.98,-0.49
-1000,17,-55,-0.35,0.98,-0.42
-1001,20,-55,-0.49,1.12,-0.35
-1000,23,-54,-0.56,1.4,-0.49
-999,24,-54,-0.49,1.54,-0.77
-998,26,-56,-0.77,1.96,-1.19
-998,27,-54,-1.33,2.45,-1.82
-998,26,-53,-1.54,3.15,-2.52
-1001,22,-54,-1.33,3.64,-2.59
-1001,18,-58,-1.12,3.99,-2.31
-999,17,-56,-1.33,4.34,-2.52
-999,16,-59,-1.68,5.04,-2.87
-1002,11,-59,-1.54,5.53,-2.87
-1006,4,-64,-1.47,5.95,-2.38
-1005,0,-69,-1.33,5.74,-1.19
-1006,3,-73,-1.12,5.18,0.28
-1000,9,-75,-1.26,4.41,1.12
-1000,14,-75,-1.19,3.71,1.19
-1000,17,-73,-1.26,3.29,1.05
-1001,19,-72,-1.19,3.22,1.05
-998,22,-70,-1.05,3.15,0.91
-1000,24,-68,-0.84,3.43,0.84
-999,21,-68,-0.56,3.85,0.7
-999,20,-66,-0.42,4.27,0.49
-999,18,-68,-0.28,4.97,0.21
-999,15,-70,-0.21,5.53,0.07
-1001,14,-68,-0.07,5.88,0.14
-994,12,-60,0.7,6.65,0.14
-1002,18,-86,0.91,7.07,-0.07
-999,14,-77,0.07,6.79,-0.14
-996,16,-72,-0.14,7.07,-0.35
-1000,22,-85,0.28,8.12,-0.56
-996,14,-68,-0.07,8.68,-0.56
-1003,20,-82,-0.21,10.43,-0.49
-997,21,-89,-0.56,11.13,-0.42
-996,17,-97,-0.77,10.85,-0.7
-1001,23,-102,-0.84,9.66,-0.98
-997,17,-98,-1.89,9.31,-1.12
-997,20,-88,-1.68,9.52,-1.47
-997,21,-88,-0.98,10.99,-1.82
-993,22,-91,-1.12,12.46,-1.68
-996,22,-102,-0.91,13.51,-2.1
-998,17,-101,-1.05,13.72,-2.45
-998,15,-101,-1.12,13.72,-2.66
-997,12,-101,-0.98,13.86,-2.66
-997,10,-105,-0.77,14.21,-2.31
-995,12,-110,-0.77,14.56,-2.24
-995,9,-113,-0.42,14.21,-1.96
-999,11,-109,0.35,13.72,-1.4
-998,10,-117,0.56,13.3,-1.05
-996,8,-116,0.84,13.16,-0.56
-997,8,-114,1.4,13.93,-0.14
-999,9,-118,2.66,15.05,0.7
-997,10,-124,3.01,15.26,1.82
-993,5,-136,3.36,14.91,3.01
-991,9,-144,3.36,14.0,3.57
-995,12,-145,2.73,13.02,3.43
-995,9,-143,2.8,12.46,3.5
-993,13,-150,2.52,12.74,3.43
-990,13,-157,1.75,12.39,3.5
-991,18,-165,1.19,11.83,3.22
-993,20,-168,0.49,9.8,2.87
-995,23,-168,0.91,7.77,2.94
-991,28,-167,1.12,5.6,3.22
-988,27,-168,1.33,3.78,3.01
-990,28,-167,1.47,2.8,2.45
-988,28,-168,1.33,2.03,1.61
-986,27,-165,1.05,0.91,0.56
-989,24,-160,0.91,-0.14,-0.28
-992,17,-153,0.77,-0.56,-0.7
-992,16,-152,0.7,-0.42,-0.63
-991,18,-149,0.63,-0.14,-0.14
-990,19,-151,0.7,0.07,0.0
-989,20,-154,0.98,-0.28,-0.14
-989,19,-154,1.05,-0.63,-0.49
-990,18,-156,1.12,-0.91,-0.84
-989,18,-160,1.05,-1.33,-1.05
-990,19,-159,0.84,-1.75,-1.47
-993,20,-154,0.98,-2.17,-1.4
-992,19,-155,1.19,-2.52,-0.91
-992,20,-156,1.33,-3.08,-0.42
-992,18,-152,0.98,-3.36,-0.35
-993,19,-154,0.49,-3.01,-0.35
-991,20,-152,0.35,-3.08,-0.28
-990,22,-153,0.49,-3.64,-0.28
-989,25,-154,0.56,-4.13,-0.77
-990,22,-155,0.35,-4.41,-1.4
-991,16,-143,0.35,-4.69,-1.54
-995,18,-148,0.14,-3.85,-1.05
-992,20,-147,0.21,-3.78,-0.91
-992,19,-139,0.56,-3.71,-0.7
-991,21,-149,0.56,-3.15,-0.84
-987,24,-156,0.49,-3.5,-1.4
-988,26,-149,0.35,-3.85,-2.17
-990,27,-153,0.42,-4.27,-3.29
-989,28,-154,0.91,-5.18,-4.06
-992,24,-154,1.26,-5.88,-4.62
-989,20,-146,1.61,-6.58,-5.11
-991,22,-155,1.82,-6.65,-5.53
-989,24,-155,1.96,-7.84,-6.44
-995,16,-149,2.38,-9.1,-7.21
-1000,5,-140,2.94,-10.15,-6.72
-997,5,-139,3.57,-10.08,-5.32
-994,2,-131,3.71,-9.8,-4.41
-1001,-5,-124,3.15,-8.68,-3.57
-1002,-7,-121,2.17,-7.07,-1.96
-995,-4,-121,1.26,-5.88,-0.28
-995,0,-119,0.63,-5.04,0.77
-994,3,-114,0.21,-4.2,0.98
-993,9,-115,0.14,-3.29,0.77
-994,10,-116,0.42,-2.8,0.63
-993,11,-119,0.63,-2.17,0.35
-995,11,-126,0.91,-1.68,0.14
-995,9,-127,1.12,-1.68,0.28
-997,7,-131,1.26,-1.54,0.49
-994,8,-134,1.19,-1.54,0.7
-995,11,-135,0.77,-1.47,0.7
-995,12,-134,0.56,-1.61,0.56
-996,15,-135,0.35,-1.96,0.49
-993,18,-131,0.07,-2.1,0.28
-991,19,-130,-0.07,-1.96,-0.42
-993,18,-127,0.14,-1.89,-0.98
-994,16,-127,0.42,-2.03,-1.4
-992,16,-131,0.49,-2.17,-1.82
-993,12,-131,0.49,-2.31,-2.17
-993,15,-129,0.56,-2.52,-2.38
-992,15,-129,0.56,-2.73,-2.87
-993,15,-130,0.56,-3.01,-3.71
-996,10,-127,0.42,-3.36,-4.2
-996,6,-125,0.49,-3.43,-4.06
-997,3,-122,0.7,-3.5,-3.64
-999,-2,-119,0.77,-3.15,-2.94
-998,-2,-122,0.84,-2.45,-1.96
-995,0,-122,0.63,-2.31,-1.19
-996,2,-122,0.35,-2.31,-0.98
-997,3,-118,0.21,-2.45,-1.12
-997,4,-116,0.49,-2.45,-0.84
-993,7,-117,0.7,-1.89,-0.63
-993,6,-116,0.42,-1.19,-0.77
-994,4,-117,0.28,-0.56,-0.98
-999,0,-115,0.07,0.0,-0.63
-996,0,-119,-0.14,0.49,0.21
-993,2,-120,-0.35,0.63,0.56
-996,3,-120,-0.49,0.77,0.21
-997,3,-119,-0.42,0.98,0.14
-997,3,-121,-0.28,0.98,0.56
-998,2,-122,-0.14,1.05,1.05
-996,1,-124,-0.35,1.33,1.54
-995,5,-128,-0.49,1.26,1.82
-996,6,-131,-0.63,0.98,1.82
-994,7,-129,-0.77,0.56,1.68
-994,9,-128,-0.63,0.14,1.47
-994,13,-127,-0.56,-0.21,1.26
-993,16,-125,-0.21,-0.42,1.05
-994,14,-126,0.28,-0.56,0.56
-993,14,-130,0.49,-0.7,0.21
-993,12,-132,0.49,-0.91,-0.07
-995,11,-132,0.28,-1.33,-0.42
-996,11,-132,0.42,-1.89,-0.49
-995,10,-131,0.63,-2.52,-0.63
-994,10,-129,0.77,-3.08,-0.77
-994,10,-129,1.05,-3.36,-0.91
-995,12,-126,1.05,-3.64,-1.05
-993,13,-123,1.12,-3.78,-1.54
-996,6,-121,1.12,-3.5,-1.82
-998,7,-122,0.56,-2.94,-1.54
-992,4,-110,0.0,-2.24,-1.47
-997,7,-114,0.21,-1.47,-1.05
-995,7,-115,0.35,-0.91,-0.63
-994,7,-120,0.28,-0.77,-0.84
-995,5,-120,0.28,-0.91,-1.05
-997,3,-126,0.28,-0.98,-1.05
-996,4,-126,0.07,-1.33,-0.7
-995,8,-125,-0.07,-1.82,-0.42
-995,9,-123,-0.21,-2.03,-0.42
-996,9,-119,0.07,-1.89,-0.63
-995,7,-117,0.35,-1.54,-0.63
-998,6,-117,0.35,-1.05,-0.42
-997,6,-118,0.28,-0.84,-0.07
-993,8,-119,0.07,-0.63,0.07
-996,6,-118,-0.07,-0.56,-0.28
-997,6,-119,0.0,-0.63,-0.35
-996,5,-123,0.0,-0.77,-0.21
-994,5,-123,0.0,-0.91,-0.21
-996,7,-122,0.0,-1.12,-0.35
-995,10,-122,0.14,-1.12,-0.42
-994,10,-120,0.35,-1.19,-0.56
-994,7,-121,0.63,-1.26,-0.77
-997,4,-122,0.63,-1.26,-0.77
-997,4,-122,0.28,-1.54,-0.42
-996,6,-119,0.28,-1.82,-0.07
-996,8,-118,0.42,-1.68,-0.07
-996,7,-119,0.49,-1.54,-0.14
-996,7,-118,0.28,-1.33,-0.21
-996,7,-117,0.07,-1.19,-0.14
-995,7,-113,0.14,-1.05,-0.21
-996,8,-115,0.35,-0.77,-0.14
-994,7,-118,0.28,-0.56,0.0
-995,8,-117,0.21,-0.35,-0.21
-998,7,-118,0.28,-0.21,-0.49
-997,5,-118,0.56,-0.14,-0.28
-996,6,-121,0.56,-0.14,0.21
-996,7,-120,0.49,-0.14,0.35
-996,7,-119,0.49,-0.07,0.28
-996,8,-122,0.56,0.0,0.49
-996,8,-121,0.63,-0.07,0.7
-995,10,-123,0.35,0.07,0.91
-992,13,-126,-0.07,0.21,0.63
-993,14,-125,-0.14,-0.07,0.07
-995,16,-125,0.07,-0.42,-0.49
-994,15,-123,0.42,-0.77,-0.91
-995,12,-124,0.49,-1.05,-1.33
-996,6,-125,0.28,-0.98,-1.54
-997,5,-121,0.14,-1.12,-1.33
-996,5,-122,0.07,-1.19,-0.98
-996,7,-121,0.07,-1.4,-0.91
-997,5,-120,-0.07,-1.61,-0.91
-996,5,-119,0.07,-1.82,-0.84
-995,8,-117,0.21,-2.1,-0.91
-995,9,-118,0.28,-2.24,-1.19
-995,8,-118,0.42,-2.24,-1.54
-996,9,-119,0.28,-2.24,-1.75
-996,8,-118,0.21,-2.38,-1.82
-995,8,-118,0.14,-2.45,-1.75
-997,4,-117,0.14,-2.59,-1.68
-995,9,-118,-0.21,-2.59,-1.75
-1000,0,-109,-0.49,-1.96,-1.89
-997,2,-111,-0.21,-1.4,-0.91
-996,5,-117,-0.28,-1.05,-0.42
-998,3,-113,-0.7,-0.84,-0.63
-996,2,-115,-0.84,-0.42,-0.49
-995,5,-113,-0.63,-0.42,0.07
-996,7,-117,-0.49,-0.14,0.14
-994,6,-119,-0.7,0.0,0.0
-996,4,-117,-0.63,0.0,0.07
-998,6,-120,-0.56,-0.07,0.35
-994,8,-120,-0.49,-0.21,0.35
-995,9,-120,-0.35,-0.21,0.07
-996,10,-120,-0.14,-0.42,-0.35
-996,10,-120,0.28,-0.63,-0.7
-995,9,-121,0.56,-0.77,-0.84
-998,6,-121,0.63,-0.84,-0.91
-997,4,-121,0.7,-0.91,-0.77
-996,4,-120,0.56,-0.98,-0.77
-995,4,-117,0.56,-1.12,-0.56
-997,4,-115,0.63,-0.98,-0.49
-996,4,-115,0.63,-0.84,-0.49
-995,6,-115,0.77,-0.77,-0.49
-997,6,-116,0.7,-0.77,-0.49
-998,4,-118,0.56,-0.77,-0.56
-996,5,-117,0.35,-1.05,-0.49
-996,7,-118,0.49,-1.4,-0.42
-994,8,-120,0.56,-1.54,-0.49
-995,8,-120,0.42,-1.54,-0.63
-997,6,-118,0.35,-1.61,-0.77
-996,8,-119,0.21,-1.75,-0.63
-996,9,-119,0.21,-1.89,-0.77
-995,9,-116,0.21,-1.89,-1.05
-997,7,-114,0.21,-1.75,-1.12
-996,4,-113,0.14,-1.4,-1.05
-997,3,-112,0.0,-0.98,-0.91
-998,2,-113,0.0,-0.49,-0.56
-996,2,-115,0.0,-0.56,-0.14
-996,3,-114,0.07,-0.77,0.0
-996,3,-115,0.14,-0.77,0.0
-997,4,-116,0.07,-0.7,-0.21
-997,4,-117,0.14,-0.7,-0.28
-996,5,-116,0.21,-0.77,-0.28
-996,6,-116,0.21,-0.98,-0.07
-996,7,-115,0.35,-1.05,-0.14
-996,6,-116,0.28,-0.91,-0.21
-995,7,-117,0.28,-0.77,-0.35
-996,7,-118,0.0,-0.84,-0.49
-996,6,-117,-0.07,-0.98,-0.56
-995,7,-116,0.21,-1.19,-0.7
-995,7,-116,0.49,-1.33,-0.7
-996,5,-116,0.56,-1.05,-0.84
-996,4,-115,0.35,-0.91,-0.98
-998,5,-115,0.56,-0.98,-0.84
-997,2,-116,0.7,-1.19,-0.7
-998,0,-117,0.7,-1.33,-0.7
-998,1,-115,0.84,-1.47,-0.49
-996,4,-116,0.77,-1.61,-0.21
-996,4,-117,0.84,-1.96,-0.35
-998,7,-117,0.98,-2.24,-0.42
-996,8,-117,0.84,-2.31,-0.49
-997,6,-117,0.84,-2.45,-0.56
-996,3,-115,0.84,-2.59,-0.42
-998,3,-116,0.77,-2.52,-0.07
-996,5,-121,0.56,-2.73,0.28
-1001,0,-111,0.63,-3.57,0.56
-997,3,-112,0.84,-3.43,0.7
-993,3,-111,0.35,-3.08,0.84
-997,4,-103,0.28,-2.87,1.26
-997,8,-103,0.0,-2.1,1.26
-993,12,-107,-0.07,-1.61,0.91
-994,11,-105,0.0,-1.4,0.49
-996,12,-106,0.14,-1.12,0.07
-998,7,-109,0.35,-0.84,-0.35
-998,5,-110,0.28,-0.63,-0.35
-999,2,-111,-0.07,-0.49,-0.21
-998,1,-111,-0.14,-0.49,0.14
-997,1,-109,-0.07,-0.7,0.56
-997,3,-110,0.07,-0.77,0.91
-996,6,-112,0.0,-0.84,1.05
-996,7,-110,-0.07,-0.91,0.84
-996,11,-109,-0.07,-0.98,0.63
-996,13,-111,0.07,-0.98,0.49
-996,14,-110,0.14,-0.84,0.0
-997,12,-111,0.0,-0.63,-0.28
-997,9,-111,0.0,-0.35,-0.28
-997,9,-114,0.0,-0.28,-0.21
-996,8,-115,0.0,-0.49,-0.42
-996,8,-112,0.14,-0.77,-0.63
-998,5,-112,0.28,-1.05,-0.56
-997,5,-113,0.56,-1.19,-0.42
-996,4,-111,0.63,-1.33,-0.42
-998,4,-111,0.56,-1.26,-0.28
-998,6,-111,0.63,-1.33,0.0
-996,8,-111,0.56,-1.47,0.14
-996,11,-112,0.56,-1.54,-0.07
-996,13,-109,0.49,-1.61,-0.42
-997,11,-108,0.7,-1.61,-0.63
-997,11,-110,0.84,-1.47,-0.91
-997,6,-109,0.77,-1.4,-0.98
-998,5,-108,0.7,-1.19,-0.77
-997,4,-109,0.63,-1.12,-0.49
-998,5,-109,0.7,-1.12,-0.42
-997,4,-108,0.63,-1.12,-0.28
-997,6,-108,0.49,-1.05,-0.14
-998,9,-107,0.49,-1.05,0.0
-997,9,-107,0.35,-1.05,-0.14
-997,8,-108,0.35,-1.05,-0.21
-997,7,-107,0.35,-0.98,-0.14
-998,9,-108,0.14,-0.98,-0.21
-996,9,-109,0.28,-0.91,-0.21
-996,8,-109,0.49,-1.05,-0.21
-998,7,-111,0.63,-0.98,-0.28
-998,5,-111,0.49,-1.12,-0.35
-998,6,-110,0.42,-1.33,-0.28
-996,8,-109,0.42,-1.33,-0.07
-995,9,-107,0.42,-1.26,-0.07
-997,9,-105,0.42,-1.05,-0.28
-996,10,-106,0.35,-0.91,-0.35
-998,8,-104,0.42,-0.84,-0.35
-997,7,-107,0.42,-0.7,-0.28
-996,6,-108,0.42,-0.77,-0.28
-998,5,-108,0.49,-0.84,-0.21
-999,6,-110,0.49,-0.91,-0.14
-996,6,-110,0.42,-1.05,0.0
-994,7,-109,0.49,-1.19,-0.07
-1001,10,-109,0.49,-1.4,0.14
-999,8,-108,0.35,-1.26,0.14
-997,8,-108,0.35,-1.33,0.14
-998,9,-106,0.49,-1.19,0.21
-996,8,-107,0.42,-0.98,0.21
-996,10,-105,0.28,-0.98,0.14
-997,10,-105,0.35,-0.84,-0.07
-996,9,-105,0.49,-0.91,-0.35
-995,9,-107,0.63,-0.91,-0.56
-997,7,-107,0.63,-0.91,-0.56
-999,5,-107,0.42,-0.77,-0.56
-998,5,-107,0.28,-0.77,-0.35
-997,7,-105,0.21,-0.7,-0.07
-996,9,-106,0.42,-0.63,0.0
-996,8,-107,0.42,-0.49,-0.07
-998,9,-107,0.49,-0.56,-0.14
-998,10,-110,0.56,-0.63,-0.21
-998,9,-109,0.56,-0.84,-0.28
-999,8,-107,0.63,-1.12,-0.35
-998,7,-107,0.56,-1.19,-0.21
-996,8,-108,0.63,-1.19,-0.07
-996,9,-107,0.63,-1.33,-0.14
-998,8,-107,0.7,-1.4,-0.42
-998,6,-106,0.7,-1.33,-0.35
-996,7,-108,0.49,-1.19,0.07
-997,10,-107,0.28,-1.12,0.14
-997,11,-103,0.21,-1.05,-0.21
-996,10,-103,0.35,-1.05,-0.35
-995,10,-104,0.42,-0.98,-0.21
-997,11,-104,0.28,-0.84,-0.42
-997,9,-105,0.28,-0.77,-0.56
-998,6,-106,0.35,-0.77,-0.63
-1000,5,-106,0.28,-0.77,-0.42
-998,7,-106,0.14,-0.63,-0.07
-997,8,-106,0.07,-0.7,0.21
-998,9,-108,0.14,-0.7,0.21
-997,10,-109,0.0,-0.98,0.14
-998,9,-106,0.0,-1.05,0.07
-996,10,-106,-0.07,-1.05,0.0
-997,12,-104,-0.07,-1.05,-0.07
-996,12,-104,0.07,-0.91,-0.28
-997,8,-104,0.21,-0.63,-0.56
-999,6,-106,0.14,-0.49,-0.56
-998,7,-109,0.0,-0.42,-0.21
-996,9,-109,-0.14,-0.7,0.0
-998,10,-108,-0.14,-0.91,-0.14
-997,11,-106,-0.07,-1.05,-0.14
-997,10,-107,0.0,-0.98,-0.14
-997,11,-106,0.0,-0.91,-0.21
-998,12,-106,0.21,-0.98,-0.42
-998,11,-106,0.49,-1.05,-0.49
-998,8,-107,0.56,-1.05,-0.49
-1000,6,-107,0.49,-0.98,-0.42
-999,8,-109,0.21,-1.05,-0.21
-995,11,-108,0.35,-1.26,-0.07
-996,12,-107,0.63,-1.4,-0.35
-997,12,-107,0.49,-1.33,-0.7
-997,10,-105,0.42,-1.12,-0.91
-998,9,-104,0.35,-0.98,-0.77
-998,8,-105,0.28,-0.98,-0.56
-996,8,-105,0.35,-1.12,-0.49
-999,7,-103,0.28,-1.26,-0.63
-998,6,-105,0.42,-1.19,-0.49
-998,7,-105,0.21,-1.26,-0.28
-996,8,-102,0.21,-1.33,-0.35
-996,9,-102,0.28,-1.26,-0.28
-997,10,-101,0.14,-1.12,-0.42
-999,10,-99,0.21,-0.84,-0.63
-999,7,-102,0.0,-0.56,-0.49
-997,7,-105,0.14,-0.49,-0.14
-996,9,-105,0.0,-0.56,-0.14
-997,9,-104,-0.07,-0.49,-0.42
-998,8,-102,0.07,-0.49,-0.35
-998,9,-102,0.07,-0.49,-0.21
-997,9,-105,0.07,-0.56,-0.14
-997,10,-104,-0.07,-0.56,-0.14
-998,8,-104,-0.21,-0.56,-0.28
-997,8,-103,-0.21,-0.42,-0.14
-998,7,-104,-0.28,-0.35,0.07
-998,8,-104,-0.35,-0.35,0.21
-998,9,-104,-0.35,-0.49,0.35
-996,12,-104,-0.21,-0.63,0.21
-998,11,-104,0.0,-0.56,0.0
-999,10,-104,0.0,-0.56,-0.07
-997,11,-105,0.0,-0.49,0.07
-997,11,-106,-0.21,-0.49,-0.07
-997,9,-103,-0.21,-0.49,-0.07
-997,8,-104,-0.14,-0.28,0.0
-997,9,-106,-0.21,-0.21,0.21
-997,11,-105,-0.21,-0.21,0.21
-997,12,-105,-0.35,-0.35,0.0
-996,11,-105,-0.21,-0.49,-0.21
-999,9,-104,0.07,-0.56,-0.14
-997,10,-107,0.14,-0.56,0.0
-997,8,-106,-0.07,-0.56,-0.07
-997,10,-106,-0.14,-0.63,0.0
-997,9,-105,-0.07,-0.63,0.21
-996,9,-105,-0.07,-0.56,0.35
-996,12,-106,-0.14,-0.56,0.42
-997,13,-106,-0.21,-0.49,0.21
-997,12,-103,-0.35,-0.63,0.0
-997,12,-104,-0.21,-0.56,0.07
-997,12,-104,-0.14,-0.35,0.14
-996,13,-105,-0.07,-0.28,0.0
-997,11,-105,-0.07,-0.07,-0.21
-998,10,-104,-0.07,-0.14,-0.21
-996,10,-106,0.21,-0.28,0.0
-998,9,-105,0.21,-0.35,-0.07
-999,9,-105,0.21,-0.35,0.0
-997,10,-106,0.14,-0.28,0.07
-998,11,-107,0.07,-0.42,0.21
-996,12,-106,0.07,-0.35,0.14
-997,13,-108,0.14,-0.56,0.07
-997,13,-106,0.28,-0.63,0.0
-998,13,-109,0.35,-0.77,0.0
-997,13,-108,0.35,-0.98,0.0
-995,14,-106,0.42,-1.05,-0.14
-996,12,-104,0.28,-0.91,-0.42
-998,10,-104,0.21,-0.42,-0.49
-998,12,-105,0.0,-0.21,-0.21
-997,13,-102,-0.07,-0.14,-0.21
-995,14,-104,0.07,0.0,-0.28
-997,12,-103,0.0,-0.07,-0.35
-998,12,-104,0.07,0.07,-0.28
-997,12,-108,-0.07,0.28,-0.21
-997,14,-107,-0.28,0.21,-0.28
-997,13,-108,-0.28,0.14,-0.42
-997,11,-108,-0.28,0.07,-0.49
-998,10,-107,-0.28,0.07,-0.28
-999,9,-108,-0.35,0.14,0.14
-996,11,-108,-0.49,0.07,0.56
-996,14,-106,-0.63,0.07,0.63
-996,16,-103,-0.63,0.14,0.49
-995,16,-104,-0.35,0.49,0.14
-995,14,-106,-0.35,0.7,-0.14
-997,12,-108,-0.28,0.84,-0.35
-997,10,-109,-0.21,0.91,-0.35
-998,8,-112,-0.28,0.77,-0.21
-998,10,-113,-0.35,0.42,-0.07
-997,11,-114,-0.28,0.07,0.14
-995,15,-112,-0.14,-0.07,0.07
-997,18,-111,0.07,-0.14,-0.14
-997,17,-110,0.14,-0.07,-0.35
-995,17,-112,0.28,0.0,-0.42
-996,16,-111,0.14,0.07,-0.42
-997,14,-110,0.07,0.14,-0.42
-996,14,-110,0.14,0.14,-0.35
-995,14,-110,0.21,0.07,-0.42
-996,14,-111,0.21,-0.07,-0.63
-999,12,-110,0.14,-0.35,-0.77
-996,12,-110,0.07,-0.42,-0.7
-998,12,-109,0.0,-0.42,-0.56
-999,10,-109,0.21,-0.42,-0.49
-997,10,-112,0.35,-0.42,-0.28
-997,11,-112,0.28,-0.49,-0.14
-998,11,-113,0.14,-0.63,-0.21
-996,11,-110,0.07,-0.84,-0.21
-995,14,-109,0.35,-1.05,0.07
-995,16,-110,0.28,-1.05,0.07
-997,16,-107,0.0,-0.98,-0.28
-995,17,-107,0.0,-0.63,-0.42
-995,17,-109,0.14,-0.49,-0.7
-996,15,-110,0.42,-0.49,-1.05
-998,11,-113,0.35,-0.49,-1.05
-997,10,-114,0.07,-0.63,-0.84
-997,11,-113,-0.07,-0.84,-0.7
-997,13,-110,-0.07,-1.05,-0.63
-997,13,-109,0.21,-1.12,-0.56
-996,13,-109,0.14,-0.91,-0.49
-996,14,-108,0.0,-0.77,-0.63
-996,14,-109,0.07,-0.63,-0.77
-998,13,-110,0.07,-0.63,-0.84
-997,11,-110,0.0,-0.63,-0.91
-997,10,-111,-0.35,-0.42,-0.91
-996,12,-111,-0.56,-0.42,-0.77
-997,12,-111,-0.42,-0.56,-0.7
-998,13,-109,-0.42,-0.7,-0.7
-996,13,-109,-0.35,-0.77,-0.63
-996,13,-110,-0.42,-0.7,-0.56
-997,12,-111,-0.49,-0.49,-0.49
-996,12,-112,-0.49,-0.49,-0.56
-997,13,-111,-0.42,-0.63,-0.56
-997,12,-111,-0.42,-0.49,-0.49
-996,11,-112,-0.49,-0.49,-0.42
-997,11,-111,-0.49,-0.42,-0.42
-997,12,-112,-0.49,-0.42,-0.42
-997,10,-111,-0.35,-0.7,-0.42
-998,10,-112,-0.21,-0.77,-0.21
-997,11,-111,-0.35,-0.84,0.0
-995,13,-109,-0.28,-0.77,0.0
-996,15,-108,-0.35,-0.63,-0.14
-997,14,-106,-0.49,-0.28,-0.28
-996,14,-108,-0.49,0.14,-0.42
-995,14,-109,-0.49,0.28,-0.56
-996,14,-109,-0.42,0.56,-0.7
-996,12,-109,-0.35,0.84,-0.77
-995,13,-110,-0.28,1.05,-0.77
-997,12,-111,-0.21,1.05,-0.77
-996,13,-114,-0.14,1.12,-0.77
-996,12,-114,0.0,1.05,-0.98
-998,11,-112,0.14,0.91,-0.84
-998,9,-111,0.28,0.91,-0.56
-998,7,-114,0.42,0.98,-0.35
-1000,5,-114,0.56,0.77,0.14
-998,8,-117,0.56,0.63,0.63
-997,10,-117,0.42,0.35,0.77
-995,11,-117,0.42,0.07,0.7
-997,12,-119,0.21,-0.14,0.63
-997,13,-116,-0.21,-0.63,0.42
-995,17,-116,0.07,-0.91,0.49
-996,17,-117,0.42,-1.4,0.56
-999,12,-118,0.63,-1.75,0.14
-1003,5,-113,0.77,-2.45,0.07
-1005,1,-110,0.84,-3.43,0.98
-1002,10,-105,0.77,-4.34,2.24
-1001,19,-97,0.7,-4.97,2.31
-1002,25,-96,1.19,-4.97,1.75
-1008,26,-99,1.89,-5.04,1.33
-1009,11,-121,3.22,-6.09,1.12
-1016,8,-129,4.69,-10.22,1.96
-1021,5,-122,4.34,-14.07,3.78
-1023,14,-97,4.13,-19.81,6.72
-1037,19,-61,5.04,-24.08,8.96
-1054,25,-25,4.34,-26.81,10.15
-1068,23,8,2.73,-28.49,11.41
-1057,34,13,1.4,-30.73,15.54
-1021,46,22,0.63,-34.23,21.21
-1022,87,9,-1.05,-34.86,25.69
-994,93,11,-1.19,-34.58,23.87
-975,112,6,-2.52,-34.23,19.11
-977,105,6,-3.78,-29.19,13.3
-979,92,-7,-4.2,-22.96,7.35
-983,84,-20,-4.48,-17.29,0.7
-1000,61,-31,-5.46,-10.99,-4.06
-1019,37,-43,-4.48,-5.6,-6.3
-1037,23,-54,-2.8,-2.87,-6.37
-1049,15,-60,-0.91,-0.49,-4.55
-1052,11,-68,0.63,1.05,-1.96
-1048,15,-70,2.52,3.15,0.49
-1037,21,-75,3.85,5.53,1.75
-1024,27,-83,4.69,8.33,1.61
-1015,28,-93,5.04,10.99,0.28
-1008,32,-102,4.27,12.74,-1.89
-1008,34,-99,3.01,14.35,-4.41
-1004,34,-97,2.17,15.47,-6.09
-996,33,-102,2.45,16.03,-6.72
-980,33,-111,3.15,15.4,-6.58
-972,31,-115,3.85,13.72,-6.65
-967,28,-109,4.2,12.04,-6.51
-963,26,-103,4.2,10.78,-6.3
-958,22,-98,4.2,9.87,-5.95
-965,17,-91,4.13,8.75,-5.6
-969,11,-88,3.92,7.21,-4.34
-969,12,-89,3.71,5.88,-2.52
-966,14,-87,3.01,4.34,-1.4
-967,17,-83,2.31,3.08,-1.61
-973,14,-72,1.68,2.59,-2.45
-986,11,-65,0.77,3.08,-3.01
-997,9,-61,0.0,3.57,-2.45
-1000,11,-63,-0.42,3.78,-1.19
-995,15,-66,-0.7,3.71,0.07
-989,21,-66,-0.7,3.5,0.63
-988,25,-67,-0.63,3.36,-0.07
-992,26,-70,-0.91,3.22,-1.19
-995,21,-66,-1.4,2.94,-1.82
-994,22,-69,-1.4,2.66,-1.61
-989,25,-75,-1.54,2.8,-1.61
-986,24,-85,-1.47,2.94,-1.75
-985,25,-88,-1.12,1.96,-1.61
-986,24,-90,-1.4,1.19,-1.47
-990,25,-84,-1.61,0.63,-1.75
-989,24,-82,-1.61,0.35,-1.82
-992,25,-81,-1.26,0.14,-1.68
-993,23,-86,-0.98,-0.07,-1.47
-993,23,-88,-0.98,-0.49,-1.26
-991,26,-90,-0.91,-1.12,-1.26
-991,25,-88,-0.7,-2.17,-1.61
-998,23,-83,-0.42,-3.15,-2.24
-1001,17,-77,-0.35,-3.29,-2.66
-1001,14,-73,-0.77,-2.94,-2.87
-1009,11,-70,-1.12,-1.89,-3.22
-1007,11,-71,-1.68,-1.54,-2.94
-1010,12,-72,-1.89,-1.47,-2.59
-1008,13,-74,-2.17,-1.26,-1.96
-1002,17,-76,-2.45,-1.19,-1.33
-998,22,-77,-2.52,-1.54,-1.12
-994,24,-77,-2.52,-1.61,-1.26
-993,23,-79,-2.38,-1.54,-1.61
-997,22,-79,-2.52,-1.75,-1.96
-998,21,-76,-2.59,-1.75,-1.61
-992,26,-76,-2.38,-1.89,-1.33
-990,32,-72,-2.17,-2.45,-1.33
-990,35,-72,-1.61,-2.8,-1.75
-992,32,-68,-0.77,-2.87,-2.24
-990,31,-70,-0.21,-2.52,-2.8
-990,30,-75,0.42,-2.1,-3.43
-997,25,-76,0.63,-1.82,-3.85
-1002,21,-82,0.91,-1.89,-3.71
-1002,20,-85,1.19,-2.24,-3.08
-1005,19,-89,1.47,-2.52,-2.31
-1003,23,-92,1.47,-2.52,-1.82
-997,26,-96,1.19,-2.24,-1.68
-995,27,-100,0.77,-1.82,-2.03
-994,27,-100,0.14,-1.68,-2.87
-996,27,-97,-0.14,-1.89,-3.43
-1003,23,-92,0.0,-2.17,-3.36
-1005,21,-88,0.42,-2.73,-2.59
-1002,23,-88,0.98,-3.08,-1.54
-1001,24,-87,1.47,-3.5,-1.4
-1007,22,-83,1.61,-3.43,-1.54
-1012,17,-78,1.12,-2.45,-1.47
-1012,13,-76,0.56,-1.12,-0.84
-1004,15,-82,0.35,0.21,-0.07
-996,16,-84,0.42,0.56,0.14
-993,16,-83,0.77,0.49,-0.35
-991,15,-81,1.12,0.35,-0.98
-989,13,-80,1.75,0.0,-1.19
-989,8,-80,2.24,-0.56,-1.12
-987,5,-82,2.24,-1.12,-0.98
-986,3,-77,1.82,-1.4,-0.7
-982,3,-77,1.05,-1.4,-0.56
-973,2,-73,0.77,-1.47,-0.7
-970,0,-68,0.84,-1.61,-0.84
-965,0,-66,0.98,-1.82,-0.84
-957,-1,-68,0.98,-2.17,-0.7
-952,-1,-61,0.63,-2.87,-0.7
-949,0,-56,0.42,-3.36,-0.84
-942,1,-54,0.21,-3.57,-0.98
-935,5,-58,0.14,-3.92,-1.47
-934,3,-56,0.42,-4.41,-2.45
-939,0,-62,0.21,-4.62,-3.29
-942,0,-71,-0.07,-4.69,-4.2
-945,-1,-76,-0.56,-4.9,-5.18
-956,-3,-76,-0.91,-5.74,-6.09
-972,-11,-73,-0.98,-6.44,-6.16
-984,-15,-70,-1.12,-6.3,-5.04
-985,-12,-74,-1.19,-5.67,-3.36
-985,-5,-81,-1.33,-5.53,-1.89
-986,0,-84,-1.61,-6.02,-1.4
-988,2,-86,-2.1,-6.37,-1.54
-989,6,-86,-2.52,-6.72,-1.96
-994,10,-86,-2.94,-6.86,-2.38
-993,12,-89,-3.64,-6.58,-2.45
-992,15,-93,-4.06,-6.44,-2.17
-994,19,-90,-4.48,-7.07,-2.03
-1006,21,-81,-5.04,-7.49,-1.82
-1012,25,-76,-5.67,-7.0,-1.54
-1014,35,-70,-6.37,-6.3,-1.54
-1019,40,-63,-6.65,-4.9,-2.17
-1020,44,-64,-6.86,-3.64,-3.15
-1024,44,-64,-6.58,-3.29,-4.2
-1032,39,-59,-5.81,-3.29,-4.55
-1038,37,-62,-4.76,-3.43,-3.64
-1031,39,-65,-3.43,-3.92,-2.31
-1023,44,-68,-2.03,-5.11,-1.68
-1020,44,-68,-1.05,-6.23,-1.89
-1025,44,-64,-0.49,-6.44,-2.73
-1030,35,-62,-0.07,-5.67,-3.85
-1040,28,-64,0.21,-4.27,-4.62
-1045,16,-70,-0.14,-3.08,-4.76
-1050,14,-74,-0.21,-2.38,-4.34
-1046,12,-79,-0.21,-1.89,-4.06
-1047,10,-81,-0.21,-1.47,-3.43
-1046,7,-83,0.0,-1.05,-2.8
-1045,6,-84,0.21,-0.63,-2.03
-1045,3,-86,0.21,-0.7,-1.05
-1050,4,-81,0.07,-0.84,-0.49
-1050,8,-75,0.21,-0.84,-0.21
-1046,9,-74,0.7,-0.42,0.35
-1045,9,-71,1.26,-0.07,0.7
-1043,8,-70,1.61,0.42,0.98
-1037,8,-68,1.75,1.26,1.47
-1036,7,-64,1.82,2.1,1.82
-1033,8,-66,1.75,3.29,2.17
-1021,12,-70,1.54,3.92,2.66
-1012,15,-75,1.82,3.99,2.73
-1007,15,-70,2.1,3.5,2.52
-1004,14,-66,2.38,3.5,2.38
-997,16,-64,2.59,3.78,2.59
-992,19,-61,2.73,3.71,2.8
-988,24,-61,3.08,3.5,2.87
-984,27,-63,3.36,3.22,2.87
-985,24,-63,3.57,2.87,2.59
-988,21,-68,3.64,2.73,2.59
-989,21,-67,3.29,2.52,2.8
-989,23,-67,3.22,2.03,3.29
-990,24,-65,3.01,1.26,3.99
-990,26,-64,2.87,0.42,4.83
-991,30,-60,2.87,-0.14,5.11
-994,32,-56,2.87,-0.63,5.04
-996,31,-55,3.15,-0.84,4.97
-1000,30,-54,3.36,-0.77,4.9
-1002,25,-53,3.78,-0.56,4.62
-1004,20,-57,3.99,-0.21,4.41
-1007,17,-57,4.06,-0.14,4.27
-1007,16,-57,4.13,-0.28,4.2
-1010,12,-54,4.27,-0.42,3.85
-1011,6,-56,4.97,-0.42,4.06
-1012,2,-55,5.46,-0.77,4.41
-1010,0,-53,5.53,-0.91,4.97
-1006,0,-53,5.53,-0.56,5.18
-1002,-1,-57,5.11,0.14,4.97
-996,-1,-61,4.83,0.63,4.41
-992,-6,-68,4.62,0.77,3.5
-994,-16,-68,4.34,0.98,2.73
-996,-24,-72,3.5,1.68,2.66
-989,-23,-78,2.52,2.24,2.87
-984,-21,-82,1.82,1.96,2.94
-981,-19,-85,1.26,1.19,2.59
-977,-20,-85,0.77,0.7,2.31
-970,-17,-92,-0.07,0.77,2.17
-962,-13,-97,-1.47,0.77,1.75
-958,-6,-96,-2.94,0.35,0.7
-961,-2,-90,-4.2,-0.42,-0.28
-965,0,-81,-4.83,-0.98,-0.77
-969,4,-79,-5.18,-1.12,-0.91
-971,8,-80,-5.74,-1.33,-0.91
-975,10,-78,-6.3,-1.54,-0.98
-979,16,-77,-6.86,-1.54,-0.7
-983,25,-72,-7.42,-1.61,-0.42
-988,32,-66,-7.77,-1.47,-0.56
-991,41,-63,-7.7,-0.98,-0.56
-993,49,-65,-7.21,-0.84,-0.28
-994,58,-68,-6.93,-1.05,-0.21
-998,64,-63,-6.37,-1.68,-0.49
-1010,66,-54,-5.46,-2.24,-0.7
-1021,68,-49,-4.48,-1.89,-0.28
-1025,69,-46,-3.64,-1.12,0.49
-1029,72,-47,-2.87,-0.14,1.19
-1028,74,-50,-2.17,0.77,1.68
-1028,78,-52,-1.33,1.33,1.68
-1032,80,-50,-0.35,1.82,1.68
-1033,75,-49,0.63,2.17,1.4
-1033,76,-49,1.68,2.52,1.33
-1040,70,-44,2.03,3.29,1.61
-1042,65,-41,2.52,3.99,1.75
-1041,60,-41,3.01,4.55,2.17
-1034,60,-43,3.64,4.48,2.45
-1026,55,-45,4.13,3.99,2.59
-1022,51,-44,4.76,3.43,2.1
-1018,45,-43,5.11,2.94,1.47
-1023,35,-41,5.46,2.87,1.05
-1024,28,-37,5.46,2.94,0.91
-1018,34,-28,4.62,3.71,-0.28
-1018,24,-34,3.71,7.0,-3.36
-1018,11,-37,3.57,8.61,-5.95
-1023,-4,-49,3.85,10.22,-7.49
-1025,-19,-60,4.06,11.13,-7.98
-1019,-30,-73,4.2,11.34,-8.05
-1006,-37,-90,4.41,10.85,-8.12
-998,-46,-105,4.62,9.1,-8.54
-997,-56,-116,4.62,6.44,-9.03
-996,-66,-123,3.85,3.78,-9.38
-994,-72,-126,2.59,2.45,-9.1
-985,-69,-133,1.26,2.31,-8.54
-975,-63,-137,-0.07,2.31,-7.98
-971,-55,-141,-1.05,2.1,-7.0
-965,-45,-140,-2.17,1.75,-5.67
-958,-26,-141,-3.08,1.61,-4.2
-949,-5,-138,-3.85,1.33,-3.08
-939,13,-133,-4.55,0.84,-2.31
-934,31,-123,-5.32,0.63,-2.45
-937,44,-114,-6.23,0.42,-2.52
-947,56,-99,-6.37,-0.35,-2.31
-948,62,-90,-6.02,-0.49,-2.03
-950,71,-86,-5.67,-0.84,-1.19
-956,76,-76,-5.04,-1.4,-1.12
-961,76,-68,-4.76,-1.68,-1.82
-973,74,-59,-4.34,-2.17,-2.59
-981,63,-50,-3.64,-2.66,-3.64
-997,49,-40,-2.8,-3.15,-3.99
-1010,35,-31,-2.24,-3.15,-3.99
-1021,23,-29,-1.68,-3.22,-3.64
-1029,12,-32,-1.19,-3.57,-3.08
-1037,0,-29,-1.26,-3.99,-2.52
-1047,-6,-31,-1.26,-4.41,-1.54
-1044,-9,-33,-0.98,-4.62,-0.49
-1041,-10,-40,-0.63,-4.62,0.49
-1034,-12,-54,-0.14,-4.48,1.05
-1025,-15,-73,-0.07,-3.99,1.12
-1018,-18,-91,-0.42,-3.5,0.77
-1013,-21,-106,-1.12,-3.22,0.42
-1003,-20,-119,-1.75,-3.01,0.63
-996,-18,-133,-2.17,-2.94,1.19
-989,-17,-146,-2.87,-3.01,1.61
-987,-17,-153,-3.78,-3.22,1.47
-986,-14,-156,-4.9,-3.29,1.47
-985,-6,-153,-5.88,-3.43,1.89
-983,7,-144,-6.44,-3.64,2.24
-987,23,-132,-6.72,-3.99,2.8
-986,41,-117,-6.37,-4.55,3.5
-984,59,-105,-5.25,-5.04,4.41
-982,77,-93,-3.57,-6.02,5.53
-982,90,-79,-1.75,-6.93,6.51
-982,102,-65,0.07,-7.49,6.79
-982,109,-50,1.75,-7.21,6.44
-986,111,-37,3.08,-6.02,4.97
-990,108,-30,4.34,-3.99,2.59
-990,102,-29,5.53,-1.82,0.0
-991,94,-31,6.79,-0.28,-2.1
-993,83,-32,8.54,0.0,-3.29
-1002,70,-32,10.36,-0.56,-3.36
-1006,55,-34,12.04,-1.19,-3.01
-1009,43,-38,13.37,-1.47,-2.66
-1008,29,-47,14.28,-1.4,-2.45
-1005,18,-59,14.91,-1.33,-2.38
-1002,8,-68,14.98,-1.54,-2.31
-999,3,-77,15.05,-1.82,-2.03
-996,-4,-87,15.05,-2.24,-1.61
-999,-9,-92,15.05,-3.22,-1.19
-995,-15,-97,14.84,-3.71,-1.19
-996,-17,-99,14.14,-3.92,-1.19
-997,-22,-103,13.44,-3.85,-1.89
-1000,-31,-100,12.81,-3.71,-2.31
-1005,-38,-100,11.69,-3.43,-2.31
-1011,-43,-98,10.15,-3.08,-2.03
-1014,-47,-90,8.96,-3.01,-1.61
-1015,-51,-95,7.91,-1.89,-1.54
-1013,-51,-99,6.58,-1.4,-1.26
-1006,-52,-95,5.25,-1.19,-1.47
-1006,-52,-91,3.78,-0.63,-1.33
-1003,-52,-91,2.24,-0.35,-0.77
-999,-49,-86,0.84,-0.56,-0.28
-1000,-43,-80,-0.28,-1.19,0.21
-997,-38,-73,-1.12,-1.75,0.56
-991,-31,-70,-1.82,-1.96,0.63
-986,-23,-67,-2.73,-2.03,0.49
-983,-15,-64,-3.36,-2.24,-0.07
-979,-10,-59,-3.78,-2.59,-0.42
-983,-5,-59,-3.99,-3.01,-0.35
-981,-4,-58,-4.27,-3.29,-0.14
-984,0,-55,-4.83,-3.71,-0.14
-988,2,-54,-5.11,-4.13,-0.14
-992,2,-52,-5.46,-4.69,0.0
-997,7,-48,-5.39,-5.04,-0.07
-1000,8,-49,-5.39,-5.25,0.0
-1001,12,-51,-5.39,-5.46,0.14
-1002,13,-52,-5.32,-5.53,0.28
-1001,17,-55,-5.39,-5.46,0.49
-1001,22,-54,-5.46,-5.46,0.84
-998,27,-55,-5.46,-5.74,1.19
-996,32,-52,-5.04,-6.3,1.54
-997,36,-50,-4.27,-6.65,1.61
-994,39,-50,-3.57,-6.72,1.75
-989,48,-53,-3.29,-6.3,1.33
-995,44,-46,-2.94,-5.46,0.21
-999,43,-48,-2.24,-4.69,0.0
-1002,43,-53,-1.68,-4.41,0.14
-1003,43,-54,-1.12,-4.55,0.49
-1005,43,-55,-0.35,-4.48,0.7
-1010,38,-55,0.07,-4.27,0.84
-1015,35,-56,0.0,-3.64,0.84
-1018,32,-58,-0.14,-2.87,0.84
-1021,29,-58,-0.07,-2.52,0.84
-1026,25,-57,0.07,-2.45,0.77
-1028,21,-55,0.14,-2.38,1.05
-1027,19,-55,0.28,-2.24,1.54
-1026,18,-55,0.21,-2.24,1.89
-1026,18,-51,0.14,-2.17,2.1
-1027,16,-46,0.14,-1.96,1.96
-1027,14,-39,0.14,-1.68,1.61
-1027,14,-35,0.28,-1.26,1.47
-1022,12,-37,0.42,-0.84,1.19
-1022,10,-33,0.28,-0.42,0.77
-1022,8,-32,0.21,0.0,0.56
-1018,8,-32,0.28,0.35,0.7
-1014,7,-33,0.77,0.63,0.7
-1015,2,-37,0.91,0.77,0.35
-1012,-2,-38,0.91,1.05,-0.14
-1008,-4,-43,0.98,1.4,-0.49
-1006,-7,-47,0.63,1.68,-0.7
-1001,-8,-55,-0.07,2.03,-0.63
-995,-5,-58,-0.84,1.89,-0.63
-994,-3,-57,-1.47,1.47,-0.7
-992,0,-55,-1.96,1.19,-0.77
-989,5,-53,-2.31,1.05,-0.7
-984,10,-55,-2.38,0.84,-0.84
-983,13,-56,-2.59,0.49,-1.05
-981,17,-54,-2.66,0.21,-1.4
-982,21,-50,-2.66,-0.14,-1.61
-986,23,-48,-2.52,-0.35,-1.68
-985,27,-49,-2.1,-0.42,-1.54
-984,29,-51,-1.82,-0.63,-1.47
-985,31,-54,-1.82,-0.84,-1.54
-984,33,-55,-2.03,-1.05,-1.54
-985,35,-55,-2.17,-1.4,-1.47
-986,38,-52,-2.1,-1.68,-1.12
-990,40,-51,-2.1,-1.89,-0.91
-994,41,-47,-1.89,-2.17,-0.77
-996,42,-45,-1.47,-2.24,-0.49
-997,42,-46,-0.98,-2.31,-0.14
-1000,39,-48,-0.56,-2.31,0.21
-1004,35,-46,-0.35,-2.66,0.42
-1005,32,-45,-0.21,-2.38,0.56
-1006,28,-46,-0.28,-2.1,0.56
-1008,25,-48,-0.49,-1.68,0.63
-1008,23,-49,-0.63,-1.4,0.7
-1009,21,-46,-0.49,-1.33,0.63
-1011,20,-48,-0.07,-1.26,0.7
-1013,20,-51,0.21,-1.33,0.91
-1014,17,-50,0.35,-1.4,0.91
-1018,15,-49,0.28,-0.98,0.63
-1017,12,-48,0.28,-0.35,0.42
-1019,9,-49,0.21,0.14,0.35
-1017,8,-51,0.14,0.42,0.21
-1013,9,-53,0.21,0.56,0.14
-1009,11,-56,0.28,0.35,0.07
-1008,11,-59,0.28,0.28,-0.14
-1008,10,-60,0.21,0.42,-0.56
-1007,9,-61,-0.14,0.7,-0.84
-1010,9,-63,-0.35,0.98,-0.84
-1006,11,-64,-0.63,1.05,-0.63
-1003,15,-62,-0.63,0.77,-0.49
-1002,18,-60,-0.49,0.77,-0.42
-1000,21,-60,-0.63,0.84,-0.35
-999,22,-58,-0.7,1.05,-0.49
-999,24,-57,-0.91,1.19,-0.63
-997,26,-58,-0.7,1.26,-0.56
-995,30,-58,-0.42,1.05,-0.56
-994,32,-55,-0.21,0.84,-0.84
-997,30,-52,-0.07,0.98,-1.19
-999,28,-51,-0.14,1.26,-1.47
-999,27,-51,0.0,1.19,-1.12
-1001,25,-48,0.21,0.91,-0.49
-1003,23,-48,0.35,0.7,0.21
-1000,21,-50,0.28,0.7,0.84
-996,22,-47,0.21,0.56,1.12
-996,25,-47,0.35,0.77,1.05
-991,26,-49,0.49,1.05,0.98
-988,24,-54,0.7,0.91,0.98
-987,24,-55,1.05,0.42,1.05
-986,23,-54,1.12,-0.07,1.33
-986,25,-55,1.19,-0.35,1.47
-987,23,-54,1.26,-0.42,1.26
-987,20,-57,1.33,-0.35,1.05
-987,20,-62,1.4,-0.42,0.98
-987,18,-65,1.12,-0.91,0.84
-993,15,-61,0.91,-1.47,0.56
-996,14,-60,0.7,-1.47,0.35
-996,15,-62,0.49,-1.33,0.35
-999,12,-62,0.28,-1.33,0.28
-1004,11,-63,0.14,-1.75,0.28
-1005,11,-61,0.21,-2.1,0.63
-1006,14,-58,0.28,-2.38,0.77
-1008,15,-56,0.28,-2.1,0.7
-1011,14,-57,0.0,-1.4,0.35
-1012,13,-56,-0.35,-0.84,0.0
-1015,14,-55,-0.28,-0.49,-0.14
-1016,13,-54,0.07,-0.49,0.07
-1015,12,-55,0.21,-0.56,0.63
-1011,15,-56,0.0,-0.42,0.98
-1008,18,-57,-0.21,-0.14,0.98
-1006,19,-57,-0.42,0.28,0.63
-1005,18,-56,-0.7,0.56,0.42
-1005,17,-57,-0.63,0.77,0.42
-1002,17,-59,-0.77,0.77,0.56
-1004,17,-58,-0.91,0.49,0.7
-1003,19,-55,-1.12,0.21,0.91
-1002,22,-53,-1.19,0.14,1.19
-1000,25,-53,-1.05,0.07,1.47
-995,28,-53,-1.19,0.0,1.54
-991,32,-55,-1.26,-0.14,1.54
-989,34,-55,-1.26,-0.28,1.19
-990,34,-55,-1.12,-0.35,0.49
-993,31,-55,-0.77,-0.28,0.0
-995,27,-57,-0.7,-0.21,-0.35
-994,25,-58,-0.49,-0.49,-0.35
-999,20,-57,-0.21,-0.84,-0.21
-998,19,-59,-0.28,-0.91,0.07
-994,20,-61,-0.49,-1.12,0.35
-992,19,-59,-0.77,-1.33,0.14
-994,21,-57,-1.05,-1.19,-0.14
-990,23,-58,-1.19,-0.91,-0.28
-989,22,-60,-1.19,-1.05,-0.35
-989,24,-62,-1.19,-1.26,-0.21
-988,28,-61,-1.4,-1.61,-0.42
-990,27,-57,-1.54,-1.75,-0.77
-993,26,-55,-1.68,-1.68,-1.12
-995,26,-55,-1.75,-1.54,-1.33
-1000,24,-55,-1.68,-1.47,-1.33
-1005,25,-57,-1.61,-1.68,-1.12
-1008,27,-57,-1.47,-1.82,-0.91
-1008,30,-61,-1.47,-1.75,-0.63
-1007,33,-62,-1.68,-1.89,-0.63
-1011,36,-57,-1.82,-2.1,-0.91
-1014,38,-56,-1.68,-2.17,-0.77
-1013,41,-53,-1.33,-2.1,-0.56
-1013,44,-53,-1.26,-1.75,-0.49
-1012,46,-52,-1.12,-1.26,-0.7
-1014,44,-49,-1.05,-0.84,-1.05
-1016,39,-45,-0.84,-0.28,-1.05
-1011,37,-44,-0.35,0.07,-0.42
-1005,36,-44,0.21,0.35,0.28
-997,35,-45,0.7,0.56,0.84
-986,35,-50,1.26,0.84,1.54
-974,35,-57,1.75,0.98,2.1
-963,39,-67,2.1,0.91,2.59
-958,39,-72,2.17,0.56,2.8
-956,37,-75,2.31,0.0,3.08
-957,36,-79,2.52,-0.56,3.71
-958,36,-83,2.52,-1.26,4.41
-960,40,-84,2.31,-2.03,4.9
-963,44,-83,2.17,-3.01,4.97
-972,45,-77,2.03,-3.78,4.69
-984,41,-71,1.75,-4.27,4.13
-998,36,-65,1.33,-4.69,3.64
-1010,30,-54,0.98,-4.97,3.43
-1021,24,-47,0.7,-5.04,3.43
-1030,17,-40,0.35,-4.97,3.43
-1039,10,-30,-0.21,-4.76,3.5
-1047,6,-22,-0.56,-4.62,3.71
-1049,4,-16,-0.77,-4.48,3.85
-1048,5,-13,-0.98,-4.34,3.92
-1043,6,-11,-0.84,-3.99,3.85
-1032,7,-13,-0.7,-3.5,3.71
-1019,11,-24,-0.21,-2.94,3.36
-1006,16,-36,0.14,-2.73,2.87
-992,21,-49,0.56,-2.73,2.1
-985,23,-58,0.98,-2.59,0.98
-981,27,-67,1.19,-2.38,-0.21
-980,30,-76,1.33,-2.03,-1.4
-980,31,-84,1.05,-1.47,-2.45
-981,33,-89,0.63,-1.12,-3.43
-987,33,-89,0.28,-1.05,-4.06
-994,32,-86,0.0,-1.19,-4.27
-1001,34,-83,-0.14,-1.4,-4.2
-1007,35,-77,-0.63,-1.54,-3.78
-1014,40,-68,-1.19,-1.54,-3.08
-1016,46,-58,-1.75,-1.4,-1.96
-1017,55,-48,-2.1,-1.54,-0.7
-1017,63,-39,-2.03,-1.82,0.49
-1016,73,-27,-1.96,-2.03,1.33
-1015,81,-16,-1.68,-1.89,1.54
-1014,84,-8,-1.33,-1.33,1.4
-1016,82,-3,-1.05,-0.63,1.26
-1015,81,0,-0.63,-0.07,1.47
-1014,81,3,0.0,0.14,1.61
-1011,77,4,0.98,0.21,1.68
-1010,72,1,1.82,0.21,1.89
-1009,63,-5,2.45,0.35,1.96
-1008,54,-10,2.8,0.42,1.89
-1007,47,-15,2.94,0.49,1.68
-1005,38,-24,2.94,0.7,1.54
-1000,34,-31,2.94,0.84,1.61
-997,29,-39,2.73,0.77,1.47
-995,24,-43,2.52,0.7,1.4
-993,21,-48,2.1,0.42,1.19
-989,18,-53,1.54,0.21,0.98
-989,18,-56,0.91,-0.14,0.91
-986,21,-58,0.42,-0.56,0.77
-985,27,-63,0.07,-0.84,0.42
-984,34,-68,-0.56,-1.12,0.0
-983,41,-71,-1.19,-1.33,-0.98
-988,47,-70,-1.82,-1.61,-2.24
-998,47,-65,-2.45,-1.96,-3.57
-1008,45,-56,-3.08,-2.1,-4.41
-1013,45,-48,-3.71,-2.17,-4.83
-1019,45,-38,-3.64,-2.17,-5.25
-1025,41,-30,-3.5,-1.96,-5.81
-1024,38,-30,-3.15,-1.19,-6.16
-1021,36,-35,-3.08,-0.28,-6.16
-1018,36,-43,-3.36,0.56,-5.88
-1012,36,-48,-3.57,0.91,-5.81
-1011,37,-50,-3.92,0.84,-5.6
-1011,38,-48,-4.06,0.7,-5.32
-1012,39,-46,-4.13,0.7,-4.69
-1011,40,-41,-4.06,0.84,-3.92
-1009,43,-38,-3.99,1.05,-3.15
-1003,49,-37,-3.85,1.33,-2.45
-998,49,-40,-3.57,1.61,-1.89
-996,49,-45,-3.5,1.82,-1.19
-993,54,-48,-3.64,1.68,-0.49
-991,58,-49,-3.64,1.33,0.14
-992,61,-45,-3.43,0.77,0.91
-993,64,-45,-2.87,0.56,1.33
-993,63,-42,-2.38,0.28,1.61
-997,59,-39,-1.89,0.35,1.68
-1000,55,-40,-1.4,0.7,1.61
-998,48,-44,-1.19,1.05,1.61
-998,44,-49,-0.98,1.19,1.75
-997,40,-50,-0.84,0.98,1.96
-996,38,-51,-0.56,0.56,2.17
-994,36,-53,-0.35,0.49,2.38
-994,34,-55,-0.35,0.21,2.38
-994,33,-57,-0.35,0.07,2.24
-994,33,-58,-0.56,-0.07,2.1
-992,33,-58,-0.42,-0.21,1.82
-993,33,-59,-0.28,-0.42,1.33
-996,32,-59,-0.07,-0.56,0.77
-1003,29,-56,0.0,-0.56,0.07
-1004,27,-59,-0.14,-0.35,-0.21
-1001,29,-61,-0.14,-0.28,-0.35
-1001,29,-60,0.0,-0.56,-0.7
-1003,26,-60,0.28,-0.63,-1.4
-1004,24,-60,0.42,-0.49,-2.24
-1006,22,-63,0.49,-0.42,-2.59
-1006,24,-65,0.7,-0.42,-2.73
-1006,26,-68,0.7,-0.49,-3.01
-1009,27,-66,0.63,-0.49,-3.57
-1012,28,-66,0.7,-0.21,-4.06
-1008,31,-67,0.7,0.14,-4.2
-1007,36,-67,1.12,0.28,-4.55
-1009,38,-67,1.54,0.07,-4.97
-1009,40,-64,1.89,0.0,-5.18
-1010,40,-61,2.03,0.21,-5.18
-1015,41,-58,1.96,0.63,-4.97
-1016,43,-55,2.03,1.05,-4.76
-1016,44,-51,2.03,1.47,-4.48
-1016,42,-49,2.52,1.89,-4.27
-1015,42,-46,2.94,2.17,-3.99
-1017,38,-42,3.08,2.45,-3.71
-1014,38,-39,3.22,3.01,-3.15
-1006,39,-38,3.57,3.36,-2.52
-996,39,-42,4.13,3.5,-2.1
-989,37,-46,4.55,3.57,-1.96
-986,34,-53,4.55,3.64,-2.03
-980,30,-56,4.34,3.57,-1.96
-975,28,-61,4.2,3.15,-1.89
-975,24,-63,4.34,2.45,-1.68
-979,22,-62,4.41,1.54,-1.05
-979,22,-63,4.48,0.77,-0.28
-981,27,-60,4.55,0.14,-0.14
-986,27,-59,4.69,0.0,-0.56
-987,24,-64,4.9,0.56,-1.12
-991,20,-71,4.69,0.7,-1.54
-998,13,-74,4.41,0.56,-1.82
-999,10,-78,4.06,0.35,-1.61
-1002,9,-77,3.57,-0.14,-1.47
-1009,6,-72,3.22,-0.49,-1.33
-1013,5,-67,2.87,-0.56,-0.98
-1011,6,-67,2.52,-0.42,-0.35
-1007,9,-68,2.38,-0.49,0.07
-1005,12,-66,2.17,-0.49,0.07
-1004,15,-66,1.89,-0.35,-0.07
-999,13,-68,1.54,-0.21,-0.42
-998,12,-68,1.33,-0.07,-0.7
-998,10,-68,0.91,0.07,-0.91
-999,8,-63,0.77,-0.28,-0.91
-999,10,-60,0.91,-0.49,-0.84
-1000,10,-60,1.05,-0.63,-0.98
-1001,8,-58,1.12,-0.35,-1.26
-1003,9,-60,1.12,-0.21,-1.4
-1003,6,-63,0.84,-0.07,-1.4
-1001,9,-65,0.42,0.0,-1.4
-1000,8,-63,0.0,-0.14,-1.61
-1000,8,-64,-0.07,-0.07,-1.82
-1000,10,-62,-0.21,-0.07,-1.82
-1002,7,-59,-0.28,0.07,-1.82
-1004,6,-59,-0.56,0.42,-1.54
-1001,5,-62,-0.84,0.49,-1.12
-999,7,-64,-0.91,0.21,-0.63
-999,9,-61,-1.12,-0.35,-0.21
-1000,11,-57,-1.12,-0.63,-0.21
-998,15,-56,-1.26,-0.56,-0.21
-994,19,-58,-1.19,-0.35,-0.21
-992,21,-60,-1.05,-0.42,-0.35
-992,22,-61,-0.98,-0.56,-0.56
-990,24,-62,-0.7,-0.63,-0.7
-990,26,-65,-0.49,-0.91,-0.91
-993,25,-64,-0.42,-1.19,-0.98
-996,24,-61,-0.42,-1.19,-1.19
-999,22,-60,-0.42,-1.05,-1.33
-1002,22,-60,-0.28,-0.84,-1.33
-1004,20,-59,-0.28,-0.98,-1.33
-1004,21,-55,-0.14,-1.12,-1.26
-1000,22,-54,0.0,-1.19,-0.91
-996,25,-53,0.35,-1.26,-0.63
-992,26,-54,0.42,-1.33,-0.7
-989,28,-57,0.42,-1.19,-1.05
-988,27,-59,0.28,-1.05,-1.47
-988,25,-59,0.21,-1.05,-1.82
-989,25,-60,0.07,-1.26,-2.03
-991,21,-59,0.07,-1.4,-2.31
-995,16,-58,-0.14,-1.26,-2.24
-999,10,-61,-0.49,-1.26,-1.89
-1000,5,-59,-0.91,-1.47,-1.47
-1004,1,-57,-1.26,-1.75,-0.91
-1008,-3,-57,-1.68,-1.89,-0.28
-1005,-2,-57,-2.24,-1.75,0.35
-1005,0,-59,-3.08,-1.68,0.84
-1001,1,-58,-3.85,-1.75,1.12
-999,4,-58,-4.13,-2.03,1.33
-995,8,-59,-4.27,-2.52,1.54
-995,13,-60,-4.41,-2.87,1.54
-995,18,-59,-4.34,-3.08,1.33
-996,25,-59,-4.34,-2.94,0.98
-998,28,-60,-4.13,-2.73,0.7
-998,30,-62,-3.57,-2.45,0.35
-998,34,-67,-3.29,-2.17,0.07
-996,38,-70,-3.08,-1.96,-0.28
-999,41,-72,-2.87,-1.89,-0.63
-1000,41,-74,-2.31,-1.89,-0.91
-1004,42,-75,-1.68,-1.89,-0.98
-1008,42,-76,-1.47,-2.03,-0.91
-1013,42,-73,-1.4,-1.75,-0.77
-1016,44,-69,-1.54,-1.26,-0.7
-1021,43,-60,-1.47,-0.84,-0.84
-1029,42,-56,-1.12,-0.49,-0.63
-1028,41,-52,-0.49,-0.35,-0.07
-1029,38,-48,0.21,-0.21,0.21
-1030,35,-44,0.7,0.07,0.42
-1025,31,-43,1.05,0.7,0.56
-1023,27,-40,1.33,1.33,0.56
-1022,24,-41,1.61,1.89,0.63
-1013,20,-42,1.68,2.24,0.84
-1008,18,-43,1.96,2.17,0.84
-1003,15,-44,2.38,2.1,0.77
-996,13,-47,2.52,2.24,0.7
-988,11,-53,2.52,2.24,0.56
-979,12,-60,2.59,2.1,0.28
-973,13,-64,2.59,1.54,-0.14
-971,12,-65,2.59,0.91,-0.7
-968,12,-66,2.59,0.42,-1.33
-967,11,-68,2.73,-0.07,-1.89
-969,9,-73,2.87,-0.35,-2.45
-966,7,-78,2.66,-0.56,-2.87
-963,9,-83,2.59,-0.98,-3.5
-966,9,-87,2.52,-1.61,-4.06
-970,7,-91,2.59,-2.17,-4.34
-978,8,-93,2.31,-2.38,-4.34
-981,11,-95,1.82,-2.87,-4.34
-986,14,-95,1.54,-3.43,-4.34
-993,15,-92,1.4,-4.06,-4.2
-1000,16,-89,1.19,-4.34,-4.06
-1008,19,-83,0.7,-4.34,-3.99
-1014,22,-79,0.35,-3.99,-3.71
-1019,24,-74,0.21,-3.78,-3.15
-1025,27,-67,0.21,-3.64,-2.45
-1029,27,-59,0.49,-3.57,-1.61
-1031,29,-56,0.77,-3.15,-0.42
-1028,33,-51,0.98,-2.87,0.63
-1028,36,-46,1.4,-2.52,1.4
-1026,38,-43,1.89,-2.1,1.75
-1029,35,-38,2.38,-1.47,1.82
-1034,32,-31,2.66,-0.84,2.17
-1033,28,-27,3.08,-0.07,2.8
-1029,25,-27,3.5,0.7,3.64
-1025,19,-26,3.78,1.33,4.13
-1021,11,-26,4.13,1.96,4.34
-1015,5,-28,4.2,2.59,4.55
-1006,-2,-34,4.2,2.94,4.76
-997,-8,-41,4.06,3.01,4.97
-988,-12,-44,3.92,2.73,5.04
-980,-15,-48,3.64,2.24,4.97
-973,-20,-51,3.22,1.75,4.69
-969,-24,-58,2.66,1.4,4.27
-960,-26,-66,1.82,1.05,3.78
-957,-26,-68,0.98,0.35,3.22
-956,-25,-73,0.35,-0.56,2.52
-954,-21,-74,-0.21,-1.54,1.82
-956,-16,-78,-0.7,-2.45,1.19
-958,-10,-80,-1.4,-3.22,0.56
-962,-2,-81,-1.89,-3.99,-0.07
-967,2,-83,-2.38,-4.69,-0.77
-974,8,-82,-2.87,-5.25,-1.4
-982,13,-81,-3.22,-5.67,-2.1
-993,18,-75,-3.57,-6.02,-2.8
-1003,22,-70,-3.78,-6.09,-3.29
-1012,25,-68,-3.85,-5.95,-3.43
-1019,28,-62,-4.06,-5.81,-3.43
-1024,31,-59,-3.92,-5.53,-3.29
-1029,35,-55,-3.85,-5.18,-2.87
-1031,38,-48,-3.57,-4.9,-2.52
-1036,40,-43,-3.36,-4.62,-1.89
-1036,43,-37,-3.22,-4.2,-1.26
-1035,49,-33,-2.8,-3.64,-0.63
-1029,53,-30,-2.45,-3.15,-0.42
-1026,57,-28,-1.75,-2.59,-0.42
-1023,58,-25,-1.05,-1.82,-0.42
-1020,58,-28,-0.49,-0.98,-0.21
-1016,56,-30,-0.07,-0.49,0.07
-1012,53,-31,0.35,-0.07,0.56
-1010,49,-37,0.98,0.28,1.05
-1007,46,-42,1.4,0.28,1.33
-1005,41,-45,1.75,0.07,1.4
-1002,36,-48,2.03,0.14,1.61
-1001,34,-50,2.03,0.14,1.54
-1002,30,-50,2.03,0.28,1.4
-999,28,-53,2.1,0.56,1.47
-996,27,-58,2.17,0.63,1.54
-993,26,-60,2.24,0.28,1.54
-992,27,-61,2.31,-0.14,1.4
-990,26,-62,2.17,-0.21,1.12
-989,25,-62,1.75,-0.07,0.49
-992,22,-60,1.54,0.14,-0.28
-992,21,-60,1.54,0.28,-0.63
-992,18,-61,1.68,0.07,-0.77
-991,17,-64,1.75,-0.21,-0.42
-988,19,-66,1.54,-0.7,-0.28
-988,20,-64,1.4,-1.19,-0.35
-990,21,-62,1.26,-1.4,-0.49
-994,21,-59,0.77,-1.61,-0.84
-999,18,-54,0.42,-1.61,-1.12
-1003,18,-50,0.0,-1.54,-1.12
-1005,19,-45,-0.14,-1.68,-0.91
-1007,20,-43,-0.14,-1.75,-0.7
-1007,21,-41,-0.14,-1.82,-0.42
-1009,22,-40,-0.07,-2.1,-0.14
-1009,25,-35,-0.07,-2.31,-0.07
-1009,26,-32,0.07,-2.24,-0.14
-1009,27,-33,0.14,-1.89,-0.21
-1006,30,-37,0.14,-1.47,-0.35
-1001,32,-41,0.28,-1.26,-0.56
-1001,32,-42,0.42,-1.4,-0.84
-999,28,-46,0.7,-1.4,-0.91
-999,27,-48,0.77,-1.33,-0.77
-996,27,-52,0.77,-1.26,-0.84
-994,26,-50,0.77,-1.26,-1.19
-998,25,-50,0.84,-1.19,-1.61
-997,23,-52,0.98,-1.26,-1.68
-998,20,-54,0.98,-1.26,-1.61
-998,21,-56,0.84,-1.47,-1.47
-998,21,-54,0.63,-1.47,-1.47
-1000,21,-53,0.35,-1.33,-1.4
-1001,21,-52,0.42,-1.19,-1.33
-1003,22,-49,0.42,-1.26,-1.19
-1006,20,-48,0.56,-1.33,-1.12
-1007,22,-47,0.56,-1.47,-0.84
-1006,22,-45,0.56,-1.4,-0.91
-1007,23,-45,0.42,-1.05,-1.12
-1007,22,-45,0.28,-0.7,-1.26
-1006,19,-46,0.42,-0.49,-1.19
-1006,17,-49,0.49,-0.56,-0.84
-1006,20,-49,0.56,-1.05,-0.42
-1008,19,-44,0.63,-1.47,-0.21
-1010,18,-43,0.56,-1.19,-0.14
-1009,18,-46,0.28,-0.56,-0.21
-1007,19,-47,0.0,-0.21,-0.49
-1007,19,-48,0.14,-0.07,-0.7
-1007,16,-50,0.35,-0.14,-0.84
-1006,16,-53,0.42,-0.42,-0.7
-1007,15,-53,0.49,-0.56,-0.49
-1004,14,-53,0.28,-0.63,-0.35
-1002,16,-53,0.21,-0.56,-0.49
-999,17,-53,0.21,-0.42,-0.63
-999,17,-51,0.07,-0.28,-0.7
-998,17,-51,-0.07,-0.28,-0.56
-996,20,-51,-0.07,-0.35,-0.56
-998,21,-48,-0.07,-0.56,-0.56
-998,21,-46,0.0,-0.7,-0.42
-996,23,-44,0.0,-0.77,-0.28
-996,24,-44,0.14,-0.63,-0.42
-994,23,-45,0.07,-0.63,-0.63
-994,22,-46,0.14,-0.56,-0.7
-995,22,-45,0.07,-0.77,-0.63
-994,24,-43,0.07,-0.91,-0.56
-996,24,-41,0.21,-0.98,-0.7
-998,21,-44,0.21,-0.91,-0.7
-998,20,-44,0.28,-0.84,-0.42
-997,22,-45,0.28,-1.05,-0.14
-998,22,-43,0.42,-1.4,-0.07
-999,22,-43,0.42,-1.4,-0.21
-1001,22,-45,0.42,-1.26,-0.28
-1003,19,-44,0.49,-1.12,-0.63
-1006,17,-48,0.35,-0.98,-0.77
-1004,17,-51,0.49,-1.05,-0.7
-1003,15,-52,0.77,-1.33,-0.56
-1005,14,-52,0.7,-1.47,-0.49
-1003,14,-53,0.63,-1.26,-0.49
-1003,14,-53,0.35,-1.19,-0.49
-1006,13,-52,0.28,-1.19,-0.49
-1006,12,-52,0.14,-1.05,-0.49
-1008,12,-51,0.0,-0.84,-0.42
-1007,15,-52,-0.35,-0.63,-0.35
-1007,17,-51,-0.56,-0.63,-0.28
-1005,18,-50,-0.56,-0.56,-0.28
-1003,17,-51,-0.63,-0.56,-0.35
-1005,18,-47,-0.56,-0.7,-0.42
-1005,19,-44,-0.56,-0.56,-0.35
-1002,22,-44,-0.56,-0.49,-0.14
-999,23,-47,-0.42,-0.28,0.07
-995,28,-47,-0.49,-0.28,0.14
-994,29,-45,-0.56,-0.49,0.07
-993,31,-43,-0.49,-0.63,-0.07
-992,33,-39,-0.21,-0.91,-0.21
-993,34,-37,0.42,-0.98,-0.49
-995,28,-38,0.77,-0.91,-0.91
-999,23,-40,0.91,-0.84,-1.19
-1003,20,-43,0.7,-0.56,-1.12
-1003,18,-45,0.49,-0.63,-0.98
-1007,16,-47,0.56,-0.7,-0.91
-1008,12,-47,0.42,-0.84,-0.7
-1009,11,-50,0.28,-0.84,-0.28
-1007,13,-50,0.14,-0.98,0.14
-1004,15,-52,0.14,-1.12,0.07
-1004,14,-51,0.07,-0.98,-0.14
-1001,15,-50,-0.28,-0.7,-0.21
-1000,18,-50,-0.49,-0.42,-0.35
-1001,20,-48,-0.42,-0.49,-0.35
-1002,21,-47,-0.35,-0.63,-0.21
-999,22,-47,-0.14,-0.63,0.0
-998,25,-48,-0.14,-0.77,0.21
-997,26,-45,-0.07,-0.77,0.0
-998,26,-46,-0.14,-0.63,-0.35
-996,24,-48,-0.07,-0.35,-0.56
-998,23,-48,-0.07,-0.35,-0.77
-1001,22,-45,0.0,-0.56,-0.84
-1005,20,-42,0.14,-0.7,-0.91
-1007,17,-40,0.14,-0.7,-0.84
-1008,17,-41,0.07,-0.7,-0.49
-1004,18,-44,0.07,-0.77,-0.14
-1003,17,-46,0.07,-0.98,0.0
-1001,21,-47,-0.14,-0.91,0.07
-997,23,-46,-0.35,-0.84,0.0
-998,24,-46,-0.28,-0.7,-0.28
-998,23,-46,-0.07,-0.7,-0.56
-998,23,-47,0.0,-0.77,-0.42
-998,24,-49,0.21,-1.05,-0.28
-1001,22,-50,0.28,-1.26,-0.35
-1003,23,-50,0.21,-1.12,-0.7
-1004,22,-48,0.0,-0.84,-0.91
-1007,20,-48,-0.14,-0.7,-1.12
-1008,20,-48,0.14,-0.56,-1.19
-1011,17,-48,0.28,-0.63,-1.05
-1011,18,-48,0.35,-0.56,-0.77
-1011,16,-48,0.21,-0.35,-0.63
-1009,17,-49,0.14,0.0,-0.49
-1006,19,-51,0.21,0.14,-0.49
-1005,19,-51,0.21,0.0,-0.56
-1003,20,-51,0.28,-0.07,-0.56
-1000,21,-51,0.35,-0.14,-0.49
-1000,22,-49,0.14,-0.14,-0.42
-1001,21,-47,0.07,0.0,-0.49
-1000,22,-47,0.0,0.14,-0.49
-999,22,-45,0.0,0.21,-0.42
-998,22,-45,0.0,0.14,-0.35
-995,25,-45,0.21,0.0,-0.42
-995,24,-45,0.49,-0.14,-0.49
-995,23,-46,0.56,-0.28,-0.49
-995,23,-46,0.35,-0.42,-0.42
-998,24,-43,0.21,-0.56,-0.56
-999,22,-40,0.42,-0.49,-0.91
-1001,22,-41,0.56,-0.28,-0.91
-999,21,-44,0.7,-0.21,-0.77
-998,19,-47,0.91,-0.35,-0.63
-1000,15,-49,0.84,-0.49,-0.49
-998,15,-51,0.7,-0.56,-0.28
-998,15,-50,0.56,-0.7,-0.35
-1000,14,-51,0.49,-0.77,-0.42
-1003,12,-51,0.35,-0.7,-0.42
-1001,13,-51,0.14,-0.77,-0.42
-1000,15,-51,0.28,-0.77,-0.28
-999,14,-53,0.21,-0.77,-0.28
-999,15,-52,0.14,-0.77,-0.28
-1000,15,-51,-0.07,-0.7,-0.28
-999,17,-51,-0.28,-0.7,-0.14
-999,19,-51,-0.21,-0.91,-0.14
-1001,19,-48,-0.14,-1.19,-0.21
-1002,19,-45,0.0,-1.05,-0.42
-1004,19,-46,0.07,-0.84,-0.63
-1005,17,-47,0.0,-0.63,-0.7
-1006,15,-49,0.0,-0.42,-0.7
-1001,18,-50,0.0,-0.63,-0.56
-1003,18,-48,0.14,-0.91,-0.42
-1003,19,-48,0.0,-0.91,-0.35
-1000,22,-48,-0.07,-0.84,-0.14
-999,23,-48,0.0,-0.77,-0.14
-1000,24,-48,0.0,-0.91,-0.28
-1000,23,-44,0.21,-0.98,-0.42
-1000,23,-41,0.49,-0.84,-0.56
-1001,21,-44,0.63,-0.56,-0.7
-1000,20,-47,0.7,-0.42,-0.7
-998,19,-51,0.7,-0.63,-0.56
-997,19,-53,0.84,-0.91,-0.35
-998,17,-51,0.84,-1.26,-0.42
-1000,15,-48,0.77,-1.26,-0.49
-1003,14,-46,0.49,-0.91,-0.56
-1005,12,-45,0.14,-0.63,-0.7
-1008,11,-45,0.14,-0.56,-0.63
-1009,10,-49,0.14,-0.63,-0.28
-1005,13,-49,0.28,-0.77,0.0
-1003,16,-49,0.21,-0.84,0.07
-1003,15,-50,0.07,-0.84,-0.07
-1003,17,-52,0.0,-0.63,-0.07
-1001,17,-50,-0.21,-0.56,-0.14
-1004,16,-47,-0.28,-0.56,-0.14
-1003,18,-47,-0.42,-0.49,0.07
-1002,20,-45,-0.42,-0.49,0.28
-1001,21,-46,-0.14,-0.49,0.14
-1002,21,-44,-0.07,-0.56,-0.07
-1002,21,-45,0.07,-0.56,-0.21
-1000,21,-44,0.14,-0.56,-0.07
-1001,22,-44,0.14,-0.42,0.07
-1001,23,-46,0.28,-0.35,0.14
-1001,22,-47,0.21,-0.21,0.07
-1001,21,-48,0.14,-0.14,0.0
-1002,19,-47,0.0,-0.21,-0.21
-1002,18,-49,0.07,-0.21,-0.28
-1001,17,-48,0.14,-0.49,0.0
