acc_x[mg],acc_y[mg],acc_z[mg],gyro_x[dps],gyro_y[dps],gyro_z[dps]
-1003,-30,-62,0.56,-0.42,-0.42
-1002,-29,-63,0.35,-0.35,-0.28
-1001,-27,-64,0.21,-0.28,-0.21
-1000,-28,-64,0.14,-0.21,-0.28
-1001,-29,-65,-0.07,-0.28,-0.49
-1000,-27,-64,-0.21,-0.21,-0.49
-1000,-23,-65,-0.35,-0.07,-0.63
-1001,-25,-63,-0.35,0.0,-0.84
-1002,-27,-66,-0.28,0.0,-1.05
-1002,-30,-66,-0.42,-0.14,-0.98
-1002,-30,-65,-0.42,-0.28,-0.91
-1001,-31,-64,-0.49,-0.42,-0.77
-1001,-31,-67,-0.56,-0.49,-0.91
-1000,-29,-63,-0.91,-0.35,-1.19
-999,-24,-60,-1.4,0.07,-1.68
-999,-19,-59,-1.4,0.63,-2.38
-1001,-22,-61,-1.12,0.98,-3.08
-1002,-28,-65,-1.19,1.33,-3.71
-1001,-31,-68,-1.33,1.61,-3.78
-1001,-31,-69,-1.33,1.47,-3.5
-1001,-34,-69,-1.05,1.19,-3.43
-1002,-38,-71,-0.7,0.77,-3.15
-1002,-44,-73,-0.21,0.14,-2.31
-1002,-45,-73,-0.21,-0.42,-1.4
-1000,-41,-71,-0.42,-0.7,-0.91
-999,-39,-69,-0.42,-0.91,-0.49
-1001,-37,-67,-0.35,-1.26,-0.14
-1001,-33,-66,-0.07,-1.33,0.14
-999,-29,-65,0.14,-1.19,0.21
-999,-28,-64,0.0,-1.12,-0.07
-1002,-29,-65,0.07,-0.84,-0.56
-1000,-31,-67,0.07,-0.63,-0.84
-1001,-34,-67,0.07,-0.56,-0.98
-1001,-33,-66,0.0,-0.7,-0.84
-1002,-32,-65,0.0,-0.7,-0.7
-998,-33,-65,0.14,-0.42,-0.77
-1000,-35,-67,0.28,-0.28,-0.98
-1002,-37,-67,0.35,-0.28,-0.91
-1001,-37,-69,0.35,-0.49,-0.56
-1000,-36,-66,0.28,-0.7,-0.35
-1001,-34,-66,0.21,-0.63,-0.56
-1003,-35,-64,0.21,-0.49,-0.56
-1001,-34,-67,0.28,-0.35,-0.42
-998,-31,-66,0.07,-0.35,-0.49
-999,-27,-67,0.14,-0.21,-0.91
-1000,-30,-68,0.28,-0.07,-1.33
-1001,-33,-68,0.28,-0.07,-1.54
-1001,-35,-70,0.28,-0.14,-1.54
-999,-34,-69,0.07,-0.14,-1.61
-1001,-35,-67,0.07,-0.07,-1.89
-1001,-36,-67,0.0,-0.14,-1.75
-1000,-37,-68,-0.28,-0.14,-1.68
-1000,-33,-67,-0.49,0.07,-1.96
-1000,-33,-67,-0.7,0.14,-2.17
-1002,-35,-67,-0.7,0.28,-2.38
-1003,-37,-68,-0.7,0.28,-2.24
-999,-37,-68,-0.84,0.28,-2.24
-999,-35,-66,-0.98,0.63,-2.59
-1000,-32,-65,-1.26,0.98,-3.15
-1001,-34,-66,-1.19,1.26,-3.57
-1001,-36,-67,-1.26,1.4,-3.78
-1001,-35,-66,-1.4,1.33,-4.06
-997,-38,-69,-1.47,1.33,-4.83
-1001,-40,-68,-1.19,1.75,-4.83
-1002,-46,-71,-1.26,2.1,-4.9
-999,-48,-72,-1.33,2.31,-4.62
-1005,-53,-77,-0.84,1.75,-3.64
-1002,-58,-79,-0.42,0.63,-2.03
-1000,-57,-82,-0.28,-0.21,-0.91
-998,-52,-79,-0.35,-0.77,-0.14
-1000,-45,-75,-0.49,-0.91,0.07
-1001,-40,-72,-0.28,-0.84,0.21
-1000,-39,-74,0.0,-1.05,0.35
-999,-39,-74,0.14,-1.47,0.35
-997,-39,-75,0.14,-1.54,0.0
-998,-37,-71,-0.21,-1.4,-0.56
-1002,-35,-70,-0.28,-1.05,-0.91
-1001,-38,-71,-0.07,-0.77,-1.12
-999,-44,-73,0.28,-0.84,-1.19
-1000,-50,-76,0.35,-1.05,-1.05
-1002,-52,-77,0.14,-1.33,-0.63
-998,-48,-73,0.14,-1.47,-0.07
-999,-43,-73,0.28,-1.75,0.21
-1001,-43,-72,0.56,-1.96,0.28
-1000,-45,-72,0.84,-1.89,0.42
-1001,-44,-71,0.56,-2.17,0.56
-997,-41,-69,0.07,-2.52,-0.28
-1002,-37,-65,0.14,-1.82,-0.35
-1001,-37,-65,0.35,-1.61,-0.28
-999,-36,-64,0.63,-1.33,-0.42
-998,-40,-67,0.7,-0.91,-0.98
-999,-43,-68,0.63,-0.77,-1.26
-1002,-48,-71,0.28,-0.84,-1.19
-1003,-48,-71,0.07,-0.91,-0.91
-1001,-46,-71,-0.14,-0.77,-0.56
-1001,-46,-71,-0.28,-0.84,-0.28
-1002,-45,-69,-0.28,-0.91,-0.07
-1001,-42,-67,-0.21,-0.91,0.21
-999,-40,-66,0.0,-0.77,0.28
-1000,-40,-65,0.14,-0.49,-0.07
-1001,-43,-66,0.21,-0.28,-0.21
-1001,-47,-71,0.21,-0.14,-0.28
-1001,-47,-70,-0.21,-0.14,-0.21
-1001,-43,-70,-0.28,-0.21,0.0
-1001,-42,-70,-0.21,-0.35,0.21
-1001,-43,-70,0.14,-0.28,0.28
-1001,-47,-71,0.35,-0.35,0.56
-1000,-48,-72,0.14,-0.49,0.91
-1001,-48,-73,0.0,-0.77,1.26
-1002,-48,-74,-0.07,-1.26,1.96
-1001,-46,-74,0.07,-1.68,2.8
-1000,-45,-75,0.21,-2.17,3.36
-1001,-47,-74,0.14,-2.66,3.64
-1001,-43,-69,-0.14,-2.8,3.99
-1000,-39,-67,-0.56,-2.73,4.06
-999,-33,-64,-0.7,-2.52,3.78
-1001,-28,-62,-0.91,-2.03,3.15
-1000,-28,-61,-0.91,-1.54,2.38
-999,-26,-63,-0.98,-0.98,1.75
-996,-23,-63,-1.19,-0.42,0.98
-999,-23,-65,-1.19,0.14,-0.21
-999,-26,-67,-0.91,0.35,-1.12
-1001,-33,-71,-0.42,0.07,-1.4
-1000,-36,-73,0.14,-0.49,-1.19
-1000,-40,-73,0.28,-0.98,-1.05
-1000,-39,-72,0.28,-1.05,-0.91
-1000,-38,-71,-0.07,-0.91,-0.7
-1002,-38,-68,-0.14,-0.63,-0.7
-1002,-37,-68,-0.07,-0.49,-0.56
-999,-36,-66,0.0,-0.49,-0.56
-1000,-35,-65,0.07,-0.35,-0.77
-1000,-34,-64,0.07,-0.07,-1.05
-1000,-35,-65,0.14,0.21,-1.4
-1000,-34,-69,0.14,0.49,-1.68
-999,-35,-72,0.28,0.35,-1.82
-1002,-37,-74,0.42,0.0,-1.75
-1000,-38,-73,0.42,-0.14,-1.61
-998,-37,-72,0.35,-0.14,-1.54
-999,-36,-71,0.28,-0.14,-1.68
-1001,-35,-70,-0.07,0.07,-1.96
-1000,-32,-66,-0.42,0.49,-2.45
-998,-29,-63,-0.84,1.19,-3.29
-1000,-33,-66,-0.91,2.1,-4.34
-1004,-39,-69,-0.77,2.17,-4.62
-1001,-45,-75,-0.7,1.68,-3.92
-998,-48,-77,-0.63,0.98,-3.5
-999,-50,-77,-0.91,0.56,-3.36
-1002,-49,-75,-1.19,0.49,-3.01
-1001,-44,-72,-1.54,0.56,-2.87
-996,-39,-72,-1.82,0.77,-3.08
-997,-35,-69,-2.1,1.19,-3.85
-1001,-36,-69,-1.96,1.54,-4.34
-1002,-41,-71,-1.4,1.19,-4.2
-1001,-47,-74,-1.12,0.91,-3.99
-1001,-54,-76,-0.7,0.49,-3.29
-1000,-62,-80,-0.49,-0.21,-2.24
-1001,-63,-81,-0.49,-0.77,-1.33
-999,-59,-80,-0.63,-1.19,-0.7
-1000,-53,-76,-0.7,-1.47,-0.21
-1000,-45,-73,-0.7,-1.61,-0.14
-999,-40,-70,-0.63,-1.54,-0.42
-1000,-39,-69,-0.35,-1.54,-0.7
-999,-38,-69,0.07,-1.4,-0.77
-998,-39,-71,0.21,-1.19,-1.12
-1000,-43,-71,0.35,-0.77,-1.82
-999,-48,-76,0.21,-0.7,-2.17
-999,-47,-76,-0.07,-0.7,-2.31
-1000,-45,-75,0.0,-0.7,-2.59
-999,-46,-75,0.14,-0.84,-2.66
-998,-47,-74,0.21,-0.98,-2.94
-1000,-45,-71,-0.07,-0.84,-3.57
-997,-44,-71,-0.35,-0.49,-4.41
-999,-41,-65,-0.49,0.14,-4.69
-997,-41,-65,-1.12,1.12,-6.02
-996,-41,-62,-1.82,2.52,-7.91
-1001,-41,-60,-2.8,4.41,-9.8
-1003,-40,-57,-3.43,6.3,-10.92
-1000,-44,-61,-4.06,7.42,-11.76
-998,-50,-68,-4.41,8.47,-12.88
-998,-62,-75,-4.55,9.03,-13.65
-1003,-71,-83,-4.27,8.96,-13.09
-1002,-83,-93,-3.5,7.98,-11.41
-1000,-95,-103,-2.59,6.65,-9.38
-998,-103,-112,-1.75,4.27,-6.51
-1002,-109,-116,-0.84,1.68,-3.08
-1003,-107,-114,-0.21,-1.4,1.05
-997,-98,-110,0.21,-3.78,4.41
-997,-85,-99,0.49,-5.39,6.51
-999,-74,-90,0.84,-6.23,7.84
-999,-63,-83,1.47,-6.93,8.75
-996,-54,-79,1.89,-7.21,9.03
-996,-48,-75,2.31,-6.93,8.19
-995,-48,-72,2.38,-6.3,7.0
-999,-45,-71,2.1,-5.46,5.6
-998,-42,-67,1.68,-4.2,3.99
-994,-38,-65,1.26,-2.8,1.96
-994,-35,-65,0.98,-1.26,-0.42
-996,-38,-66,0.63,0.0,-2.59
-1000,-44,-71,0.56,0.98,-4.27
-999,-53,-77,0.49,1.61,-5.25
-999,-62,-82,0.42,1.61,-5.53
-1001,-71,-87,0.56,1.19,-5.04
-1003,-77,-89,0.56,0.28,-3.78
-1000,-79,-89,0.63,-0.49,-2.31
-1000,-75,-88,0.63,-1.4,-0.84
-998,-74,-85,0.77,-1.89,0.21
-999,-72,-84,0.91,-2.52,1.19
-1000,-68,-80,0.7,-2.87,2.03
-999,-61,-76,0.49,-2.87,2.52
-995,-55,-72,0.28,-2.73,2.45
-998,-53,-71,0.28,-2.38,1.75
-1001,-52,-71,0.42,-1.96,1.12
-1000,-55,-73,0.77,-1.96,1.12
-998,-60,-77,1.12,-2.1,1.05
-998,-62,-78,0.91,-1.82,0.7
-999,-61,-80,0.77,-1.75,0.63
-998,-59,-76,0.84,-1.75,0.84
-997,-58,-78,0.91,-1.75,0.63
-1000,-60,-78,1.05,-1.96,0.49
-1001,-59,-76,1.19,-2.38,0.84
-998,-55,-74,1.4,-2.31,0.84
-997,-52,-71,1.54,-1.96,0.0
-997,-53,-70,1.54,-1.54,-0.98
-1000,-54,-72,1.47,-1.05,-1.61
-1000,-54,-72,1.19,-0.77,-2.1
-999,-54,-74,0.98,-0.56,-2.45
-998,-57,-76,0.91,-0.49,-2.59
-1000,-61,-77,0.91,-0.63,-2.45
-999,-65,-78,0.77,-0.7,-2.17
-999,-63,-76,0.49,-0.91,-1.96
-999,-63,-75,0.42,-1.05,-1.75
-1001,-63,-73,0.7,-0.98,-1.54
-1000,-69,-73,0.77,-1.12,-0.91
-999,-68,-75,0.56,-1.19,-0.28
-999,-63,-73,0.35,-1.33,-0.07
-1000,-63,-73,0.35,-1.33,0.0
-1000,-64,-72,0.42,-1.4,0.21
-1000,-63,-75,0.42,-1.4,0.49
-1000,-62,-73,0.42,-1.4,0.56
-999,-59,-72,0.28,-1.33,0.56
-999,-59,-73,0.35,-1.19,0.49
-998,-60,-72,0.28,-1.19,0.49
-1000,-60,-72,0.49,-1.4,0.7
-1001,-62,-75,0.91,-1.75,1.19
-1001,-64,-76,1.19,-2.52,1.89
-997,-67,-79,1.12,-2.52,2.1
-998,-65,-78,0.7,-2.66,2.17
-1000,-61,-72,0.63,-2.87,2.45
-999,-53,-69,0.77,-2.87,2.59
-998,-51,-67,1.12,-2.94,2.17
-1000,-52,-67,1.54,-2.73,1.61
-1000,-51,-66,1.47,-2.45,1.26
-998,-49,-65,1.33,-1.82,0.56
-999,-48,-63,1.19,-1.4,-0.14
-998,-48,-63,1.05,-0.91,-0.91
-999,-50,-64,0.98,-0.35,-1.82
-1000,-51,-67,0.77,0.21,-2.52
-1000,-54,-67,0.49,0.77,-3.01
-999,-56,-69,0.42,1.12,-3.29
-1002,-61,-72,0.35,1.12,-3.22
-1001,-65,-74,0.42,0.98,-2.73
-1001,-68,-76,0.56,0.56,-1.96
-1002,-70,-78,0.77,0.07,-1.05
-1001,-67,-74,0.77,-0.28,-0.14
-1000,-65,-73,0.84,-0.63,0.56
-998,-63,-71,1.05,-0.98,1.05
-998,-63,-71,0.98,-1.19,1.05
-1002,-62,-72,0.84,-1.33,1.19
-998,-59,-72,0.56,-1.54,1.54
-998,-54,-70,0.28,-1.47,1.33
-999,-50,-71,0.21,-1.33,0.84
-999,-54,-73,0.35,-1.26,0.49
-1001,-60,-78,0.49,-1.68,0.42
-1001,-59,-77,0.42,-2.38,1.05
-999,-56,-75,0.49,-2.8,1.4
-998,-55,-72,0.56,-2.94,1.47
-1001,-57,-69,0.63,-3.01,1.47
-1002,-55,-66,0.42,-2.94,1.47
-997,-50,-63,0.28,-2.73,1.26
-995,-49,-61,0.42,-2.24,0.56
-1001,-53,-63,0.56,-1.89,-0.28
-1001,-56,-64,0.56,-1.75,-0.42
-999,-55,-68,0.56,-1.82,-0.35
-998,-55,-69,0.56,-2.03,-0.42
-1001,-57,-69,0.56,-2.17,-0.7
-998,-58,-70,0.49,-2.52,-0.7
-999,-55,-71,0.42,-3.08,-0.77
-995,-53,-70,0.42,-4.06,-0.98
-1003,-51,-66,0.49,-4.48,-1.4
-1001,-53,-66,0.77,-4.27,-1.4
-1001,-54,-64,0.84,-4.06,-1.33
-1001,-59,-65,0.77,-3.99,-1.26
-1002,-62,-65,0.49,-4.2,-1.12
-1003,-59,-63,0.14,-4.83,-0.56
-1001,-55,-61,0.0,-5.6,0.0
-999,-53,-57,0.14,-5.67,-0.21
-999,-52,-56,0.35,-5.53,-0.77
-1000,-56,-55,0.35,-5.18,-1.26
-1000,-56,-55,0.42,-5.04,-1.75
-1001,-54,-56,0.56,-5.32,-2.03
-1002,-61,-57,0.42,-4.9,-2.1
-1000,-62,-59,0.42,-4.34,-2.1
-1000,-65,-59,0.28,-4.06,-1.61
-1000,-62,-56,0.14,-4.27,-1.05
-1000,-57,-53,0.35,-4.41,-0.7
-1000,-58,-49,0.49,-4.27,-0.77
-1001,-59,-48,0.56,-3.99,-0.7
-1000,-58,-50,0.49,-3.64,-0.84
-1002,-55,-50,0.49,-3.71,-1.19
-1002,-56,-51,0.63,-3.78,-1.33
-1001,-60,-52,0.56,-3.92,-1.47
-999,-61,-51,0.28,-3.64,-1.4
-999,-58,-52,-0.07,-3.22,-1.4
-1000,-59,-53,-0.14,-3.08,-1.26
-1001,-59,-52,-0.14,-3.22,-1.05
-1000,-58,-48,-0.07,-3.36,-0.77
-999,-57,-44,0.07,-3.01,-0.63
-1001,-62,-42,0.14,-2.38,-0.49
-1002,-63,-41,0.21,-1.75,-0.28
-1000,-63,-43,0.14,-1.33,0.14
-1003,-65,-46,0.21,-1.4,0.35
-1001,-63,-46,0.21,-1.61,0.77
-1000,-60,-45,0.14,-1.54,0.91
-1000,-58,-45,0.21,-1.33,0.84
-1002,-60,-46,0.35,-1.19,0.7
-1003,-61,-48,0.35,-1.47,0.98
-1004,-60,-48,0.56,-1.82,1.54
-1001,-57,-49,0.77,-2.24,2.1
-1002,-59,-50,1.12,-2.52,2.24
-1001,-61,-49,1.19,-2.66,2.38
-1002,-60,-48,1.05,-2.8,2.59
-1000,-55,-43,0.98,-2.73,2.73
-1000,-49,-38,0.91,-2.31,2.59
-999,-45,-34,0.91,-1.4,1.96
-1000,-45,-32,0.98,-0.49,1.19
-999,-44,-34,1.05,0.35,0.49
-1000,-45,-34,1.12,1.47,-0.56
-999,-50,-38,1.12,2.38,-1.33
-1001,-59,-47,0.91,2.87,-1.89
-1005,-60,-52,0.42,2.94,-1.82
-1002,-59,-54,0.0,2.59,-1.19
-999,-53,-55,-0.07,1.96,-0.77
-1000,-51,-55,-0.14,1.26,-0.84
-1000,-51,-55,-0.14,0.98,-1.19
-1002,-54,-57,-0.42,0.56,-1.4
-1003,-53,-56,-0.63,-0.07,-1.33
-1005,-52,-53,-0.7,-0.77,-1.19
-1001,-53,-52,-0.42,-1.54,-0.84
-1000,-56,-50,-0.21,-1.96,-0.56
-1001,-57,-46,-0.35,-2.03,-0.56
-1001,-58,-45,-0.35,-1.82,-0.42
-999,-56,-42,-0.35,-1.54,-0.21
-1000,-54,-41,-0.21,-1.26,-0.28
-1001,-56,-40,0.0,-0.84,-0.56
-1002,-58,-40,0.14,-0.42,-0.7
-1001,-58,-41,0.21,0.0,-0.63
-1002,-59,-40,0.42,0.28,-0.56
-1000,-58,-41,0.63,0.56,-0.49
-999,-57,-42,0.77,0.98,-0.35
-999,-55,-44,0.77,1.47,-0.49
-1001,-57,-47,0.84,1.89,-0.84
-1002,-58,-51,0.63,2.1,-0.84
-1001,-57,-52,0.63,2.03,-0.49
-1001,-58,-56,0.49,1.75,-0.21
-1002,-60,-57,0.21,1.4,0.07
-1001,-56,-56,0.0,1.26,0.49
-998,-53,-54,-0.14,1.05,0.7
-1001,-52,-52,0.0,0.91,0.56
-1000,-55,-53,0.07,1.05,0.49
-1000,-55,-54,-0.21,1.19,0.28
-1001,-53,-52,-0.35,1.4,0.0
-1001,-52,-52,-0.35,1.4,0.07
-1001,-54,-51,-0.07,1.26,0.28
-1000,-55,-52,0.14,1.26,0.28
-1000,-58,-51,0.14,1.4,0.14
-1001,-58,-51,0.0,1.75,0.14
-998,-55,-51,-0.35,2.17,0.35
-1000,-53,-53,-0.63,2.59,0.14
-1002,-54,-53,-0.63,2.73,-0.14
-1003,-54,-55,-0.42,2.73,-0.14
-999,-55,-58,-0.28,2.66,0.07
-998,-53,-60,-0.42,2.73,0.0
-999,-53,-61,-0.42,2.94,-0.21
-1001,-51,-60,-0.49,3.08,-0.42
-1000,-52,-57,-0.28,3.15,-0.42
-1000,-51,-55,0.0,3.29,-0.28
-1001,-52,-57,0.14,3.43,-0.21
-999,-54,-60,0.42,3.64,-0.42
-999,-57,-62,0.42,3.71,-0.63
-1002,-61,-64,0.21,3.64,-0.77
-1003,-56,-64,0.07,3.5,-0.42
-1001,-54,-66,0.28,3.15,0.21
-998,-50,-65,0.63,2.73,0.35
-1000,-50,-66,0.84,2.73,-0.07
-1000,-53,-67,1.12,2.59,-0.35
-1001,-57,-67,1.33,2.45,-0.35
-1004,-59,-68,1.19,2.38,0.0
-1000,-57,-68,1.05,1.96,0.7
-999,-55,-68,0.98,1.4,1.26
-998,-56,-71,0.7,1.12,1.05
-1000,-54,-70,0.14,1.12,0.49
-1000,-49,-68,0.0,1.33,0.49
-1000,-48,-69,0.21,1.54,0.49
-1002,-51,-70,0.35,1.33,0.56
-1000,-53,-71,0.56,1.05,0.91
-1000,-54,-73,0.56,0.84,1.19
-998,-52,-72,0.49,0.7,1.05
-1001,-50,-68,0.63,0.77,0.84
-1001,-48,-67,0.63,0.91,0.84
-1002,-49,-66,0.91,1.33,0.7
-1001,-51,-67,0.98,1.68,0.84
-999,-50,-66,1.05,2.03,0.77
-1000,-50,-67,1.19,2.45,0.77
-999,-52,-68,1.19,3.01,0.63
-997,-54,-75,0.98,3.57,0.14
-994,-55,-79,0.35,3.36,-0.42
-1000,-51,-82,0.35,2.8,-0.49
-1001,-49,-83,0.49,1.68,0.0
-998,-49,-84,0.7,0.84,0.21
-998,-51,-83,0.63,0.35,0.07
-1000,-47,-80,0.35,0.28,0.28
-997,-39,-73,0.28,0.77,0.0
-993,-44,-73,0.49,1.96,-0.84
-1002,-46,-78,0.07,2.59,-1.26
-998,-47,-77,-0.21,3.15,-1.61
-1000,-46,-81,-0.28,3.22,-1.75
-999,-46,-77,0.14,2.73,-2.17
-1003,-52,-85,0.28,2.17,-2.31
-1001,-55,-84,0.49,1.19,-2.17
-1000,-56,-85,0.56,0.7,-1.89
-999,-55,-82,0.49,0.07,-1.61
-1001,-55,-85,0.7,-0.21,-1.4
-999,-56,-78,0.7,-0.7,-1.4
-1002,-56,-79,0.7,-0.42,-1.05
-999,-55,-78,0.63,-0.35,-0.56
-999,-54,-77,0.56,-0.07,-0.35
-1000,-53,-79,0.49,0.14,-0.42
-999,-54,-81,0.42,0.07,-0.49
-999,-52,-80,0.28,-0.07,-0.49
-999,-50,-81,0.21,-0.21,-0.56
-998,-48,-81,0.42,-0.35,-0.7
-1000,-51,-80,0.63,-0.56,-0.84
-999,-54,-82,0.63,-0.63,-0.77
-1000,-54,-81,0.49,-0.56,-0.63
-1001,-57,-81,0.35,-0.49,-0.63
-1000,-58,-81,0.35,-0.49,-0.42
-1001,-60,-83,0.21,-0.77,0.14
-998,-58,-81,-0.14,-0.98,0.56
-1000,-52,-78,-0.35,-0.77,0.7
-999,-51,-78,-0.28,-0.63,0.7
-998,-50,-80,-0.14,-0.49,0.49
-997,-49,-81,-0.35,-0.42,0.07
-1000,-47,-84,-0.28,-0.56,-0.21
-997,-48,-85,0.07,-0.7,-0.28
-997,-50,-85,0.28,-0.84,-0.42
-998,-54,-88,0.35,-1.12,-0.49
-1000,-58,-90,0.0,-1.61,-0.42
-999,-58,-94,-0.56,-2.45,-0.07
-998,-55,-92,-1.26,-3.22,0.28
-998,-47,-85,-1.75,-3.78,0.42
-997,-42,-84,-1.19,-3.99,0.21
-996,-44,-80,-0.63,-4.2,-0.07
-996,-49,-82,-0.21,-4.27,-0.63
-997,-55,-84,-0.35,-4.76,-1.19
-999,-53,-82,-0.84,-5.53,-1.54
-997,-42,-77,-1.05,-6.44,-1.82
-997,-38,-71,-0.7,-6.65,-2.52
-1000,-39,-65,-0.14,-6.58,-3.5
-1000,-45,-63,0.35,-6.23,-4.55
-1001,-48,-60,0.7,-5.81,-4.9
-1002,-53,-58,1.12,-5.18,-5.25
-1003,-63,-57,1.05,-4.13,-5.11
-1003,-67,-58,0.91,-2.66,-4.27
-1000,-69,-61,0.63,-1.33,-3.5
-1002,-69,-60,0.56,-0.56,-3.15
-1004,-72,-63,0.91,-0.42,-2.45
-1002,-74,-67,1.12,-0.63,-1.19
-998,-69,-68,1.05,-0.63,-0.14
-1000,-63,-68,0.84,-0.7,0.07
-1004,-58,-70,0.98,-0.77,0.14
-1000,-55,-72,1.26,-1.05,0.49
-999,-53,-74,1.19,-1.33,0.49
-998,-51,-74,0.91,-1.05,0.0
-997,-49,-72,0.77,-0.63,-0.56
-998,-49,-72,0.77,-0.56,-0.56
-999,-53,-75,0.7,-0.56,-0.7
-999,-61,-81,0.28,-0.56,-1.05
-998,-66,-83,-0.21,-0.98,-0.91
-1001,-64,-83,-0.77,-1.54,-0.42
-1001,-59,-77,-0.91,-2.24,0.14
-999,-57,-72,-0.63,-2.87,0.49
-999,-56,-67,-0.56,-3.15,0.63
-1001,-55,-63,-0.49,-2.87,0.49
-1001,-56,-59,-0.28,-2.59,0.42
-1000,-56,-60,-0.07,-2.59,0.35
-1000,-54,-60,0.14,-2.38,0.14
-998,-53,-58,0.49,-2.1,-0.14
-999,-58,-60,0.84,-1.54,-0.63
-1000,-61,-61,0.98,-0.84,-0.84
-999,-62,-63,0.84,-0.63,-0.63
-1000,-61,-64,0.56,-0.49,-0.49
-1000,-57,-65,0.35,-0.49,-0.42
-1000,-56,-65,0.42,-0.42,-0.49
-1000,-58,-67,0.56,-0.35,-0.35
-999,-59,-68,0.77,-0.42,0.07
-1000,-58,-70,0.63,-0.49,0.35
-999,-56,-68,0.42,-0.63,0.42
-999,-56,-67,0.42,-0.49,0.21
-999,-54,-68,0.28,-0.49,0.28
-1000,-54,-68,0.21,-0.49,0.14
-1000,-55,-69,0.07,-0.49,0.07
-999,-56,-69,-0.14,-0.77,0.21
-1000,-55,-67,-0.28,-0.77,0.07
-999,-55,-67,-0.28,-0.84,0.14
-998,-55,-67,-0.07,-0.77,0.21
-999,-55,-68,0.0,-0.77,0.28
-999,-53,-66,0.14,-0.63,0.0
-1001,-54,-69,0.28,-0.63,-0.28
-1001,-54,-68,0.28,-0.77,-0.35
-1002,-54,-69,0.21,-0.77,-0.42
-998,-54,-67,0.28,-0.84,-0.35
-998,-55,-68,0.56,-0.77,-0.56
-1002,-58,-67,0.77,-0.91,-0.56
-1002,-57,-65,0.84,-1.05,-0.14
-999,-58,-63,1.12,-1.05,0.07
-999,-57,-61,1.26,-0.91,0.0
-1001,-59,-61,1.4,-0.63,0.0
-1003,-61,-60,1.19,-0.42,0.21
-1001,-61,-62,0.84,-0.21,0.42
-1000,-58,-59,0.77,-0.07,0.63
-999,-59,-60,0.7,0.14,0.63
-1000,-57,-63,0.56,0.21,0.35
-1001,-55,-64,0.21,0.49,0.0
-999,-53,-67,0.07,0.56,0.07
-998,-51,-69,0.0,0.56,-0.07
-1000,-51,-70,-0.07,0.42,-0.28
-1000,-50,-70,-0.14,0.42,-0.21
-999,-51,-69,-0.14,0.42,-0.35
-1001,-53,-69,-0.14,0.63,-0.56
-1000,-55,-71,-0.14,0.77,-0.56
-998,-55,-73,-0.35,0.7,-0.35
-999,-54,-74,-0.42,0.63,-0.28
-1000,-52,-73,-0.42,0.28,-0.14
-999,-53,-76,-0.14,-0.07,-0.14
-1000,-55,-75,0.0,-0.42,-0.14
-1000,-56,-75,0.0,-0.84,0.0
-1000,-56,-72,0.14,-1.26,0.21
-999,-53,-70,0.28,-1.61,0.35
-999,-53,-68,0.42,-1.47,0.35
-999,-54,-66,0.56,-1.33,0.21
-1001,-53,-67,0.56,-1.26,0.07
-1000,-55,-66,0.42,-1.05,-0.14
-1000,-53,-64,0.28,-0.84,-0.49
-999,-52,-62,0.28,-0.7,-0.77
-1001,-53,-62,0.28,-0.42,-0.98
-999,-53,-62,0.28,-0.07,-1.26
-999,-54,-62,0.42,0.21,-1.54
-1000,-55,-64,0.42,0.35,-1.54
-1001,-58,-69,0.28,0.49,-1.61
-999,-58,-71,0.07,0.49,-1.54
-999,-58,-73,-0.07,0.28,-1.26
-1002,-57,-73,-0.21,-0.07,-0.84
-1003,-55,-67,-0.49,-0.28,-0.7
-999,-55,-67,-0.35,-0.07,-0.77
-998,-53,-66,-0.42,0.07,-0.84
-1000,-55,-66,-0.56,0.28,-1.26
-1000,-53,-66,-0.63,0.63,-1.75
-1000,-50,-70,-0.63,0.7,-1.82
-1000,-50,-72,-0.42,0.63,-1.89
-1000,-54,-74,-0.14,0.35,-1.89
-999,-56,-76,0.14,-0.07,-1.75
-999,-56,-74,-0.07,-0.28,-1.61
-1001,-54,-75,-0.35,-0.21,-1.75
-997,-55,-76,-0.42,-0.14,-1.61
-997,-55,-75,-0.42,-0.21,-1.47
-998,-57,-78,-0.28,-0.21,-1.68
-1000,-60,-76,-0.21,-0.14,-2.03
-1001,-64,-75,0.07,-0.42,-1.68
-1000,-65,-73,0.42,-1.05,-0.84
-1000,-65,-72,0.35,-1.61,-0.35
-999,-59,-67,0.28,-1.68,-0.28
-999,-57,-63,0.28,-1.47,-0.42
-1001,-58,-66,0.35,-1.05,-0.84
-999,-59,-66,0.28,-0.63,-0.98
-999,-59,-69,0.21,-0.56,-0.91
-999,-59,-70,0.35,-0.42,-0.91
-1001,-61,-70,0.35,-0.42,-0.84
-1001,-60,-70,0.35,-0.35,-0.63
-999,-58,-71,0.35,-0.14,-0.42
-999,-58,-72,0.21,-0.14,-0.42
-1002,-61,-72,0.21,0.0,-0.56
-1000,-61,-75,0.0,-0.07,-0.35
-997,-60,-75,-0.21,-0.14,0.0
-999,-58,-74,-0.35,-0.21,-0.14
-1001,-58,-74,-0.63,-0.35,-0.28
-1000,-57,-74,-0.63,-0.56,-0.14
-999,-57,-71,-0.56,-0.77,0.14
-998,-57,-69,-0.28,-0.77,0.0
-1000,-57,-69,-0.14,-0.7,-0.07
-998,-60,-69,0.0,-0.63,0.0
-998,-60,-72,0.0,-0.49,-0.14
-999,-59,-74,-0.21,-0.35,-0.28
-1000,-56,-74,-0.21,-0.28,-0.21
-999,-55,-71,-0.14,-0.21,-0.21
-1001,-55,-70,0.07,-0.07,-0.35
-1000,-57,-69,0.35,0.0,-0.42
-998,-58,-67,0.49,0.14,-0.49
-999,-58,-69,0.7,0.21,-0.42
-1000,-60,-68,0.77,0.21,-0.35
-999,-62,-69,0.77,0.35,-0.35
-997,-63,-72,0.63,0.7,-0.28
-1000,-63,-73,0.21,0.98,-0.56
-1002,-60,-73,0.14,0.98,-0.49
-999,-61,-75,0.35,0.7,0.14
-999,-58,-75,0.56,0.35,0.56
-1000,-56,-74,0.7,0.28,0.63
-997,-55,-80,0.7,0.14,0.7
-998,-54,-77,0.91,0.21,0.42
-997,-56,-86,0.77,0.35,-0.21
-997,-56,-88,0.84,-0.14,-0.35
-999,-56,-88,0.84,-1.05,-0.07
-998,-54,-90,0.77,-1.96,0.28
-995,-50,-91,0.7,-2.66,0.28
-998,-48,-85,0.77,-3.15,0.07
-1001,-51,-82,1.33,-3.57,0.0
-1000,-59,-80,1.47,-4.27,0.14
-1000,-59,-74,1.47,-4.76,0.35
-1001,-58,-68,1.61,-5.04,0.63
-1002,-57,-59,1.68,-5.04,0.7
-1002,-61,-55,1.54,-4.27,0.21
-1000,-63,-51,1.19,-3.36,0.0
-1000,-61,-49,0.84,-2.52,-0.14
-1000,-59,-47,0.7,-1.75,-0.42
-1000,-62,-51,0.77,-1.05,-0.63
-1001,-65,-54,0.91,-0.56,-0.56
-1002,-66,-58,0.56,-0.07,-0.35
-1000,-62,-62,0.21,0.42,-0.21
-1002,-59,-65,0.0,0.77,-0.21
-1001,-60,-68,0.07,0.77,0.14
-1000,-58,-70,0.0,0.63,0.49
-999,-53,-70,-0.14,0.56,0.63
-1000,-49,-71,-0.21,0.77,0.56
-999,-48,-73,-0.21,0.98,0.28
-999,-48,-75,-0.49,1.12,-0.07
-1001,-50,-77,-0.63,1.19,-0.49
-1001,-52,-76,-0.63,0.91,-0.56
-997,-54,-77,-0.35,0.56,-0.35
-996,-54,-76,-0.21,0.21,-0.35
-999,-55,-75,0.0,-0.07,-0.56
-1001,-58,-71,0.28,-0.28,-0.63
-1000,-60,-73,0.42,-0.21,-0.49
-998,-60,-73,0.56,-0.21,-0.21
-1000,-59,-73,0.42,-0.28,-0.07
-1001,-61,-74,0.42,-0.35,-0.07
-999,-58,-74,0.49,-0.63,0.28
-999,-55,-74,0.56,-0.84,0.56
-998,-55,-73,0.63,-0.77,0.28
-1000,-57,-74,0.56,-0.77,0.07
-1001,-55,-73,0.63,-0.98,0.42
-998,-50,-70,0.56,-1.19,0.77
-998,-49,-68,0.56,-1.05,0.42
-1000,-50,-67,0.63,-0.7,0.0
-1000,-52,-66,0.56,-0.28,-0.07
-999,-51,-67,0.49,0.14,-0.14
-999,-49,-68,0.28,0.63,-0.56
-999,-50,-69,0.07,1.05,-1.05
-1000,-53,-72,0.07,1.4,-1.33
-1000,-55,-75,-0.14,1.33,-1.19
-1000,-57,-74,-0.07,1.12,-0.84
-1001,-58,-75,-0.07,0.91,-0.35
-998,-60,-73,0.07,0.84,0.0
-1000,-61,-74,0.07,0.91,0.14
-999,-62,-72,-0.21,0.7,0.42
-1000,-61,-72,-0.28,0.56,0.7
-999,-59,-71,-0.42,0.35,1.05
-998,-57,-72,-0.42,0.28,1.19
-1000,-54,-73,-0.49,0.35,1.12
-999,-51,-73,-0.7,0.49,0.98
-998,-49,-75,-0.63,0.56,0.56
-1000,-50,-78,-0.49,0.63,0.28
-1000,-51,-80,-0.42,0.49,0.14
-998,-49,-80,-0.42,0.21,0.21
-998,-49,-80,-0.42,0.0,-0.21
-999,-49,-80,-0.21,0.0,-0.63
-1000,-53,-80,-0.14,-0.21,-0.56
-999,-53,-81,-0.07,-0.49,-0.35
-997,-53,-81,-0.14,-0.56,-0.35
-998,-56,-80,-0.07,-0.63,-0.63
-1001,-56,-78,0.0,-0.77,-0.56
-1000,-54,-74,-0.14,-0.91,-0.21
-999,-49,-71,0.0,-0.7,0.0
-998,-49,-70,0.14,-0.35,-0.28
-1000,-51,-68,0.14,0.0,-0.77
-1001,-52,-70,0.07,0.56,-0.98
-998,-51,-70,-0.28,0.98,-1.26
-998,-51,-73,-0.56,1.61,-1.75
-1000,-52,-75,-0.77,2.03,-2.31
-1000,-54,-77,-0.91,2.31,-2.45
-998,-53,-76,-0.98,2.38,-2.45
-997,-54,-77,-1.12,2.31,-2.66
-1003,-56,-73,-0.98,2.59,-2.87
-1006,-60,-77,-0.7,2.73,-2.24
-997,-64,-79,-0.42,2.38,-1.26
-998,-66,-85,-0.35,2.1,-1.05
-995,-66,-85,-0.7,1.05,-0.21
-1000,-58,-83,-0.7,0.0,0.7
-997,-55,-82,-0.56,0.63,0.21
-993,-50,-80,-0.63,0.42,-0.42
-1000,-49,-83,-0.21,0.56,-0.56
-1000,-53,-85,0.0,0.56,-0.63
-997,-54,-88,-0.07,0.42,-1.05
-999,-56,-89,-0.14,0.14,-1.19
-998,-57,-90,-0.07,-0.07,-1.05
-997,-58,-94,0.07,-0.56,-0.91
-998,-57,-93,0.35,-1.33,-0.63
-999,-59,-91,0.7,-2.1,-0.14
-999,-58,-89,0.84,-2.73,0.28
-997,-58,-87,0.91,-2.94,0.49
-996,-54,-84,0.91,-3.01,0.49
-998,-53,-81,0.91,-3.08,0.21
-1001,-50,-77,0.91,-3.01,-0.21
-1001,-47,-74,0.84,-2.8,-0.42
-1000,-45,-72,0.98,-2.38,-0.98
-1000,-48,-71,1.05,-1.89,-1.61
-1000,-52,-73,1.12,-1.4,-2.03
-996,-58,-74,0.91,-0.84,-2.31
-998,-62,-76,0.63,-0.35,-2.38
-1004,-65,-76,0.63,0.14,-2.17
-1001,-67,-80,0.42,0.35,-1.47
-996,-67,-82,0.21,0.28,-0.77
-1001,-65,-84,0.0,0.07,-0.28
-1005,-66,-81,-0.14,-0.28,0.42
-1001,-65,-81,-0.21,-0.77,1.54
-998,-60,-82,-0.49,-1.19,2.38
-1000,-55,-80,-0.63,-1.26,2.24
-999,-50,-79,-0.63,-1.12,1.96
-997,-47,-80,-0.63,-1.12,1.75
-998,-43,-84,-0.21,-1.26,1.26
-1002,-38,-94,0.07,-1.4,0.77
-999,-32,-107,0.42,-1.82,0.49
-996,-28,-119,0.98,-2.8,0.07
-996,-30,-122,1.68,-4.27,-0.7
-1000,-31,-123,2.52,-6.16,-1.19
-999,-28,-117,3.5,-8.33,-1.47
-997,-22,-106,5.04,-10.99,-1.96
-1010,-28,-102,6.37,-12.46,-2.59
-1017,-46,-94,7.7,-12.6,-2.73
-1018,-66,-93,8.96,-11.13,-1.89
-1023,-82,-89,10.36,-8.75,1.05
-1007,-92,-86,11.55,-8.47,4.55
-1002,-86,-78,13.3,-9.45,7.14
-996,-77,-45,16.1,-10.71,8.89
-1018,-58,-33,18.2,-10.92,9.1
-1023,-54,-5,18.69,-11.41,11.76
-1020,-56,11,18.27,-10.78,13.58
-1047,-47,11,16.8,-9.59,17.01
-1050,-33,20,14.77,-9.24,19.95
-1034,-17,14,13.23,-7.63,21.42
-1000,-9,16,12.67,-5.46,18.48
-979,-9,8,11.97,-1.96,12.46
-991,-4,-1,10.99,0.98,6.16
-996,-2,-5,10.15,2.24,0.07
-994,-10,9,9.24,1.89,-3.64
-1016,-19,0,8.89,2.66,-3.57
-1030,-34,-3,8.82,2.66,-0.21
-1049,-20,-23,8.68,2.38,4.62
-1035,-25,-23,9.73,0.63,6.02
-1025,-29,-19,10.5,-1.05,7.28
-1003,-11,-25,11.13,-1.75,10.5
-999,-6,-10,12.11,-3.92,10.92
-1011,-13,-23,11.69,-4.2,8.4
-1002,-15,-20,11.41,-3.22,6.23
-1009,-20,-24,10.36,-1.89,3.92
-1014,-25,-28,8.82,0.0,1.89
-1028,-27,-47,8.33,3.22,0.14
-1016,-44,-46,7.98,3.64,-2.38
-1016,-50,-51,7.14,4.27,-3.22
-1012,-57,-61,6.16,4.13,-3.08
-1006,-57,-64,5.74,3.22,-2.38
-1012,-60,-62,5.39,2.1,-2.03
-1023,-60,-63,4.9,0.77,-1.47
-1023,-61,-61,4.34,0.56,-0.49
-1024,-59,-64,3.57,0.77,0.35
-1019,-46,-58,2.94,0.63,0.56
-1009,-44,-61,2.66,1.82,-0.56
-1003,-40,-59,2.73,2.45,-1.19
-994,-49,-67,2.8,2.87,-2.03
-1000,-46,-70,2.66,2.1,-1.54
-991,-45,-69,2.59,1.26,-1.4
-988,-43,-70,2.24,0.63,-1.47
-993,-38,-64,1.61,-0.56,-1.4
-992,-39,-63,1.05,-0.28,-1.05
-983,-33,-64,0.35,-0.49,0.14
-974,-28,-64,-0.14,-0.91,0.49
-966,-24,-68,-0.56,-2.17,0.14
-966,-17,-68,-1.19,-4.27,-0.56
-972,-16,-67,-1.12,-5.11,-0.84
-982,-18,-68,-0.98,-5.18,-1.05
-980,-16,-62,-1.26,-5.04,-1.4
-983,-15,-70,-1.19,-3.99,-2.66
-986,-17,-67,-1.05,-3.57,-3.64
-989,-21,-67,-1.12,-3.01,-4.27
-993,-24,-68,-0.91,-3.22,-3.85
-987,-28,-66,-0.7,-4.27,-3.01
-993,-27,-63,-0.56,-5.74,-2.31
-997,-26,-61,-0.21,-6.3,-2.24
-1004,-25,-57,0.07,-5.6,-2.45
-1007,-29,-56,0.07,-4.27,-2.38
-1004,-27,-57,0.21,-2.8,-1.89
-993,-26,-55,-0.07,-1.82,-1.96
-984,-24,-60,-0.35,-1.75,-2.8
-987,-24,-61,-0.42,-2.03,-3.85
-990,-23,-58,-0.21,-2.17,-4.34
-995,-23,-58,0.28,-1.75,-4.06
-993,-27,-57,0.56,-0.98,-3.22
-992,-27,-56,0.7,0.0,-2.66
-990,-26,-56,0.49,0.98,-2.17
-984,-23,-56,0.56,1.54,-1.82
-978,-22,-57,0.77,1.54,-1.75
-975,-25,-58,0.77,0.7,-1.96
-980,-26,-60,0.98,-0.56,-2.1
-984,-26,-63,1.33,-1.68,-2.03
-983,-34,-60,1.89,-2.52,-1.75
-996,-41,-66,2.38,-2.66,-1.05
-1004,-43,-68,2.17,-2.73,-0.07
-1005,-43,-70,1.75,-2.03,0.56
-999,-45,-75,1.12,-1.05,0.49
-1002,-46,-74,0.49,-0.42,-0.14
-1009,-48,-72,-0.28,-0.28,-0.63
-1009,-47,-67,-0.77,-0.35,-0.42
-1008,-40,-64,-1.19,-0.63,-0.21
-1009,-33,-60,-1.47,-1.12,-0.07
-1012,-30,-59,-1.33,-0.98,0.21
-1010,-29,-58,-1.12,-0.56,0.56
-1003,-26,-57,-0.98,-0.42,1.12
-996,-24,-54,-0.84,-0.63,1.4
-994,-24,-53,-0.77,-0.91,1.05
-994,-24,-51,-0.84,-1.12,0.42
-1000,-22,-50,-0.91,-0.84,0.0
-996,-22,-53,-0.84,-0.14,-0.21
-992,-28,-55,-0.77,0.35,-0.42
-993,-31,-56,-0.42,0.28,-0.56
-1000,-35,-55,0.14,-0.42,-0.21
-1000,-37,-54,0.56,-1.4,0.77
-1000,-34,-56,1.05,-1.89,1.82
-996,-32,-55,1.19,-2.17,2.66
-996,-31,-54,1.47,-2.31,2.87
-993,-32,-55,1.96,-2.45,3.01
-985,-34,-58,2.17,-2.73,3.36
-983,-36,-55,2.1,-3.01,3.01
-991,-36,-53,1.61,-2.73,1.96
-996,-36,-49,0.77,-2.03,0.98
-999,-36,-45,0.07,-1.12,0.07
-1001,-34,-46,-0.49,-0.42,-0.35
-1001,-29,-45,-0.63,-0.28,-0.42
-1002,-23,-43,-0.49,-0.49,-0.42
-1002,-21,-46,-0.21,-0.77,-0.42
-1004,-18,-45,0.35,-0.77,-0.35
-1006,-14,-44,0.91,-0.63,-0.56
-1005,-14,-49,1.82,-0.35,-1.05
-1003,-19,-55,2.38,-0.07,-1.33
-997,-26,-62,2.66,-0.14,-1.47
-1003,-31,-65,2.59,-0.56,-1.75
-1011,-32,-63,2.52,-1.05,-1.54
-1009,-36,-61,2.66,-1.4,-1.12
-1011,-37,-57,2.52,-1.68,-0.98
-1016,-35,-51,2.59,-1.68,-1.05
-1022,-38,-49,2.66,-1.47,-0.77
-1021,-41,-45,2.31,-1.33,0.28
-1015,-39,-44,1.82,-1.19,1.47
-1006,-35,-44,1.12,-1.12,1.96
-1000,-30,-39,0.56,-0.91,1.61
-1000,-29,-36,0.07,-0.49,0.77
-999,-26,-32,-0.21,0.07,0.07
-997,-27,-32,-0.21,0.49,-0.14
-995,-27,-35,-0.07,0.42,0.14
-992,-26,-37,0.14,0.07,0.42
-992,-25,-38,0.14,-0.28,0.63
-995,-23,-37,0.21,-0.21,0.7
-996,-22,-41,0.42,0.0,0.7
-997,-22,-44,0.56,-0.14,0.49
-998,-27,-46,0.84,-0.49,0.07
-1007,-30,-50,0.98,-0.7,0.21
-1008,-28,-54,1.05,-0.35,0.56
-1005,-23,-61,1.12,0.0,0.49
-1007,-19,-67,1.26,0.07,-0.28
-1013,-19,-68,1.68,-0.14,-0.91
-1020,-19,-72,1.82,-0.42,-0.98
-1025,-20,-69,1.96,-0.56,-0.49
-1026,-19,-70,2.17,-0.63,0.28
-1028,-19,-67,2.38,-0.63,0.7
-1032,-24,-66,2.59,-0.28,0.77
-1033,-25,-63,2.45,0.21,0.98
-1029,-25,-60,2.38,0.77,1.47
-1026,-22,-55,2.17,1.05,1.75
-1022,-22,-51,1.96,1.47,1.75
-1015,-21,-46,1.89,1.89,1.61
-1008,-17,-41,1.61,2.03,1.47
-998,-15,-39,1.68,2.17,1.26
-992,-13,-38,1.68,2.1,1.26
-985,-11,-35,2.03,1.82,1.26
-974,-13,-37,2.52,1.4,1.26
-969,-14,-36,2.87,0.84,1.12
-972,-16,-33,3.22,0.49,0.7
-972,-18,-32,3.36,0.63,0.49
-968,-21,-34,3.5,0.98,0.14
-971,-26,-40,3.71,1.05,-0.35
-969,-30,-43,3.71,0.63,-0.63
-968,-34,-49,3.85,-0.07,-0.7
-968,-36,-50,3.78,-0.91,-0.91
-974,-36,-51,3.57,-1.33,-1.4
-982,-42,-50,3.43,-1.4,-1.89
-989,-45,-53,3.29,-1.47,-1.82
-996,-47,-53,3.15,-1.68,-1.54
-1005,-49,-57,2.8,-1.89,-1.26
-1006,-47,-59,2.31,-1.75,-1.19
-1009,-46,-61,1.61,-1.4,-1.47
-1011,-42,-65,0.98,-1.26,-1.82
-1014,-39,-67,0.7,-1.33,-2.17
-1017,-36,-64,0.56,-1.75,-2.03
-1022,-35,-63,0.63,-2.1,-1.4
-1022,-33,-63,0.42,-2.24,-0.7
-1009,-27,-62,0.0,-2.38,-0.56
-1016,-19,-53,-0.14,-2.52,-1.68
-1027,-17,-54,-0.14,-1.61,-2.17
-1011,-18,-52,-0.21,-0.91,-1.75
-1009,-13,-51,-0.28,-0.56,-1.54
-1014,-7,-45,-0.14,-0.77,-1.61
-1016,-6,-38,0.14,-0.63,-1.54
-1013,-3,-33,0.49,-0.21,-1.33
-1010,-3,-28,0.98,0.49,-1.54
-1010,-5,-30,1.54,0.91,-1.82
-1004,-9,-30,2.24,1.19,-1.89
-998,-14,-33,2.94,1.05,-1.33
-995,-18,-37,3.43,0.77,-0.63
-988,-20,-40,3.57,0.77,-0.07
-985,-23,-44,3.57,0.77,-0.14
-989,-27,-46,3.5,0.63,-0.49
-989,-31,-48,3.29,0.77,-0.42
-988,-40,-50,3.15,0.56,-0.07
-988,-42,-52,3.15,0.21,0.28
-986,-48,-53,2.87,-0.14,0.35
-987,-53,-55,2.52,-0.42,0.28
-990,-55,-54,1.89,-0.63,0.21
-991,-52,-55,1.33,-0.56,0.49
-987,-49,-57,1.05,-0.77,0.63
-990,-46,-55,0.91,-1.26,0.56
-992,-45,-53,1.05,-1.75,0.49
-993,-44,-50,1.19,-2.24,0.35
-994,-44,-50,1.26,-2.45,-0.14
-1002,-47,-49,1.33,-2.24,-0.84
-1007,-53,-51,0.98,-1.82,-1.05
-1003,-56,-55,0.56,-1.54,-0.84
-1005,-52,-52,-0.07,-1.68,-1.12
-1009,-50,-53,-0.56,-1.61,-1.33
-1012,-49,-50,-0.84,-1.4,-1.19
-1010,-44,-49,-1.26,-1.05,-0.84
-1004,-40,-49,-1.47,-0.63,-0.77
-1003,-37,-49,-1.54,-0.56,-1.33
-1008,-40,-50,-1.47,-0.49,-1.82
-1009,-41,-52,-1.68,-0.56,-1.47
-1008,-37,-53,-1.89,-0.77,-0.91
-1003,-32,-50,-2.03,-0.91,-0.84
-1004,-30,-49,-1.96,-0.91,-1.05
-1004,-30,-49,-1.89,-0.84,-0.91
-1004,-27,-47,-1.89,-0.77,-0.63
-1001,-21,-46,-1.89,-0.7,-0.35
-997,-18,-47,-1.82,-0.42,-0.56
-996,-16,-49,-1.75,-0.21,-0.98
-999,-18,-52,-1.47,-0.07,-1.26
-1000,-20,-55,-1.47,-0.07,-0.77
-999,-20,-55,-1.33,-0.42,-0.28
-1002,-24,-55,-0.98,-0.7,-0.35
-1007,-28,-56,-0.77,-0.84,-0.35
-1006,-31,-56,-0.63,-0.84,0.0
-1006,-29,-55,-0.84,-0.91,0.28
-1007,-28,-54,-1.12,-0.84,0.28
-1006,-28,-53,-1.33,-0.56,0.49
-999,-26,-52,-1.47,-0.42,0.77
-995,-22,-53,-1.33,-0.35,0.77
-993,-19,-53,-1.05,-0.42,0.56
-994,-18,-53,-0.7,-0.56,0.56
-996,-18,-54,-0.42,-0.7,0.77
-993,-16,-51,-0.35,-0.98,0.91
-995,-12,-48,-0.14,-1.05,0.63
-999,-11,-48,0.07,-0.91,0.07
-1001,-14,-50,0.42,-0.7,0.0
-998,-17,-52,0.56,-0.7,0.35
-997,-16,-51,0.42,-0.98,0.7
-999,-14,-48,0.28,-1.12,0.77
-999,-12,-46,0.14,-0.91,0.91
-992,-11,-46,0.21,-0.77,1.05
-991,-12,-45,0.42,-0.91,0.98
-998,-15,-47,0.91,-1.4,1.05
-1004,-18,-46,1.19,-1.96,1.89
-1002,-16,-44,1.19,-2.38,2.87
-1000,-10,-41,1.12,-2.03,3.08
-999,-5,-39,1.12,-1.33,2.24
-1002,-6,-39,1.19,-0.77,1.26
-1009,-9,-38,1.68,-0.63,0.84
-1016,-11,-37,2.38,-0.84,1.05
-1019,-18,-37,3.15,-0.98,1.33
-1023,-29,-43,3.64,-0.77,1.33
-1021,-38,-49,3.64,-0.21,1.26
-1020,-47,-54,3.36,0.56,0.84
-1017,-52,-58,2.8,0.98,0.56
-1018,-54,-63,2.31,1.33,0.42
-1009,-55,-63,1.61,1.4,0.7
-1007,-52,-64,1.26,1.26,0.91
-1005,-50,-63,0.77,0.91,0.98
-1002,-50,-63,0.35,0.84,0.91
-995,-50,-63,-0.14,1.12,0.91
-988,-48,-62,-0.7,1.12,0.63
-982,-47,-60,-1.05,0.77,0.14
-981,-47,-59,-1.26,0.07,-0.14
-987,-44,-54,-1.54,-0.84,-0.07
-989,-40,-48,-1.82,-1.19,0.14
-986,-31,-45,-2.17,-1.12,0.07
-982,-22,-43,-2.31,-0.91,-0.35
-978,-16,-39,-2.31,-0.77,-1.19
-977,-13,-39,-1.96,-0.98,-1.96
-981,-15,-41,-1.54,-1.54,-2.38
-989,-13,-46,-1.26,-2.38,-2.31
-999,-9,-51,-1.19,-2.73,-1.96
-1003,-1,-52,-1.4,-2.8,-1.54
-1005,3,-53,-1.68,-2.87,-1.47
-1014,12,-50,-2.03,-2.94,-1.33
-1021,21,-44,-1.89,-2.73,-0.84
-1021,29,-39,-1.4,-2.38,-0.07
-1024,33,-33,-0.63,-2.1,0.56
-1029,31,-32,0.21,-1.75,1.12
-1021,28,-30,0.91,-1.61,1.68
-1017,30,-29,1.75,-1.54,1.82
-1015,25,-32,2.73,-0.98,1.61
-1013,18,-35,3.64,-0.21,1.4
-1008,9,-37,4.55,0.35,1.47
-1003,3,-41,5.18,0.42,1.75
-999,-4,-44,5.88,0.42,1.82
-1000,-17,-47,6.58,0.49,1.61
-999,-33,-53,7.07,0.56,1.47
-997,-49,-62,7.14,0.7,1.33
-996,-60,-68,6.37,0.56,1.12
-993,-65,-70,5.32,0.56,0.84
-988,-67,-72,4.27,0.49,0.56
-987,-61,-69,3.29,0.0,0.56
-989,-58,-66,2.73,-0.56,0.49
-996,-49,-60,2.38,-1.33,1.05
-996,-47,-56,2.24,-1.54,1.12
-999,-45,-49,1.82,-1.75,1.26
-1005,-41,-45,1.26,-1.33,0.91
-1000,-38,-43,0.7,-0.56,0.07
-1001,-35,-42,0.0,-0.28,-0.63
-1005,-30,-39,-0.21,-0.14,-1.05
-1004,-27,-39,-0.21,-0.07,-0.98
-1001,-27,-39,-0.28,-0.49,-0.56
-1002,-24,-39,-0.21,-0.7,-0.35
-1000,-19,-40,-0.21,-0.56,-0.21
-995,-22,-42,0.0,-0.35,-0.63
-996,-24,-46,0.0,-0.42,-1.12
-1000,-23,-46,-0.07,-0.63,-1.19
-998,-22,-47,-0.07,-0.7,-1.26
-997,-23,-49,-0.14,-0.63,-1.26
-994,-26,-52,-0.28,-0.7,-1.12
-994,-26,-53,-0.42,-0.98,-0.91
-997,-24,-51,-0.56,-1.54,-0.91
-1000,-24,-50,-0.49,-1.82,-1.19
-1007,-26,-51,-0.56,-1.75,-1.4
-1007,-29,-55,-0.84,-1.61,-1.12
-1004,-27,-56,-1.4,-1.61,-0.56
-1004,-22,-57,-1.61,-1.54,-0.35
-1001,-19,-57,-1.82,-1.54,-0.35
-1002,-21,-55,-1.89,-1.47,-0.42
-1004,-19,-55,-1.68,-1.33,-0.21
-1003,-19,-55,-1.68,-1.47,0.0
-1004,-17,-55,-1.61,-1.4,-0.07
-1005,-16,-54,-1.61,-0.98,-0.35
-1004,-17,-53,-1.75,-0.56,-0.7
-1004,-16,-52,-1.82,-0.35,-0.91
-1004,-14,-49,-1.75,-0.49,-0.77
-1003,-14,-47,-1.4,-0.77,-0.49
-999,-14,-47,-1.12,-0.98,-0.35
-998,-12,-45,-1.12,-1.12,-0.49
-1002,-10,-42,-1.05,-0.91,-1.12
-1003,-10,-39,-0.91,-0.63,-1.54
-1006,-11,-41,-0.63,-0.42,-1.54
-1007,-12,-40,-0.42,-0.49,-1.19
-1011,-12,-40,-0.21,-0.56,-0.77
-1011,-14,-39,-0.21,-0.63,-0.35
-1012,-14,-40,-0.21,-0.56,-0.28
-1013,-14,-42,-0.28,-0.21,-0.28
-1016,-16,-41,-0.35,0.21,-0.56
-1019,-20,-43,-0.21,0.42,-0.63
-1017,-23,-44,0.0,0.63,0.0
-1009,-21,-47,0.0,0.63,0.56
-1004,-19,-49,0.21,0.7,0.35
-1002,-20,-54,0.28,0.84,0.0
-995,-21,-59,0.35,0.98,-0.14
-992,-21,-60,0.28,0.91,-0.28
-994,-22,-62,0.28,0.7,-0.49
-989,-25,-65,0.35,0.42,-0.42
-986,-24,-66,0.21,0.14,-0.49
-988,-26,-64,0.07,-0.14,-0.98
-995,-26,-63,-0.21,-0.42,-1.26
-1001,-27,-58,-0.35,-0.49,-1.33
-1006,-28,-55,-0.35,-0.63,-0.98
-1007,-27,-56,-0.56,-0.56,-0.49
-1007,-25,-52,-0.7,-0.35,-0.49
-1005,-23,-53,-0.84,0.0,-0.49
-1000,-23,-53,-1.05,0.07,-0.42
-995,-23,-55,-1.12,0.0,-0.14
-995,-20,-54,-1.33,-0.21,0.07
-996,-16,-51,-1.19,-0.28,0.35
-996,-13,-49,-1.12,-0.28,0.56
-994,-10,-48,-0.91,-0.42,0.63
-993,-7,-49,-0.7,-0.42,0.49
-993,-7,-47,-0.63,-0.42,0.14
-996,-7,-45,-0.28,-0.28,-0.28
-1000,-10,-47,-0.28,-0.28,-0.42
-1001,-11,-48,-0.07,-0.28,-0.14
-995,-10,-49,0.14,-0.42,0.28
-994,-11,-51,0.42,-0.7,0.28
-996,-12,-52,0.77,-0.98,0.21
-1001,-14,-52,0.91,-1.12,0.49
-999,-13,-52,1.05,-1.12,0.84
-997,-12,-55,1.05,-1.05,0.77
-994,-13,-56,1.05,-0.98,0.28
-995,-16,-57,1.19,-0.98,-0.35
-1002,-20,-56,1.19,-1.33,-0.63
-1004,-22,-55,1.26,-1.54,-0.35
-1005,-22,-55,1.19,-1.75,-0.07
-1007,-21,-53,1.05,-1.82,-0.07
-1009,-23,-52,0.98,-1.61,-0.14
-1011,-24,-52,0.77,-1.33,-0.14
-1010,-24,-52,0.56,-0.98,0.14
-1005,-22,-51,0.28,-0.91,0.07
-1007,-21,-51,0.28,-0.77,-0.14
-1007,-20,-49,0.21,-0.63,-0.14
-1006,-19,-48,0.14,-0.56,0.21
-1004,-19,-46,0.14,-0.56,0.49
-1006,-17,-45,0.07,-0.63,0.49
-1009,-15,-44,0.07,-0.56,0.35
-1005,-14,-45,-0.07,-0.35,0.28
-1001,-15,-44,-0.07,-0.21,0.07
-1002,-16,-45,0.07,-0.14,-0.07
-1001,-17,-46,0.07,-0.21,-0.14
-1000,-19,-47,0.28,-0.14,-0.21
-1001,-20,-48,0.14,0.07,-0.49
-1003,-21,-49,-0.07,0.07,-0.84
-1005,-19,-48,-0.14,0.07,-0.77
-1004,-17,-46,-0.21,0.0,-0.49
-1006,-17,-46,0.07,-0.07,-0.21
-1006,-19,-47,0.21,-0.14,0.07
-1007,-21,-51,0.35,-0.07,0.35
-1002,-24,-56,0.28,0.07,0.63
-998,-24,-60,-0.07,0.0,0.7
-996,-22,-61,-0.35,-0.14,0.7
-997,-20,-59,-0.63,-0.35,0.7
-997,-19,-58,-0.7,-0.56,0.77
-993,-18,-58,-0.7,-0.63,0.84
-995,-17,-55,-0.7,-0.84,0.98
-993,-12,-54,-0.7,-1.19,1.05
-993,-6,-52,-0.63,-1.54,0.98
-991,-3,-51,-0.35,-1.61,0.7
-992,-2,-52,-0.14,-1.61,0.21
-993,-5,-52,0.07,-1.54,-0.42
-994,-8,-52,0.21,-1.54,-0.84
-996,-8,-52,0.35,-1.68,-1.33
-1001,-9,-51,0.7,-1.61,-1.61
-1006,-13,-51,0.84,-1.54,-1.54
-1010,-16,-49,0.84,-1.4,-1.19
-1010,-13,-47,0.91,-1.4,-0.91
-1015,-10,-43,0.98,-1.26,-1.12
-1018,-13,-45,1.12,-0.84,-1.47
-1019,-17,-48,0.98,-0.42,-1.19
-1018,-19,-51,0.7,-0.14,-0.56
-1014,-16,-50,0.35,0.0,-0.14
-1012,-13,-48,0.14,0.14,-0.28
-1011,-13,-48,0.0,0.49,-0.42
-1010,-15,-52,-0.07,0.84,-0.28
-1005,-15,-53,0.07,0.77,0.07
-1003,-15,-51,0.14,0.49,0.28
-1003,-15,-50,0.21,0.0,0.49
-1000,-16,-52,0.42,-0.14,0.84
-995,-14,-55,0.42,-0.14,0.77
-995,-12,-57,0.28,-0.07,0.42
-990,-16,-56,0.21,0.0,-0.21
-995,-16,-59,0.07,0.14,-0.42
-997,-17,-56,0.14,-0.28,-0.21
-1000,-17,-54,0.21,-0.56,-0.07
-999,-18,-51,0.35,-0.7,-0.21
-997,-19,-50,0.35,-0.63,-0.35
-999,-18,-51,0.35,-0.42,-0.63
-1002,-19,-50,0.21,-0.21,-0.77
-1002,-16,-51,0.07,0.0,-0.35
-995,-14,-53,0.07,0.21,0.0
-994,-14,-53,0.0,0.14,-0.14
-996,-13,-53,0.0,0.0,-0.21
-995,-14,-51,-0.07,-0.07,-0.07
-998,-11,-48,0.0,-0.21,0.14
-1000,-11,-48,0.21,-0.28,0.42
-1000,-10,-48,0.21,-0.21,0.84
-997,-10,-48,0.14,-0.21,0.91
-1000,-6,-48,-0.07,0.0,0.28
-1000,-5,-49,-0.28,0.35,-0.77
-999,-8,-52,-0.14,0.77,-1.33
-999,-10,-58,0.14,0.42,-0.98
-1001,-11,-57,0.56,-0.42,-0.21
-1002,-12,-60,0.91,-1.19,0.21
-1002,-15,-60,1.12,-1.61,0.14
-1004,-19,-60,1.05,-1.47,-0.28
-1010,-20,-59,0.77,-1.05,-0.98
-1014,-21,-58,0.56,-0.63,-1.54
-1014,-24,-58,0.28,-0.35,-1.61
-1012,-24,-57,0.28,-0.21,-1.4
-1011,-25,-58,0.49,-0.21,-1.12
-1009,-27,-61,0.42,-0.49,-0.77
-1006,-25,-63,0.21,-0.56,-0.56
-1005,-22,-60,-0.14,-0.49,-0.77
-1009,-21,-59,-0.56,-0.21,-1.05
-1009,-19,-55,-0.7,-0.07,-0.98
-1008,-17,-54,-0.63,-0.14,-0.77
-1007,-16,-53,-0.42,-0.28,-0.42
-1005,-15,-51,-0.42,-0.28,-0.28
-1004,-13,-50,-0.49,0.07,-0.49
-999,-13,-51,-0.77,0.63,-0.56
-995,-10,-51,-0.98,0.84,-0.7
-994,-9,-51,-0.7,0.77,-0.84
-995,-8,-53,-0.42,0.35,-0.49
-993,-8,-52,-0.07,-0.14,0.0
-993,-9,-53,0.21,-0.56,0.35
-990,-8,-52,0.14,-0.63,0.35
-989,-8,-52,0.07,-0.49,-0.28
-995,-11,-52,0.0,-0.42,-0.91
-997,-11,-51,0.07,-0.42,-0.98
-998,-11,-50,0.28,-0.63,-0.63
-997,-12,-49,0.7,-0.91,-0.28
-1001,-13,-53,1.05,-1.12,0.0
-998,-13,-53,1.05,-1.05,0.07
-999,-16,-53,0.98,-0.91,-0.07
-1001,-19,-54,0.91,-0.7,-0.28
-1002,-20,-55,0.91,-0.7,-0.21
-1004,-21,-55,0.98,-0.77,-0.21
-1008,-23,-58,0.84,-0.77,-0.07
-1005,-23,-60,0.7,-0.7,0.14
-1004,-21,-61,0.35,-0.77,0.14
-1002,-19,-60,0.14,-0.84,-0.07
-1004,-16,-59,0.14,-0.91,-0.42
-1007,-17,-56,0.07,-0.91,-0.7
-1007,-16,-54,0.28,-0.63,-0.77
-1006,-17,-56,0.35,-0.35,-0.7
-1002,-16,-58,0.49,-0.21,-0.7
-998,-17,-61,0.35,-0.21,-0.77
-998,-18,-60,0.21,-0.42,-0.98
-998,-17,-59,0.14,-0.49,-0.98
-998,-16,-57,0.14,-0.7,-0.98
-1003,-17,-55,0.28,-0.84,-1.05
-1006,-18,-54,0.35,-0.91,-0.77
-1007,-14,-53,0.35,-1.05,-0.56
-1009,-14,-53,0.28,-0.91,-0.28
-1007,-12,-53,0.35,-0.7,-0.42
-1004,-14,-54,0.42,-0.49,-0.77
-1005,-14,-53,0.28,-0.35,-1.05
-1006,-15,-51,0.21,-0.35,-1.12
-1007,-16,-50,0.21,-0.21,-0.98
-1007,-16,-47,0.14,-0.07,-0.98
-1007,-17,-46,0.28,0.0,-0.91
-1007,-19,-49,0.42,0.07,-0.77
-1001,-21,-53,0.63,0.14,-0.56
-999,-23,-53,0.49,0.28,-0.63
-1000,-24,-55,0.28,0.42,-0.84
-998,-26,-56,0.07,0.56,-1.05
-998,-28,-56,-0.21,0.56,-1.05
-998,-26,-59,-0.21,0.28,-0.77
-996,-25,-59,-0.28,-0.14,-0.35
-996,-25,-61,-0.28,-0.49,-0.14
-995,-24,-64,-0.49,-0.56,-0.07
-997,-22,-61,-0.91,-0.49,-0.28
-1000,-21,-60,-1.4,-0.14,-0.35
-997,-17,-56,-1.54,-0.14,0.0
-995,-14,-59,-1.47,-0.21,-0.14
-994,-14,-57,-1.26,-0.7,0.14
-996,-10,-54,-1.05,-1.12,0.49
-993,-10,-56,-0.84,-1.12,0.49
-991,-7,-54,-0.84,-1.12,0.49
-991,-7,-55,-0.77,-1.05,0.0
-996,-8,-56,-0.7,-1.05,-0.42
-996,-6,-55,-0.7,-1.19,-0.28
-999,-5,-52,-0.35,-1.33,-0.07
-998,-4,-54,0.0,-1.33,-0.07
-999,-7,-54,0.21,-1.33,0.0
-1001,-9,-55,0.35,-1.33,-0.07
-1006,-11,-57,0.35,-1.33,0.0
-1005,-14,-59,0.42,-1.19,0.14
-1005,-13,-59,0.35,-1.05,0.07
-1008,-17,-60,0.42,-0.98,-0.21
-1011,-18,-59,0.28,-0.84,-0.28
-1010,-16,-58,0.21,-0.77,0.07
-1009,-16,-58,0.28,-0.63,0.28
-1009,-15,-57,0.21,-0.63,0.42
-1009,-15,-57,0.14,-0.56,0.42
-1008,-14,-57,0.0,-0.35,0.42
-1006,-14,-57,-0.07,-0.07,0.21
-1006,-14,-59,0.0,0.21,0.0
-1003,-14,-58,-0.07,0.28,0.14
-1001,-14,-57,0.0,0.14,0.21
-1003,-13,-56,0.0,0.07,0.21
-1005,-11,-54,0.07,-0.07,0.42
-1005,-12,-53,0.35,-0.14,0.63
-1005,-15,-56,0.42,-0.14,0.91
-998,-14,-56,0.35,-0.07,0.91
-998,-10,-57,0.21,0.07,0.28
-998,-12,-59,0.0,0.28,-0.28
-995,-13,-59,0.07,0.42,-0.49
-997,-13,-60,0.07,0.07,-0.42
-1000,-14,-61,0.21,-0.28,-0.21
-997,-15,-61,0.21,-0.56,0.0
-998,-14,-61,0.28,-0.7,0.0
-999,-13,-62,0.0,-0.56,-0.07
-999,-13,-61,-0.21,-0.42,-0.21
-1000,-12,-59,-0.21,-0.28,-0.42
-1002,-12,-57,-0.14,-0.28,-0.49
-1002,-12,-59,0.07,-0.42,-0.28
-1000,-11,-57,0.07,-0.42,-0.21
-1001,-11,-58,0.07,-0.35,-0.35
-1000,-12,-61,0.07,-0.28,-0.49
-999,-11,-59,-0.21,-0.28,-0.49
-998,-11,-59,-0.35,-0.14,-0.56
-997,-10,-59,-0.35,-0.28,-0.56
-999,-10,-60,-0.07,-0.49,-0.49
-1000,-11,-59,0.07,-0.56,-0.28
-999,-9,-59,-0.07,-0.56,-0.21
-997,-9,-58,-0.07,-0.28,-0.42
-997,-6,-58,-0.28,-0.14,-0.63
-995,-6,-59,-0.28,-0.28,-0.7
-996,-6,-56,0.0,-0.7,-0.56
-999,-8,-55,0.21,-1.19,-0.28
-997,-6,-52,0.49,-1.4,-0.07
-997,-7,-51,0.56,-1.26,-0.35
-1000,-7,-51,0.63,-0.98,-0.98
-1003,-8,-52,0.7,-0.77,-1.33
-1004,-12,-54,0.91,-0.91,-1.19
-1007,-12,-55,1.12,-1.12,-0.77
-1007,-13,-55,1.05,-1.19,-0.7
-1010,-17,-56,0.91,-0.84,-0.91
-1009,-20,-58,0.77,-0.49,-0.91
-1010,-21,-58,0.56,-0.21,-0.77
-1009,-21,-58,0.56,-0.14,-0.56
-1007,-22,-58,0.49,-0.14,-0.21
-1003,-21,-58,0.42,-0.21,0.0
-999,-19,-58,0.14,-0.14,0.07
-998,-18,-58,-0.21,-0.14,0.14
-995,-15,-58,-0.42,0.0,0.14
-991,-11,-58,-0.56,0.07,0.14
-988,-10,-59,-0.42,0.0,0.0
-985,-10,-58,-0.35,-0.28,-0.14
-985,-9,-58,-0.21,-0.7,-0.35
-989,-10,-58,-0.07,-0.98,-0.42
-991,-11,-56,-0.14,-1.12,-0.56
-992,-11,-55,0.0,-1.19,-0.63
-995,-12,-54,0.21,-1.4,-0.7
-999,-13,-56,0.35,-1.47,-0.49
-996,-13,-54,0.35,-1.61,-0.28
-999,-12,-54,0.35,-1.61,-0.14
-1000,-14,-53,0.35,-1.61,-0.21
-1001,-13,-54,0.21,-1.61,-0.21
-1004,-14,-54,0.35,-1.54,-0.35
-1007,-16,-54,0.28,-1.61,-0.21
-1006,-17,-58,0.21,-1.54,-0.07
-1006,-17,-58,0.14,-1.33,0.0
-1005,-17,-61,-0.07,-1.12,0.0
-1002,-16,-61,-0.21,-1.05,-0.28
-1002,-14,-61,-0.35,-1.12,-0.28
-1004,-12,-59,-0.28,-1.19,-0.28
-1004,-12,-58,0.0,-1.19,-0.14
-1005,-14,-58,0.07,-1.26,0.0
-1006,-15,-58,0.14,-1.19,0.0
-1011,-17,-58,0.14,-1.19,-0.14
-1010,-17,-59,0.14,-0.98,-0.07
-1007,-19,-57,0.14,-0.91,0.07
-1009,-19,-56,0.07,-0.91,0.07
-1011,-20,-55,-0.07,-0.77,0.07
-1008,-17,-55,-0.42,-0.42,0.07
-1004,-15,-56,-0.49,-0.14,-0.14
-1001,-14,-56,-0.49,0.0,-0.35
-1001,-12,-57,-0.42,-0.14,-0.35
-999,-13,-57,-0.21,-0.42,-0.07
-998,-13,-59,-0.21,-0.63,0.21
-997,-13,-56,-0.35,-0.77,0.35
-1000,-10,-55,-0.42,-0.7,0.21
-997,-10,-55,-0.42,-0.49,0.0
-995,-12,-57,-0.21,-0.42,-0.21
-996,-12,-58,-0.21,-0.7,-0.07
-997,-11,-56,-0.14,-0.91,-0.07
-996,-11,-55,-0.07,-0.98,-0.14
-1000,-12,-54,-0.14,-0.77,-0.42
-999,-12,-55,-0.21,-0.56,-0.49
-999,-13,-57,-0.28,-0.56,-0.63
-998,-13,-59,-0.21,-0.7,-0.56
-998,-15,-56,-0.14,-0.91,-0.42
-1002,-13,-54,-0.14,-0.98,-0.42
-1003,-15,-57,-0.14,-0.91,-0.21
-1001,-16,-57,-0.21,-0.91,0.14
-1002,-14,-57,-0.21,-1.05,0.35
-1003,-12,-57,-0.35,-1.05,0.42
-1002,-12,-57,-0.49,-0.91,0.28
-1001,-11,-57,-0.56,-0.7,0.21
-999,-10,-58,-0.7,-0.56,0.14
-1000,-11,-58,-0.63,-0.63,0.0
-1002,-11,-57,-0.63,-0.84,0.07
-1004,-9,-56,-0.49,-0.98,0.28
-1004,-9,-58,-0.42,-0.98,0.7
-999,-7,-58,-0.42,-0.91,0.7
-1000,-6,-57,-0.42,-0.84,0.28
-1001,-7,-58,-0.42,-0.77,-0.14
-999,-8,-58,-0.35,-0.7,-0.28
-998,-10,-58,-0.35,-0.7,-0.35
-1000,-10,-57,-0.42,-0.91,-0.42
-1001,-8,-54,-0.49,-1.05,-0.42
-1002,-7,-53,-0.42,-1.12,-0.28
-1002,-7,-53,-0.07,-1.12,-0.28
-1003,-8,-54,0.07,-1.12,-0.35
-1004,-11,-54,0.21,-1.26,-0.49
-1007,-11,-54,0.21,-1.19,-0.42
-1005,-9,-54,0.14,-1.12,-0.35
-1004,-9,-54,0.21,-0.84,-0.49
-1006,-10,-55,0.28,-0.77,-0.77
-1006,-9,-55,0.28,-0.84,-0.63
-1008,-9,-52,0.35,-0.7,-0.56
-1012,-11,-52,0.28,-0.56,-0.56
-1008,-14,-55,0.21,-0.21,-0.28
-1002,-12,-56,-0.14,0.07,-0.14
-1000,-13,-59,-0.21,0.0,-0.14
-997,-14,-62,-0.28,-0.21,0.07
-995,-11,-61,-0.28,-0.56,0.35
-992,-8,-60,-0.28,-0.77,0.35
-995,-8,-56,-0.42,-0.84,0.07
-996,-7,-54,-0.42,-0.84,-0.21
-997,-5,-51,-0.42,-0.84,-0.28
-998,-4,-50,-0.14,-0.84,-0.42
-998,-6,-52,0.14,-0.91,-0.49
-996,-7,-52,0.21,-1.12,-0.28
-997,-8,-51,0.21,-1.26,-0.28
-1002,-9,-50,0.14,-1.19,-0.28
-1000,-10,-51,0.07,-0.98,-0.35
-999,-11,-53,0.07,-0.98,-0.42
-1003,-9,-55,0.0,-1.12,-0.56
-1001,-11,-55,0.14,-1.26,-0.28
-998,-11,-58,0.21,-1.4,0.0
-998,-12,-60,0.42,-1.54,0.35
-1000,-11,-61,0.56,-1.96,1.12
-999,-7,-58,0.35,-2.52,1.33
-1000,-6,-57,0.21,-2.1,0.49
-1005,-5,-55,0.07,-1.68,-0.28
-1007,-6,-56,0.0,-1.19,-0.42
-1006,-4,-56,0.0,-1.19,-0.49
-1007,-6,-55,0.14,-1.33,-0.63
-1008,-4,-55,0.21,-1.19,-0.56
-1007,-4,-53,0.35,-0.98,-0.7
-1010,-5,-53,0.56,-0.84,-0.91
-1012,-8,-54,0.7,-0.84,-0.84
-1011,-7,-54,0.7,-0.84,-0.56
-1009,-8,-55,0.77,-0.56,-0.63
-1008,-10,-55,0.56,-0.28,-0.91
-1009,-11,-55,0.49,0.07,-1.26
-1009,-14,-55,0.49,0.21,-1.47
-1010,-15,-55,0.56,0.21,-1.33
-1010,-16,-55,0.49,0.07,-0.63
-1006,-14,-53,0.35,-0.07,0.21
-1002,-9,-52,0.21,0.0,0.42
-1000,-10,-52,0.07,0.21,0.07
-996,-9,-54,0.07,0.35,-0.21
-993,-8,-53,0.0,0.28,-0.28
-996,-7,-51,0.0,-0.14,-0.42
-997,-5,-49,0.14,-0.35,-0.28
-993,-4,-50,0.28,-0.35,-0.14
-990,-3,-51,0.49,-0.21,-0.21
-989,-5,-56,0.56,-0.28,-0.49
-988,-6,-58,0.56,-0.63,-0.63
-991,-7,-56,0.7,-1.05,-0.56
-994,-9,-54,0.77,-1.19,-0.42
-996,-11,-53,0.91,-1.26,-0.49
-999,-15,-54,0.98,-1.12,-0.56
-1000,-16,-55,0.77,-1.12,-0.63
-1000,-15,-52,0.7,-1.19,-0.63
-1005,-16,-53,0.42,-1.12,-0.7
-1006,-15,-50,0.35,-1.19,-0.56
-1006,-14,-51,0.28,-1.12,-0.28
-1003,-14,-52,0.21,-1.05,-0.14
-1004,-13,-53,0.14,-0.91,-0.21
-1003,-13,-55,-0.07,-0.77,-0.21
-1001,-11,-56,-0.14,-0.63,-0.28
-1001,-10,-56,-0.35,-0.77,-0.28
-1002,-6,-54,-0.28,-0.98,-0.21
-1002,-7,-52,-0.07,-1.12,-0.07
-1002,-9,-51,0.14,-1.19,-0.21
-1007,-10,-51,0.35,-1.05,-0.28
-1006,-12,-53,0.21,-0.91,-0.14
-1002,-10,-54,0.07,-0.77,-0.21
-1001,-9,-53,0.0,-0.63,-0.77
-1005,-12,-53,0.07,-0.49,-1.26
-1003,-14,-55,0.07,-0.35,-1.26
-1004,-15,-53,0.0,-0.49,-0.84
-1003,-13,-54,0.0,-0.77,-0.56
-1001,-13,-53,0.0,-0.98,-0.56
-1005,-12,-52,0.0,-0.98,-0.84
-1006,-11,-51,0.07,-0.7,-0.84
-1006,-11,-51,0.14,-0.77,-0.7
-1007,-12,-51,0.35,-0.84,-0.7
-1009,-11,-51,0.28,-0.77,-0.63
-1008,-12,-53,0.21,-0.49,-0.63
-1006,-12,-55,-0.07,-0.07,-0.63
-1006,-11,-55,-0.42,0.07,-0.77
-1004,-10,-55,-0.42,0.14,-0.77
-1001,-12,-55,-0.35,-0.07,-0.56
-1001,-9,-53,-0.21,-0.35,-0.28
-1001,-8,-53,-0.14,-0.56,-0.28
-1002,-8,-51,-0.21,-0.49,-0.56
-1003,-8,-51,-0.21,-0.14,-0.91
-1005,-9,-50,-0.21,0.14,-0.91
-1003,-8,-51,0.0,0.07,-0.63
-1003,-9,-52,0.28,-0.07,-0.49
-1000,-10,-52,0.28,-0.21,-0.42
-1003,-12,-53,0.21,-0.07,-0.42
-1001,-13,-55,-0.14,0.21,-0.35
-998,-14,-56,-0.35,0.28,-0.49
-997,-13,-55,-0.35,0.07,-0.56
-997,-11,-52,-0.35,-0.21,-0.35
-998,-11,-53,-0.21,-0.35,-0.07
-996,-11,-53,-0.21,-0.49,0.28
-997,-9,-54,-0.28,-0.49,0.35
-992,-9,-53,-0.35,-0.42,0.21
-991,-8,-54,-0.21,-0.35,-0.14
-993,-8,-56,-0.14,-0.42,-0.35
-994,-11,-57,-0.07,-0.91,-0.14
-998,-11,-56,0.07,-1.33,0.0
-1001,-10,-56,-0.07,-1.4,0.0
-1000,-10,-57,-0.21,-1.12,-0.21
-1001,-11,-57,-0.35,-0.77,-0.7
-1004,-12,-58,-0.35,-0.7,-0.91
-1003,-13,-60,-0.14,-0.98,-0.63
-1007,-13,-58,-0.07,-1.26,-0.21
-1008,-12,-57,0.0,-1.26,0.07
-1009,-11,-56,-0.14,-0.98,0.14
-1007,-8,-55,-0.35,-0.56,0.0
-1007,-7,-55,-0.35,-0.21,-0.42
-1006,-8,-54,-0.35,-0.14,-0.63
-1006,-7,-55,-0.07,-0.14,-0.42
-1008,-7,-56,0.0,-0.21,-0.14
-1007,-9,-56,0.0,-0.21,0.07
-1005,-6,-56,0.0,-0.21,0.14
-1001,-7,-56,0.0,-0.14,0.0
-1002,-7,-56,0.14,-0.14,-0.35
-1005,-8,-54,0.28,-0.07,-0.56
-1004,-7,-54,0.35,0.0,-0.49
-1003,-9,-55,0.42,0.07,-0.42
-1003,-9,-55,0.35,0.0,-0.35
-1002,-7,-55,0.35,0.0,-0.21
-1000,-8,-54,0.28,0.07,-0.42
-999,-9,-55,0.28,0.21,-0.49
-996,-10,-56,0.28,0.14,-0.28
-995,-8,-56,0.28,-0.21,-0.14
-993,-7,-57,0.35,-0.35,-0.07
-992,-6,-58,0.28,-0.49,-0.14
-993,-7,-58,0.28,-0.56,-0.42
-994,-6,-59,0.35,-0.63,-0.7
-997,-7,-59,0.28,-0.7,-0.98
-996,-9,-58,0.42,-0.7,-1.12
-997,-10,-56,0.42,-0.77,-1.05
-999,-12,-57,0.63,-0.98,-0.91
-1001,-14,-58,0.7,-1.19,-0.63
-1002,-13,-56,0.63,-1.4,-0.28
-1002,-11,-57,0.56,-1.33,-0.14
-1003,-14,-56,0.42,-1.26,-0.28
-1006,-15,-56,0.35,-1.19,-0.42
-1007,-15,-55,0.21,-1.19,-0.28
-1007,-13,-53,0.07,-0.91,-0.21
-1006,-13,-55,0.0,-0.56,-0.28
-1002,-12,-57,-0.21,-0.35,-0.35
-1002,-10,-56,-0.28,-0.35,-0.42
-1003,-7,-55,-0.42,-0.63,-0.14
-1001,-4,-53,-0.21,-0.91,0.14
-1001,-3,-50,0.14,-1.05,0.28
-1003,-4,-50,0.35,-0.98,0.14
-1004,-6,-50,0.56,-0.56,-0.14
-999,-9,-54,0.49,-0.35,-0.35
-997,-8,-54,0.42,-0.21,-0.7
-998,-11,-56,0.35,-0.35,-0.91
-996,-12,-55,0.35,-0.42,-0.91
-996,-14,-56,0.49,-0.63,-0.84
-998,-14,-55,0.56,-0.98,-0.63
-1001,-15,-56,0.7,-1.19,-0.49
-1000,-15,-53,0.77,-1.19,-0.49
-1002,-14,-56,0.7,-0.91,-0.7
-1002,-16,-57,0.63,-0.77,-0.77
-1003,-18,-57,0.35,-0.98,-0.42
-1004,-15,-56,0.14,-1.26,0.0
-1003,-13,-55,-0.14,-1.4,0.14
-1004,-9,-54,-0.35,-1.19,-0.14
-1007,-8,-54,-0.28,-0.77,-0.49
-1007,-9,-56,-0.21,-0.63,-0.42
-1005,-9,-57,0.0,-0.77,-0.14
-1004,-7,-55,0.07,-0.98,0.0
-1004,-6,-53,0.14,-0.91,-0.21
-1006,-6,-52,0.07,-0.49,-0.63
-1003,-7,-54,0.0,-0.14,-0.84
-1003,-6,-54,0.07,-0.07,-0.98
-1004,-7,-55,0.28,-0.21,-0.91
-1003,-10,-58,0.56,-0.42,-0.7
-1002,-12,-58,0.56,-0.63,-0.35
-1004,-11,-58,0.42,-0.77,-0.49
-1006,-12,-57,0.42,-0.56,-0.7
-1004,-12,-55,0.28,-0.35,-0.77
-1003,-10,-53,0.14,-0.28,-0.77
-1004,-8,-53,0.14,-0.21,-0.77
-1003,-11,-54,0.28,-0.21,-0.7
-1001,-10,-55,0.28,-0.28,-0.42
-1001,-9,-53,0.21,-0.49,-0.21
-1002,-8,-55,0.21,-0.56,-0.21
-998,-10,-56,0.14,-0.42,-0.35
-994,-9,-57,0.21,-0.28,-0.56
-998,-9,-58,0.35,-0.14,-0.84
-996,-10,-62,0.35,-0.35,-0.98
-995,-12,-62,0.56,-0.63,-0.91
-999,-13,-62,0.63,-1.05,-0.91
-1006,-12,-60,0.63,-1.19,-0.91
-1007,-14,-58,0.56,-1.05,-0.98
-1011,-14,-57,0.35,-0.63,-1.05
-1011,-15,-57,0.42,-0.28,-1.12
-1010,-15,-59,0.35,-0.07,-1.19
-1008,-14,-59,0.35,0.0,-1.12
-1007,-14,-58,0.28,-0.07,-0.98
-1009,-14,-58,0.14,-0.07,-0.77
-1008,-13,-59,0.0,0.21,-0.35
-1002,-9,-58,-0.07,0.35,-0.21
-1002,-7,-58,0.0,0.49,-0.35
-999,-7,-58,0.07,0.49,-0.49
-998,-5,-56,0.14,0.42,-0.63
-997,-4,-57,0.42,0.21,-0.49
-995,-4,-56,0.63,0.07,-0.49
-996,-5,-58,0.77,0.0,-0.56
-994,-7,-56,0.7,0.0,-0.56
-994,-8,-56,0.63,-0.14,-0.7
-997,-8,-56,0.77,-0.28,-0.98
-999,-10,-57,0.91,-0.42,-0.98
-1000,-11,-57,1.12,-0.56,-0.63
-1000,-10,-57,0.98,-0.56,-0.35
-1001,-8,-56,0.98,-0.42,-0.49
-999,-8,-58,1.12,-0.14,-0.7
-1000,-8,-57,1.26,-0.21,-0.98
-1003,-12,-58,1.4,-0.28,-1.05
-1002,-14,-60,1.4,-0.35,-0.77
-998,-15,-60,1.26,-0.49,-0.63
-1000,-13,-60,1.12,-0.49,-0.77
-1002,-14,-59,0.91,-0.35,-0.84
-1001,-14,-60,0.91,-0.21,-0.7
-1003,-16,-59,0.91,-0.35,-0.77
-1004,-17,-59,0.98,-0.42,-0.7
-1004,-17,-56,1.05,-0.49,-0.63
-1005,-16,-55,1.05,-0.49,-0.42
-1001,-18,-57,1.05,-0.42,-0.35
-1001,-15,-57,0.84,-0.28,-0.56
-1002,-14,-56,0.77,-0.14,-0.77
-1001,-13,-59,0.77,0.0,-0.84
-999,-14,-59,0.84,0.0,-0.91
-998,-17,-61,0.98,-0.14,-0.91
-997,-17,-59,0.91,-0.35,-0.84
-997,-17,-61,0.91,-0.42,-0.84
-994,-18,-61,0.77,-0.49,-0.84
-996,-15,-61,0.63,-0.56,-0.77
-995,-15,-60,0.49,-0.63,-0.84
-995,-13,-58,0.42,-0.63,-0.91
-996,-13,-57,0.49,-0.49,-0.91
-993,-12,-57,0.49,-0.56,-0.77
-989,-13,-59,0.63,-0.77,-0.77
-991,-15,-57,0.63,-1.05,-1.05
-994,-16,-55,0.42,-1.26,-0.98
-992,-13,-54,0.35,-1.26,-0.84
-994,-10,-52,0.42,-1.4,-1.12
-1002,-11,-54,0.77,-1.47,-1.33
-1004,-14,-56,1.19,-1.82,-0.98
-1007,-17,-57,1.19,-2.1,-0.49
-1008,-19,-59,1.26,-1.96,-0.28
-1006,-21,-61,1.26,-1.61,-0.21
-1004,-21,-64,1.54,-1.96,0.56
-1006,-19,-62,1.33,-2.24,0.56
-1011,-24,-61,0.77,-1.68,-0.42
-1011,-23,-59,0.21,-0.77,-0.84
-1012,-17,-57,-0.28,-0.14,-0.77
-1009,-14,-58,-0.21,-0.07,-0.63
-1005,-12,-56,-0.07,-0.49,-0.49
-1003,-11,-57,0.14,-0.7,-0.21
-1001,-11,-54,0.21,-0.56,-0.28
-1001,-11,-56,0.07,-0.28,-0.56
-1001,-11,-56,0.0,-0.28,-0.77
-1000,-10,-55,0.0,-0.35,-0.7
-1001,-9,-54,0.28,-0.35,-0.56
-1004,-8,-53,0.56,-0.49,-0.63
-1005,-10,-53,0.7,-0.63,-0.7
-1005,-13,-55,0.84,-0.42,-0.7
-1003,-16,-56,0.84,-0.21,-0.7
-1001,-18,-58,0.77,-0.07,-0.56
-998,-17,-60,0.63,-0.07,-0.56
-998,-19,-58,0.42,-0.28,-0.77
-999,-20,-59,0.35,-0.28,-0.63
-999,-16,-58,0.21,-0.42,-0.28
-996,-14,-57,0.42,-0.49,-0.14
-994,-13,-57,0.63,-0.56,-0.42
-995,-15,-60,0.77,-0.63,-0.7
-997,-17,-62,0.84,-0.63,-0.77
-997,-17,-65,0.49,-0.77,-0.49
-994,-15,-65,0.35,-0.91,-0.42
-996,-16,-65,0.35,-0.98,-0.63
-999,-18,-62,0.42,-1.12,-0.84
-1005,-17,-61,0.56,-1.33,-0.77
-1011,-16,-57,0.56,-1.4,-0.63
-1012,-18,-58,0.7,-0.98,-0.56
-1009,-19,-58,0.56,-0.49,-0.56
-1006,-19,-59,0.35,0.07,-0.77
-1004,-18,-61,0.0,0.14,-0.91
-1002,-14,-59,-0.07,0.0,-0.91
-1002,-15,-59,0.14,-0.21,-0.63
-1001,-13,-58,0.21,-0.42,-0.35
-1002,-14,-54,0.28,-0.49,-0.21
-1002,-13,-54,0.21,-0.42,0.07
-999,-11,-55,0.28,-0.21,0.07
-998,-11,-55,0.42,0.0,-0.35
-998,-14,-56,0.56,0.07,-0.77
-1000,-16,-56,0.63,-0.07,-0.49
-997,-16,-57,0.56,-0.35,-0.07
-996,-16,-56,0.42,-0.42,0.21
-993,-15,-56,0.42,-0.35,0.28
-990,-14,-56,0.35,-0.28,0.0
-989,-16,-56,0.49,-0.35,-0.28
-988,-17,-55,0.63,-0.63,-0.35
-989,-15,-56,0.7,-0.91,-0.28
-988,-16,-56,0.77,-1.12,-0.21
-987,-16,-57,0.63,-1.33,-0.21
-988,-16,-57,0.49,-1.4,-0.28
-989,-16,-59,0.49,-1.54,-0.42
-991,-16,-57,0.42,-1.75,-0.49
-994,-16,-56,0.56,-1.89,-0.49
-997,-17,-55,0.56,-2.1,-0.49
-1000,-19,-55,0.7,-2.24,-0.42
-1000,-20,-55,0.7,-2.31,-0.28
-1003,-21,-55,0.7,-2.24,-0.35
-1004,-24,-57,0.49,-2.03,-0.21
-1005,-26,-59,0.28,-1.89,0.0
-1007,-26,-60,0.07,-1.82,0.0
-1010,-24,-58,-0.28,-1.89,0.28
-1007,-23,-56,-0.42,-1.75,0.49
-1005,-21,-57,-0.56,-1.68,0.49
-1008,-17,-58,-0.63,-1.61,0.28
-1008,-17,-58,-0.7,-1.33,0.14
-1006,-17,-58,-0.63,-1.19,0.21
-1006,-17,-58,-0.49,-1.12,0.14
-1007,-15,-57,-0.63,-1.12,0.28
-1004,-15,-55,-0.63,-1.19,0.56
-1002,-13,-55,-0.63,-1.26,0.77
-1001,-11,-53,-0.77,-1.26,0.91
-1000,-10,-50,-0.7,-1.12,0.56
-1001,-12,-51,-0.7,-0.98,0.0
-1001,-13,-51,-0.63,-0.98,-0.28
-1005,-13,-52,-0.63,-1.19,-0.35
-1007,-12,-50,-0.42,-1.47,-0.14
-1006,-12,-51,0.0,-1.54,0.14
-1004,-13,-52,0.07,-1.54,0.21
-1007,-14,-53,0.07,-1.26,-0.21
-1010,-17,-53,-0.14,-0.84,-0.35
-1007,-17,-56,-0.35,-0.63,-0.35
-1004,-17,-55,-0.42,-0.63,-0.28
-1005,-15,-57,-0.42,-0.77,-0.14
-1001,-15,-55,-0.35,-0.91,0.07
-999,-14,-54,-0.35,-0.91,0.0
-1001,-15,-54,-0.49,-0.77,0.0
-999,-14,-52,-0.56,-0.63,0.07
-996,-11,-51,-0.7,-0.77,0.21
-994,-10,-49,-0.56,-0.7,0.07
-995,-9,-50,-0.49,-0.7,-0.07
-994,-9,-52,-0.35,-0.63,-0.14
-991,-10,-54,-0.28,-0.63,-0.21
-994,-11,-55,-0.28,-0.91,-0.28
-996,-11,-55,-0.21,-1.4,-0.14
-999,-11,-53,-0.21,-1.68,0.07
-1000,-12,-53,-0.07,-1.75,0.0
-1002,-13,-55,-0.14,-1.54,-0.21
-1003,-13,-51,-0.28,-1.26,-0.35
-1005,-12,-50,-0.49,-1.12,-0.49
-1007,-12,-49,-0.63,-1.05,-0.35
-1004,-10,-50,-0.49,-0.98,-0.07
-1003,-8,-51,-0.21,-1.05,0.07
-1005,-11,-53,-0.07,-1.19,0.14
-1002,-13,-56,0.0,-1.33,0.28
-1000,-13,-56,-0.14,-1.4,0.21
-1003,-10,-58,-0.21,-1.12,-0.28
-1001,-12,-58,-0.35,-0.91,-0.56
-1001,-13,-59,-0.49,-0.91,-0.63
-1003,-12,-58,-0.42,-1.19,-0.49
-1006,-10,-58,-0.28,-1.4,-0.14
-1006,-11,-57,-0.21,-1.4,0.07
-1009,-13,-53,-0.21,-1.33,0.07
-1013,-12,-54,-0.28,-1.05,-0.07
-1012,-11,-53,-0.49,-0.7,-0.14
-1011,-10,-51,-0.56,-0.49,-0.14
-1011,-9,-51,-0.35,-0.35,0.0
-1007,-9,-52,-0.21,-0.42,0.14
-1003,-8,-54,-0.14,-0.35,0.07
-1002,-7,-54,-0.14,-0.14,-0.07
-1000,-7,-55,-0.14,0.07,-0.35
-998,-10,-53,0.0,0.07,-0.49
-1001,-11,-54,0.14,-0.21,-0.35
-1000,-10,-52,0.14,-0.49,0.0
-999,-10,-52,0.21,-0.63,0.21
-998,-12,-53,0.21,-0.56,0.14
-994,-14,-54,0.07,-0.35,-0.07
-996,-13,-54,-0.07,-0.35,-0.28
-998,-14,-55,-0.07,-0.42,-0.28
-997,-13,-55,-0.21,-0.56,0.0
-993,-11,-54,-0.28,-0.84,0.21
-995,-12,-53,-0.21,-1.12,0.14
-998,-12,-51,-0.42,-1.4,0.14
-1000,-10,-49,-0.42,-1.26,0.0
-999,-8,-49,-0.42,-1.12,0.0
-995,-8,-49,-0.35,-0.98,-0.07
-995,-8,-50,-0.14,-1.12,-0.49
-999,-8,-51,-0.07,-1.19,-0.77
-1002,-9,-52,0.07,-1.19,-0.63
-1001,-10,-51,0.0,-1.26,-0.42
-1004,-10,-52,0.07,-1.26,-0.35
-1007,-10,-49,0.0,-1.33,-0.35
-1009,-9,-47,-0.14,-1.19,-0.35
-1008,-9,-47,0.0,-0.91,-0.35
-1009,-9,-48,0.07,-0.7,-0.42
-1009,-12,-50,0.28,-0.63,-0.35
-1008,-12,-54,0.35,-0.56,0.0
-1005,-13,-55,0.14,-0.63,0.14
-1005,-12,-55,-0.14,-0.63,0.0
-1007,-11,-55,-0.35,-0.49,-0.07
-1003,-10,-53,-0.35,-0.42,0.07
-1003,-8,-52,-0.28,-0.42,0.0
-1003,-11,-51,-0.14,-0.56,-0.07
-1002,-10,-50,-0.07,-0.49,0.0
-1002,-9,-51,-0.14,-0.42,-0.14
-1003,-9,-52,-0.14,-0.07,-0.42
-998,-8,-54,-0.28,0.0,-0.49
-994,-9,-53,-0.35,-0.21,-0.42
-993,-11,-52,-0.14,-0.63,-0.42
-996,-12,-50,0.0,-1.12,-0.42
-998,-11,-48,0.14,-1.19,-0.28
-995,-10,-50,0.0,-0.91,-0.35
-997,-13,-50,-0.07,-0.63,-0.91
-1003,-14,-51,-0.07,-0.7,-1.33
-1005,-15,-51,-0.07,-1.05,-0.91
-1003,-14,-50,0.07,-1.33,-0.42
-1005,-13,-51,0.0,-1.47,-0.28
-1006,-13,-51,-0.07,-1.26,-0.42
-1005,-13,-51,-0.21,-0.91,-0.49
-1003,-12,-51,-0.42,-0.7,-0.49
-1004,-11,-50,-0.35,-0.63,-0.84
-1009,-12,-49,-0.35,-0.63,-1.19
-1008,-14,-49,-0.28,-0.49,-0.98
-1006,-12,-50,-0.35,-0.42,-0.7
-1007,-9,-51,-0.49,-0.28,-0.63
-1004,-8,-51,-0.56,-0.14,-0.42
-1000,-6,-52,-0.63,-0.21,-0.28
-997,-5,-53,-0.49,-0.14,-0.35
-1000,-5,-52,-0.49,-0.28,-0.7
-1002,-6,-50,-0.35,-0.28,-0.84
-1000,-5,-49,-0.14,-0.28,-0.77
-999,-5,-49,0.07,-0.28,-0.77
-1001,-10,-51,0.21,-0.14,-0.84
-1000,-10,-52,0.14,-0.35,-0.7
-1001,-10,-50,0.14,-0.63,-0.49
-1002,-11,-51,0.21,-0.7,-0.35
-1001,-12,-50,0.14,-0.63,-0.14
-999,-10,-49,0.07,-0.49,-0.14
-998,-10,-52,0.0,-0.35,-0.28
-997,-9,-53,0.0,-0.14,-0.42
-995,-10,-55,0.14,-0.07,-0.56
-996,-12,-59,0.21,-0.28,-0.7
-994,-14,-60,0.28,-0.7,-0.63
-998,-15,-60,0.07,-1.12,-0.7
-1005,-16,-57,0.0,-1.19,-0.77
-1005,-17,-54,-0.14,-1.05,-0.56
-1006,-14,-53,-0.28,-0.84,-0.63
-1007,-11,-55,-0.21,-0.56,-0.84
-1006,-9,-55,-0.21,-0.42,-0.98
-1008,-11,-54,0.0,-0.42,-1.19
-1009,-13,-54,0.07,-0.56,-0.98
-1011,-13,-55,0.0,-0.49,-0.63
-1008,-15,-54,-0.07,-0.35,-0.28
-1007,-14,-52,-0.14,-0.21,-0.28
-1009,-12,-53,-0.21,-0.07,-0.49
-1006,-12,-53,-0.28,0.14,-0.7
-1003,-12,-54,-0.21,0.28,-0.56
-1001,-11,-55,-0.14,0.21,-0.49
-1001,-11,-56,-0.07,0.21,-0.42
-1000,-13,-55,-0.14,0.14,-0.21
-996,-10,-54,-0.21,0.0,-0.07
-996,-9,-53,-0.07,-0.21,-0.07
-996,-8,-52,-0.07,-0.28,-0.28
-993,-6,-52,0.0,-0.28,-0.35
-993,-5,-51,0.07,-0.21,-0.35
-993,-6,-53,0.21,-0.28,-0.42
-992,-7,-54,0.35,-0.49,-0.56
-993,-9,-54,0.35,-0.7,-0.63
-994,-9,-52,0.42,-0.98,-0.7
-998,-9,-53,0.56,-0.91,-0.77
-999,-11,-51,0.56,-0.98,-0.91
-1001,-13,-52,0.7,-0.98,-0.84
-1004,-15,-52,0.63,-0.98,-0.63
-1002,-14,-54,0.56,-0.91,-0.35
-1002,-12,-54,0.56,-0.91,-0.28
-1000,-13,-54,0.42,-0.91,-0.21
-999,-13,-55,0.49,-0.98,-0.28
-1001,-12,-56,0.35,-0.98,-0.35
-1005,-12,-55,0.28,-0.91,-0.35
-1005,-16,-56,0.21,-0.7,-0.42
-1005,-14,-54,0.0,-0.7,-0.35
-1006,-13,-54,0.21,-0.63,-0.35
-1006,-16,-54,0.21,-0.77,-0.21
-1007,-17,-53,0.28,-0.84,0.0
-1007,-16,-53,0.14,-0.84,0.21
-1004,-13,-54,0.0,-0.56,0.28
-1001,-13,-55,-0.14,-0.28,0.07
-1001,-13,-56,-0.21,-0.28,-0.14
-1001,-13,-57,-0.14,-0.35,-0.14
-999,-12,-55,-0.14,-0.63,-0.14
-1000,-10,-51,-0.07,-0.7,-0.28
-1003,-9,-51,0.07,-0.49,-0.56
-1001,-11,-52,0.0,-0.21,-0.7
-1000,-12,-52,0.0,-0.14,-0.7
-999,-10,-53,0.0,-0.42,-0.56
-999,-9,-52,0.07,-0.56,-0.42
-996,-8,-52,0.14,-0.56,-0.28
-993,-9,-53,0.21,-0.63,-0.49
-994,-11,-52,0.28,-0.77,-0.84
-998,-12,-51,0.14,-0.98,-0.77
-996,-11,-50,0.21,-1.05,-0.63
-996,-9,-49,0.49,-1.12,-0.77
-1001,-15,-52,0.7,-1.19,-0.98
-1002,-17,-54,0.84,-1.12,-0.91
-1000,-19,-55,0.63,-1.12,-0.91
-1005,-18,-55,0.35,-1.05,-1.12
-1008,-20,-55,0.07,-0.84,-1.05
-1007,-17,-56,-0.28,-0.77,-0.7
-1005,-14,-56,-0.42,-0.98,-0.21
-1008,-11,-52,-0.49,-1.12,0.07
-1007,-11,-52,-0.35,-1.05,0.21
-1005,-12,-50,-0.28,-0.98,0.21
-1008,-11,-50,-0.35,-0.7,-0.07
-1007,-11,-50,-0.42,-0.35,-0.21
-1005,-9,-50,-0.63,-0.14,-0.21
-1004,-7,-51,-0.42,-0.07,-0.21
-1001,-5,-52,-0.28,-0.21,0.0
-999,-4,-53,0.0,-0.35,0.07
-997,-5,-53,0.14,-0.49,-0.07
-999,-8,-53,0.14,-0.49,-0.28
-998,-8,-52,0.28,-0.35,-0.35
-999,-10,-53,0.28,-0.28,-0.56
-1002,-14,-52,0.42,-0.28,-0.84
-1006,-15,-52,0.28,-0.42,-0.7
-1001,-17,-53,0.07,-0.49,-0.42
-999,-15,-53,0.0,-0.56,-0.35
-1001,-14,-53,-0.14,-0.63,-0.35
-1003,-15,-55,-0.14,-0.63,-0.14
-998,-13,-57,-0.07,-0.7,0.28
-996,-11,-57,-0.14,-0.84,0.21
-998,-12,-56,-0.07,-0.91,-0.07
-999,-10,-56,-0.07,-0.91,-0.21
-999,-11,-56,-0.07,-0.84,-0.42
-1003,-11,-55,-0.07,-0.84,-0.63
-1005,-11,-54,-0.07,-0.91,-0.7
-1008,-11,-54,0.07,-0.91,-0.7
-1007,-12,-56,0.14,-0.91,-0.56
-1007,-12,-57,0.28,-0.84,-0.63
-1009,-10,-57,0.07,-0.63,-0.7
-1009,-9,-55,0.0,-0.35,-0.91
-1006,-9,-55,0.14,-0.07,-0.91
-1005,-8,-56,0.14,-0.07,-0.84
-1008,-10,-53,0.35,-0.35,-0.7
-1012,-9,-53,0.42,-0.49,-0.56
-1009,-8,-53,0.49,-0.28,-0.42
-1007,-10,-54,0.49,0.14,-0.42
-1004,-11,-56,0.42,0.28,-0.49
-1004,-11,-57,0.35,0.21,-0.42
-1001,-12,-56,0.35,0.0,-0.07
-998,-10,-55,0.42,-0.07,-0.07
-999,-11,-54,0.49,-0.14,-0.28
-997,-9,-54,0.42,-0.07,-0.42
-995,-10,-54,0.49,0.07,-0.7
-995,-9,-54,0.42,0.07,-0.77
-993,-9,-56,0.49,0.0,-0.84
-995,-9,-55,0.63,-0.28,-0.84
-997,-10,-54,0.63,-0.56,-0.63
-997,-11,-53,0.7,-0.63,-0.56
-998,-10,-53,0.63,-0.7,-0.63
-999,-9,-53,0.77,-0.56,-0.84
-998,-11,-55,0.77,-0.49,-0.84
-997,-13,-57,0.77,-0.63,-0.91
-1002,-13,-57,0.77,-0.77,-1.05
-1006,-14,-58,0.7,-0.77,-0.91
-1004,-16,-59,0.63,-0.77,-0.7
-1004,-14,-57,0.56,-0.63,-0.56
-1007,-14,-55,0.63,-0.7,-0.63
-1009,-15,-55,0.63,-0.63,-0.56
-1006,-13,-54,0.56,-0.42,-0.42
-1006,-12,-55,0.49,-0.21,-0.35
-1003,-12,-57,0.49,-0.14,-0.49
-1003,-13,-56,0.49,-0.28,-0.42
-1006,-11,-55,0.49,-0.35,-0.35
-1005,-10,-56,0.56,-0.21,-0.35
-1000,-11,-55,0.63,0.0,-0.35
-998,-11,-57,0.63,0.0,-0.56
-1000,-10,-57,0.63,-0.14,-0.63
-999,-10,-55,0.7,-0.21,-0.56
-1000,-11,-58,0.91,-0.28,-0.42
-1001,-16,-62,1.05,-0.21,-0.28
-1002,-23,-64,0.84,-0.42,-0.14
-1006,-25,-64,0.56,-0.56,0.14
-1007,-28,-62,0.35,-0.49,0.28
-1009,-32,-63,0.14,-0.21,0.28
-1008,-33,-64,-0.14,0.0,0.35
-1008,-30,-62,-0.77,0.21,0.56
-1002,-25,-61,-1.19,0.42,0.84
-996,-19,-62,-1.54,0.49,0.91
-993,-15,-62,-1.68,0.35,0.91
-989,-10,-59,-1.68,0.0,0.84
-989,-6,-54,-1.68,-0.49,0.7
-992,-2,-50,-1.4,-0.7,0.49
-993,0,-47,-1.12,-0.7,0.14
-992,-2,-47,-0.63,-0.7,-0.28
-995,-2,-47,-0.14,-0.63,-0.84
-998,-5,-49,0.28,-0.84,-1.12
-1001,-8,-50,0.63,-0.98,-1.19
-1004,-12,-52,0.7,-1.05,-1.19
-1006,-15,-53,0.63,-0.84,-1.19
-1007,-15,-54,0.49,-0.63,-1.12
-1005,-12,-54,0.28,-0.63,-0.98
-1004,-9,-55,0.14,-0.42,-0.98
-1003,-8,-55,0.21,-0.42,-0.91
-1003,-9,-55,0.35,-0.35,-0.7
-1002,-6,-53,0.35,-0.42,-0.49
-1001,-4,-53,0.35,-0.35,-0.56
-999,-3,-52,0.42,0.0,-0.7
-999,-3,-54,0.56,0.0,-0.84
-1001,-3,-54,0.77,-0.07,-0.84
-1000,-5,-56,0.91,-0.21,-0.35
-998,-9,-59,1.12,-0.49,-0.07
-1001,-11,-60,1.19,-0.7,-0.21
-1005,-15,-60,1.19,-0.63,-0.49
-1007,-19,-60,1.19,-0.35,-0.7
-1010,-24,-61,0.98,0.0,-0.63
-1011,-27,-62,0.77,0.14,-0.35
-1011,-31,-63,0.56,0.07,0.14
-1013,-37,-66,0.42,-0.07,0.56
-1012,-41,-68,0.14,0.0,0.98
-1010,-41,-71,-0.56,0.21,1.19
-1009,-39,-74,-1.4,0.49,1.33
-1004,-33,-72,-2.24,0.63,1.47
-998,-26,-68,-2.66,0.49,1.47
-998,-19,-65,-2.8,0.35,1.33
-998,-15,-61,-2.87,0.07,1.26
-997,-8,-60,-2.87,0.0,1.54
-996,-2,-55,-2.8,0.0,1.4
-997,0,-51,-2.52,0.0,0.91
-1000,0,-52,-2.03,0.0,0.49
-1003,0,-52,-1.75,0.07,0.35
-1000,2,-51,-1.54,0.14,0.14
-998,5,-49,-1.4,0.35,-0.35
-999,7,-50,-1.12,0.56,-0.98
-996,9,-47,-0.63,0.7,-1.33
-995,6,-52,-0.21,0.7,-1.26
-996,8,-49,0.14,0.21,-0.77
-998,9,-52,0.63,0.21,-0.98
-995,9,-49,1.19,0.14,-0.84
-994,7,-52,1.61,0.28,-1.33
-995,3,-53,1.75,0.35,-1.68
-998,4,-53,1.82,0.21,-1.54
-994,5,-54,1.96,0.07,-1.33
-991,6,-57,2.17,0.07,-1.26
-989,7,-59,2.31,0.0,-1.19
-989,7,-59,2.52,-0.21,-1.19
-989,3,-61,2.94,-0.49,-0.98
-990,0,-61,3.22,-0.84,-0.77
-994,-5,-64,3.64,-1.05,-0.7
-996,-11,-66,3.71,-1.19,-0.7
-999,-17,-69,3.57,-1.19,-0.84
-1001,-24,-71,3.29,-0.98,-0.77
-1001,-25,-71,2.66,-0.91,-0.56
-1001,-24,-68,2.31,-1.12,-0.49
-1009,-22,-66,1.96,-1.12,-0.35
-1012,-24,-64,1.82,-1.19,0.21
-1011,-23,-63,1.89,-1.26,0.84
-1009,-23,-65,1.75,-1.4,1.19
-1010,-22,-65,1.54,-1.19,1.05
-1008,-21,-63,1.05,-0.84,0.7
-1004,-21,-64,0.7,-0.56,0.49
-1003,-19,-63,0.56,-0.49,0.35
-1003,-16,-61,0.42,-0.63,0.35
-1001,-15,-61,0.63,-0.77,0.35
-1000,-18,-60,0.84,-0.84,0.21
-1003,-20,-59,0.77,-0.77,-0.07
-1002,-20,-61,0.56,-0.56,-0.21
-1000,-22,-61,0.35,-0.35,-0.49
-1001,-22,-63,0.14,-0.21,-0.91
-999,-23,-63,-0.07,-0.28,-0.84
-995,-22,-63,-0.07,-0.42,-0.84
-998,-19,-61,-0.21,-0.77,-0.77
-997,-17,-61,-0.21,-0.77,-0.84
-992,-16,-60,-0.42,-0.56,-0.98
-991,-14,-59,-0.77,-0.42,-1.12
-992,-11,-59,-0.77,-0.49,-1.33
-990,-10,-60,-0.7,-0.7,-1.33
-988,-10,-60,-0.49,-0.98,-1.19
-991,-11,-60,-0.35,-1.33,-1.12
-990,-12,-58,-0.35,-1.68,-1.12
-995,-11,-57,-0.21,-1.82,-1.12
-995,-11,-57,-0.35,-1.89,-1.12
-998,-10,-56,-0.35,-1.89,-1.26
-1003,-11,-56,-0.35,-1.82,-1.4
-1007,-13,-58,-0.28,-1.82,-1.26
-1008,-13,-59,-0.28,-1.82,-0.84
-1006,-12,-58,-0.42,-1.75,-0.42
-1008,-11,-58,-0.42,-1.54,-0.56
-1009,-12,-60,-0.35,-1.33,-0.84
-1010,-14,-61,-0.42,-1.05,-0.98
-1012,-15,-61,-0.42,-0.77,-0.77
-1010,-13,-61,-0.7,-0.7,-0.42
-1004,-13,-62,-0.7,-0.63,-0.28
-1003,-12,-62,-0.84,-0.56,-0.35
-1001,-10,-63,-0.91,-0.56,-0.28
-997,-8,-62,-0.84,-0.56,-0.21
-996,-9,-61,-0.77,-0.77,-0.07
-995,-8,-62,-0.49,-0.91,0.14
-991,-7,-61,-0.42,-1.12,0.21
-989,-7,-61,-0.42,-1.12,-0.21
-992,-8,-61,-0.35,-1.12,-0.84
-993,-10,-59,-0.28,-1.33,-0.91
-995,-9,-57,-0.07,-1.68,-0.77
-995,-7,-56,0.0,-1.89,-0.56
-991,-6,-59,0.14,-1.61,-0.56
-989,-8,-62,0.14,-1.61,-0.77
-988,-6,-62,0.21,-1.75,-0.98
-990,-7,-65,0.49,-1.96,-1.12
-988,-9,-69,0.77,-2.24,-1.26
-991,-10,-70,0.98,-2.52,-1.33
-1002,-12,-70,1.19,-3.08,-0.84
-1004,-15,-70,0.91,-3.36,-0.35
-1004,-14,-70,0.42,-3.08,-0.63
-1008,-11,-65,-0.21,-2.66,-1.26
-1013,-7,-60,-0.42,-2.24,-1.47
-1014,-5,-57,-0.21,-2.03,-1.12
-1015,-6,-53,0.07,-2.24,-0.56
-1017,-5,-52,0.49,-2.24,-0.07
-1014,-6,-52,0.49,-2.03,0.21
-1014,-5,-52,0.49,-1.68,0.07
-1013,-3,-52,0.42,-1.33,0.0
-1010,-3,-53,0.56,-1.12,-0.07
-1009,-6,-54,0.91,-1.05,-0.07
-1009,-7,-54,0.98,-1.05,-0.07
-1009,-9,-53,1.05,-0.84,-0.21
-1008,-11,-50,0.98,-0.56,-0.35
-1009,-12,-50,0.98,-0.28,-0.49
-1006,-13,-49,1.19,-0.21,-0.42
-1005,-17,-50,1.33,-0.35,-0.07
-1002,-16,-52,1.26,-0.42,0.35
-999,-15,-52,0.98,-0.56,0.56
-996,-13,-52,0.77,-0.42,0.35
-998,-15,-52,0.7,-0.28,-0.07
-998,-14,-51,0.56,-0.35,-0.14
-997,-13,-49,0.63,-0.63,0.14
-996,-12,-45,0.7,-0.84,0.14
-1002,-12,-44,0.84,-0.84,-0.14
-1003,-16,-44,0.84,-0.63,0.0
-1000,-17,-43,0.7,-0.42,0.21
-999,-19,-44,0.7,-0.42,0.28
-997,-20,-45,0.7,-0.49,0.21
-994,-23,-48,0.77,-0.56,0.14
-994,-27,-51,0.7,-0.7,0.07
-993,-27,-55,0.42,-0.84,0.07
-995,-24,-54,0.07,-1.05,0.07
-993,-20,-54,-0.14,-1.05,-0.21
-993,-22,-54,-0.21,-1.12,-0.49
-996,-20,-56,-0.21,-1.33,-0.7
-997,-18,-57,-0.21,-1.54,-0.77
-997,-19,-56,-0.14,-1.75,-0.91
-1003,-19,-57,-0.21,-1.89,-0.77
-1006,-16,-55,-0.14,-2.03,-0.42
-1005,-14,-53,-0.35,-1.82,-0.7
-1005,-13,-53,-0.56,-1.47,-1.4
-1007,-13,-53,-0.63,-1.19,-1.82
-1010,-13,-53,-0.63,-1.26,-1.75
-1011,-13,-49,-0.56,-1.54,-1.4
-1014,-15,-46,-0.49,-1.68,-1.19
-1015,-12,-44,-0.49,-1.4,-0.98
-1013,-11,-43,-0.56,-0.91,-0.84
-1011,-9,-43,-0.49,-0.49,-1.05
-1012,-11,-47,-0.21,-0.28,-1.19
-1007,-14,-52,-0.14,-0.21,-0.84
-1003,-14,-52,-0.14,-0.28,-0.63
-1005,-16,-52,-0.21,-0.35,-0.84
-1008,-18,-51,-0.42,-0.14,-0.91
-1003,-18,-51,-0.49,0.0,-0.7
-999,-18,-52,-0.56,-0.14,-0.56
-999,-17,-53,-0.42,-0.35,-0.7
-1002,-20,-54,-0.49,-0.56,-0.77
-1002,-19,-53,-0.49,-0.63,-0.56
-1002,-17,-54,-0.49,-0.56,-0.56
-1002,-17,-55,-0.63,-0.28,-0.77
-1003,-18,-56,-0.7,-0.07,-0.84
-1004,-17,-57,-0.98,-0.14,-0.84
-1004,-14,-54,-1.12,-0.21,-0.77
-1005,-11,-52,-1.26,-0.21,-0.77
-1008,-10,-50,-1.19,-0.21,-0.98
-1011,-10,-51,-1.12,0.0,-0.84
-1011,-7,-48,-0.98,0.0,-0.42
-1011,-6,-47,-0.77,0.0,-0.14
-1010,-5,-46,-0.56,0.07,0.0
-1009,-4,-46,-0.42,0.35,-0.14
-1007,-5,-45,-0.28,0.7,-0.28
-1005,-5,-47,-0.21,0.98,-0.42
