acc_x[mg],acc_y[mg],acc_z[mg],gyro_x[dps],gyro_y[dps],gyro_z[dps]
-803,706,5,-26.11,-17.64,4.13
-775,571,-3,-29.47,-17.78,4.34
-758,499,12,-23.24,-17.36,5.88
-759,486,34,-13.79,-15.96,7.7
-791,524,38,-5.25,-14.28,10.92
-802,596,50,-2.31,-12.88,13.37
-786,649,62,-2.66,-11.06,15.4
-792,643,51,-5.04,-9.8,17.85
-801,624,57,-7.42,-9.87,18.27
-794,646,49,-4.48,-10.99,17.5
-789,659,26,-3.01,-11.34,19.11
-777,625,3,-3.71,-11.55,20.86
-800,597,-1,-1.82,-11.34,21.63
-834,580,6,0.84,-11.27,22.12
-845,617,0,5.53,-12.25,22.96
-846,621,-8,7.28,-13.02,24.85
-839,591,-10,6.37,-13.65,25.27
-818,569,-14,5.6,-14.98,23.52
-808,556,-4,5.53,-15.61,21.35
-811,558,-6,4.9,-16.73,19.6
-806,573,-5,2.17,-17.85,18.48
-790,564,-8,-3.15,-18.2,18.13
-747,528,-23,-7.21,-18.48,17.71
-733,495,-38,-8.26,-19.32,17.36
-764,471,-41,-10.29,-22.4,17.08
-776,476,-41,-16.1,-27.72,15.05
-717,504,-43,-17.78,-28.91,12.11
-661,541,-20,-18.34,-25.9,11.76
-638,605,8,-20.58,-23.73,12.32
-659,676,47,-23.73,-22.89,12.11
-715,781,58,-25.06,-24.01,11.97
-754,848,59,-27.51,-25.27,12.95
-752,846,84,-30.66,-26.18,12.81
-749,833,78,-25.9,-28.35,12.32
-735,783,71,-19.46,-29.12,12.95
-682,694,79,-14.56,-28.7,11.76
-654,644,91,-6.23,-28.0,10.15
-672,659,103,1.26,-27.3,9.03
-691,693,111,3.85,-26.74,7.98
-689,699,118,2.03,-25.9,7.07
-658,692,112,-0.21,-24.99,5.95
-637,696,119,-1.82,-23.66,5.32
-644,707,134,-4.97,-21.98,4.97
-665,716,153,-8.68,-20.51,4.97
-681,718,167,-12.25,-19.18,4.83
-670,697,167,-13.02,-17.99,5.32
-668,687,165,-10.22,-17.29,6.16
-724,728,169,-5.32,-17.85,6.16
-801,791,169,-2.1,-19.11,5.11
-793,765,166,-5.6,-18.34,3.99
-714,684,163,-9.45,-16.66,2.52
-662,630,159,-7.42,-15.68,1.75
-664,643,161,-3.85,-15.75,2.03
-691,689,159,-5.95,-16.17,2.94
-699,725,154,-13.02,-16.1,3.01
-719,735,159,-23.31,-18.34,1.68
-743,714,150,-36.33,-24.5,-0.7
-724,693,157,-43.68,-26.46,-3.5
-712,697,181,-43.4,-23.24,-4.69
-707,681,205,-40.39,-19.81,-5.32
-684,642,225,-34.93,-16.52,-5.6
-668,596,237,-25.62,-13.44,-5.74
-671,582,239,-13.51,-10.71,-5.39
-692,618,235,-2.87,-8.19,-4.83
-714,666,228,2.38,-6.44,-4.83
-712,723,223,1.54,-4.76,-5.46
-699,778,224,-4.76,-3.22,-6.79
-695,793,238,-14.63,-2.87,-8.82
-693,758,250,-25.27,-3.92,-10.71
-664,698,238,-30.24,-4.48,-12.32
-641,620,232,-26.88,-3.08,-12.53
-641,559,224,-16.66,-1.75,-12.04
-659,526,224,-2.03,-0.84,-11.41
-683,551,227,13.79,-0.28,-10.5
-703,627,231,27.3,-0.07,-9.38
-696,695,201,34.51,-0.63,-7.35
-677,735,191,32.41,-0.42,-5.46
-667,812,207,25.41,0.63,-5.18
-656,859,212,17.78,0.84,-6.02
-645,815,200,5.67,0.63,-6.02
-642,762,207,-7.07,1.12,-6.51
-683,715,227,-12.32,2.52,-7.77
-703,635,232,-12.25,3.85,-7.84
-697,580,234,-8.12,5.32,-7.28
-696,571,246,-0.35,7.07,-6.44
-706,595,254,8.68,8.4,-5.53
-720,635,223,17.64,7.84,-5.04
-719,675,185,22.19,7.63,-5.11
-718,664,173,20.09,8.47,-5.32
-737,631,168,18.2,9.1,-6.3
-763,634,178,20.58,8.89,-7.98
-765,650,185,22.54,8.4,-9.03
-752,663,194,21.56,8.82,-8.82
-738,665,204,20.58,9.24,-8.68
-725,647,202,21.28,9.31,-8.4
-720,624,192,22.05,8.89,-7.77
-732,617,163,25.13,7.77,-8.26
-748,621,142,27.51,7.35,-8.61
-749,616,143,27.37,7.63,-8.47
-756,630,134,28.28,7.98,-8.68
-753,635,117,27.79,7.42,-8.61
-741,626,109,23.59,6.65,-7.56
-741,629,111,18.41,6.16,-7.07
-743,668,121,13.3,5.81,-7.49
-730,710,137,8.33,5.46,-8.33
-703,705,137,2.94,5.25,-7.77
-692,643,116,-0.42,4.9,-6.3
-706,586,100,0.77,4.76,-5.88
-739,602,103,4.97,4.41,-7.0
-754,667,111,8.47,3.78,-7.56
-739,693,105,7.77,3.43,-5.95
-718,655,103,3.57,3.64,-4.34
-707,610,108,1.05,3.64,-4.27
-725,594,125,-0.56,1.89,-4.48
-741,602,137,-6.23,-3.92,-4.41
-737,607,147,-13.79,-10.15,-4.41
-718,627,132,-21.07,-13.93,-3.36
-704,666,111,-28.91,-10.78,-1.26
-718,699,130,-42.77,-5.74,0.63
-724,753,139,-51.94,-1.89,-0.91
-724,753,157,-55.72,1.12,-0.77
-709,648,163,-59.43,2.8,0.84
-686,520,164,-54.39,4.06,-0.14
-695,428,158,-36.05,5.04,-1.68
-732,412,158,-10.99,6.09,-2.03
-769,505,169,15.19,7.35,-2.24
-790,639,181,36.96,8.05,-2.1
-779,727,190,48.02,8.96,-0.91
-741,756,186,49.42,10.22,-0.98
-715,765,179,46.41,10.36,-2.17
-708,762,150,39.55,9.8,-2.52
-725,747,119,32.83,8.82,-2.59
-748,725,119,24.15,7.91,-2.1
-759,691,107,13.09,6.09,-1.89
-776,718,87,6.79,5.53,-2.52
-775,707,100,-1.68,5.88,-1.61
-769,689,107,-7.42,5.25,-1.19
-755,667,86,-6.44,3.92,-1.12
-726,599,84,-6.58,3.71,0.0
-718,539,86,-1.68,3.92,0.21
-736,532,91,8.96,3.64,0.0
-743,578,98,17.5,3.78,0.63
-741,639,124,20.44,4.34,1.47
-755,655,159,12.6,2.31,2.59
-734,661,126,0.91,-3.15,2.24
-711,649,129,-8.12,-4.69,2.52
-725,585,224,-24.15,-7.49,3.92
-702,602,99,-38.15,-9.87,4.76
-715,657,59,-37.31,-4.69,7.7
-737,701,76,-38.57,-1.4,10.36
-758,733,87,-41.86,-0.07,11.69
-761,693,96,-48.51,-0.07,12.04
-759,615,104,-55.16,0.14,10.78
-766,601,120,-53.27,0.63,7.91
-773,639,150,-44.8,0.56,5.6
-753,624,170,-37.73,0.56,5.6
-731,569,175,-30.1,1.12,5.46
-730,532,185,-17.43,1.26,3.43
-732,571,189,-0.49,1.26,1.61
-729,622,195,13.3,1.12,1.75
-719,627,190,18.97,0.77,2.66
-711,646,175,21.91,1.05,2.73
-726,657,175,22.47,1.47,2.66
-746,648,162,19.25,1.89,2.45
-757,665,148,16.17,1.96,1.47
-759,680,145,11.97,2.1,1.05
-754,679,151,6.65,2.45,0.91
-746,678,160,2.45,2.87,0.42
-743,672,160,0.14,3.15,-0.21
-736,654,164,-0.56,3.5,-0.63
-734,660,169,1.12,3.43,-1.4
-735,686,156,6.3,2.73,-2.52
-745,689,117,11.69,2.38,-2.8
-738,653,94,15.61,2.17,-2.73
-730,627,105,18.9,2.1,-2.87
-731,627,145,19.53,1.54,-2.94
-728,646,149,15.26,0.49,-2.38
-715,660,142,9.45,0.14,-1.26
-703,664,146,4.97,0.21,-0.35
-700,666,146,2.1,0.56,0.21
-708,685,139,0.14,1.05,0.42
-719,687,135,-2.73,1.47,0.49
-728,675,130,-5.74,1.89,0.28
-737,650,128,-6.58,2.17,-0.28
-746,623,125,-5.53,1.96,-0.7
-753,614,118,-1.61,1.47,-0.98
-752,640,114,3.92,1.82,-1.12
-738,657,122,7.28,2.66,-1.12
-723,659,129,9.17,3.92,-0.91
-716,639,130,10.64,4.9,-0.7
-716,616,130,11.2,5.46,-0.35
-732,611,132,12.11,5.18,-0.42
-747,625,127,13.02,4.48,-0.56
-753,640,124,12.25,4.27,-0.35
-751,654,126,9.73,4.48,-0.21
-745,668,130,6.93,4.76,-0.35
-734,680,132,4.62,4.97,-0.7
-731,672,131,3.08,5.18,-0.77
-735,636,117,3.36,4.48,-1.12
-741,607,107,6.02,3.78,-1.54
-742,603,109,10.71,3.99,-1.82
-741,629,112,15.89,4.48,-1.61
-736,665,114,18.97,4.76,-1.19
-727,682,112,17.57,4.76,-0.49
-726,677,106,13.79,4.62,-0.14
-738,668,97,10.15,4.06,-0.07
-744,670,95,6.86,3.43,-0.28
-740,677,92,4.06,2.8,-0.21
-736,692,94,0.98,2.45,0.14
-725,696,95,-2.59,2.24,0.21
-716,691,95,-5.53,2.03,0.42
-719,655,93,-7.14,1.68,0.49
-725,609,87,-6.65,1.33,0.84
-736,588,86,-2.66,0.98,0.91
-748,604,89,2.94,0.84,1.05
-754,637,91,6.58,0.98,1.4
-750,658,88,6.44,0.91,1.54
-745,657,88,3.71,0.77,1.4
-747,658,89,1.4,0.56,0.84
-746,662,94,-0.28,0.49,0.42
-741,663,97,-1.54,0.28,0.35
-736,654,97,-2.24,0.21,0.56
-736,642,97,-2.24,0.49,0.7
-737,635,96,-1.33,0.49,0.63
-741,632,92,-0.14,0.49,0.63
-742,637,91,0.7,0.49,0.7
-742,644,87,1.4,0.56,0.77
-742,643,83,1.26,0.56,0.91
-737,648,83,0.84,0.42,0.77
-739,656,89,0.21,0.42,0.63
-740,666,92,-0.63,0.56,0.56
-735,664,93,-2.1,0.63,0.56
-726,667,96,-2.94,0.56,0.42
-720,673,98,-3.01,0.91,0.28
-723,665,96,-3.36,1.19,0.35
-730,639,96,-3.5,1.19,0.21
-742,620,97,-2.17,1.12,-0.14
-747,637,100,1.96,1.05,-0.49
-741,679,102,5.95,1.12,-0.56
-722,701,99,6.16,1.33,0.07
-709,697,91,3.78,1.4,0.42
-716,668,85,1.19,1.19,0.14
-733,649,83,0.7,0.63,-0.35
-747,647,84,2.03,0.35,-0.77
-743,650,86,2.45,0.35,-0.49
-738,655,90,2.45,0.56,-0.14
-735,657,92,2.24,0.77,0.14
-730,663,92,1.68,0.77,0.21
-734,661,89,0.77,0.84,0.28
-737,652,87,-0.35,0.84,0.28
-741,646,84,-0.42,0.84,0.14
-743,646,85,0.28,0.84,0.0
-742,654,89,0.0,1.05,0.0
-741,662,91,-0.98,1.12,0.0
-740,665,92,-2.17,1.4,0.14
-735,662,95,-3.5,1.61,0.35
-729,659,90,-3.36,1.61,0.21
-730,646,82,-2.24,1.26,0.14
-735,636,78,-1.05,0.98,0.07
-746,629,73,0.35,0.77,-0.21
-753,631,72,2.17,0.42,-0.35
-750,650,69,4.2,0.0,-0.49
-741,667,65,4.48,-0.28,-0.14
-737,655,61,2.73,-0.77,0.0
-737,633,61,0.91,-1.33,0.07
-742,647,70,1.47,-1.89,-0.21
-738,678,80,2.24,-1.96,-0.21
-731,686,80,0.42,-1.96,0.28
-726,666,82,-2.66,-2.24,0.56
-727,647,83,-4.13,-2.24,0.21
-739,636,88,-3.29,-2.17,-0.07
-743,647,96,-1.68,-1.96,-0.07
-737,665,101,-0.56,-1.61,0.21
-726,669,97,-0.35,-1.12,0.7
-721,658,93,-0.98,-0.91,0.84
-730,652,88,-1.33,-0.91,0.63
-744,645,84,-0.77,-1.05,0.42
-743,655,85,-0.21,-0.98,0.42
-738,659,86,-0.21,-0.77,0.42
-737,657,87,-0.77,-0.84,0.63
-736,652,88,-1.26,-0.77,0.63
-734,650,84,-1.4,-0.77,0.7
-733,651,86,-1.47,-0.77,0.77
-737,659,92,-1.54,-0.56,0.7
-736,663,94,-1.54,-0.28,0.63
-730,666,96,-1.82,0.0,0.56
-727,669,96,-1.54,0.14,0.21
-725,657,91,-1.4,0.35,0.28
-729,639,88,-1.26,0.49,0.42
-738,633,88,0.14,0.49,0.35
-747,644,87,2.24,0.56,0.28
-746,653,85,3.01,0.63,0.35
-743,658,85,2.24,0.56,0.35
-738,672,86,1.26,0.49,0.14
-732,686,88,0.56,0.49,-0.21
-726,688,85,-0.49,0.49,-0.35
-718,686,87,-2.03,0.42,-0.28
-718,662,82,-2.73,0.28,-0.42
-725,632,77,-2.03,-0.14,-0.28
-741,628,76,0.35,-0.56,-0.28
-750,644,79,2.73,-0.7,-0.07
-745,655,81,2.87,-0.56,0.42
-737,662,85,1.47,-0.49,0.56
-732,669,88,0.49,-0.56,0.35
-728,671,88,-0.35,-0.49,0.35
-733,655,86,-1.61,-0.49,0.28
-739,648,86,-1.47,-0.77,-0.07
-741,644,83,-0.14,-0.84,-0.14
-740,639,83,0.84,-0.63,0.0
-742,649,85,1.54,-0.56,-0.14
-741,662,85,2.38,-0.63,-0.28
-737,664,84,1.82,-0.56,-0.14
-734,665,84,1.26,-0.63,-0.28
-738,663,79,1.4,-0.98,-0.56
-736,664,78,1.61,-1.26,-0.56
-730,664,80,1.12,-1.19,-0.63
-729,655,80,0.42,-1.19,-0.63
-731,645,81,-0.42,-1.33,-0.42
-736,638,82,-1.05,-1.33,-0.28
-740,645,86,-0.91,-1.12,-0.14
-736,663,88,-0.42,-0.98,-0.07
-728,676,86,-0.84,-0.84,0.07
-725,665,79,-2.38,-0.77,0.21
-732,637,80,-3.57,-0.91,0.14
-743,639,82,-2.66,-1.12,-0.35
-745,666,84,-0.14,-1.26,-0.56
-732,682,87,0.28,-0.98,-0.21
-722,676,86,-0.84,-0.84,-0.07
-721,656,85,-1.47,-0.98,-0.14
-730,643,82,-0.91,-1.12,-0.35
-743,624,78,0.0,-1.4,-0.28
-753,627,78,0.91,-1.61,-0.28
-754,651,83,1.75,-1.47,-0.28
-740,682,86,0.98,-1.26,-0.21
-725,697,90,-2.03,-1.19,-0.14
-717,687,90,-5.53,-1.12,-0.14
-720,664,87,-7.21,-1.26,-0.35
-726,644,82,-6.93,-1.47,-0.42
-741,624,76,-5.95,-1.75,-0.14
-752,624,81,-4.34,-1.96,-0.14
-749,657,91,-2.38,-1.75,-0.28
-737,681,99,-2.8,-1.19,0.07
-725,685,100,-5.39,-0.98,0.28
-722,668,101,-7.0,-0.98,-0.21
-723,641,94,-6.65,-0.98,-0.63
-727,620,89,-4.13,-1.05,-0.77
-732,619,88,-0.35,-1.12,-0.7
-733,644,92,3.5,-0.91,-0.42
-734,666,92,4.69,-0.56,0.07
-730,671,90,3.22,-0.49,0.49
-729,664,88,1.05,-0.63,0.7
-734,655,89,-0.7,-0.63,0.91
-739,653,89,-1.54,-0.77,0.98
-744,658,90,-1.89,-1.05,0.98
-741,668,92,-2.52,-1.12,1.05
-736,674,94,-3.5,-1.19,0.98
-733,668,98,-4.62,-1.4,0.91
-733,654,100,-5.04,-1.47,0.84
-737,636,95,-4.83,-1.4,0.84
-742,619,96,-3.01,-1.4,0.98
-750,622,99,-0.49,-1.4,1.05
-750,642,97,1.96,-1.54,0.84
-741,656,94,2.94,-1.26,0.84
-731,660,97,1.96,-0.98,1.05
-729,662,99,0.63,-0.91,1.12
-729,661,98,-0.21,-0.91,1.12
-728,660,95,-0.98,-0.84,1.26
-733,653,96,-1.82,-0.77,1.47
-737,647,96,-2.24,-0.7,1.54
-740,643,98,-2.03,-0.56,1.54
-740,653,103,-1.05,-0.42,1.33
-735,671,103,0.42,-0.28,0.98
-726,671,99,0.7,-0.21,1.05
-719,666,96,0.14,-0.21,0.98
-722,658,92,0.28,-0.21,0.77
-725,657,92,1.33,-0.14,0.84
-726,670,97,1.89,-0.07,1.05
-723,681,98,1.54,0.0,1.19
-719,686,98,0.21,0.07,1.19
-721,673,96,-1.61,0.14,1.12
-730,652,93,-3.15,0.0,0.98
-737,645,94,-2.8,0.07,0.56
-736,655,96,-1.19,0.28,0.49
-726,666,98,-0.14,0.42,0.7
-722,668,97,-0.56,0.49,0.91
-727,662,93,-1.12,0.35,0.77
-738,658,90,-0.77,0.14,0.42
-742,651,86,-0.35,-0.14,0.21
-741,658,90,0.28,-0.28,0.0
-734,667,94,1.12,-0.21,-0.28
-728,672,95,1.47,-0.28,-0.42
-721,671,94,0.91,-0.42,-0.35
-721,665,93,0.21,-0.49,-0.42
-727,657,94,0.28,-0.49,-0.49
-727,663,95,0.7,-0.49,-0.49
-726,669,96,0.77,-0.28,-0.49
-725,660,92,0.14,-0.14,-0.28
-728,653,93,-0.42,-0.21,-0.28
-732,654,90,0.0,-0.28,-0.42
-731,661,89,0.77,-0.35,-0.35
-733,666,91,0.21,-0.28,-0.14
-734,664,89,-0.49,-0.35,-0.14
-734,651,87,-0.98,-0.49,-0.21
-740,642,90,-1.4,-0.56,-0.35
-744,638,91,-1.05,-0.7,-0.63
-743,639,95,-0.7,-0.7,-0.49
-742,651,97,-0.21,-0.63,-0.42
-740,662,100,0.21,-0.7,-0.56
-730,669,101,-0.56,-0.49,-0.77
-722,671,101,-0.98,-0.42,-0.98
-721,662,95,-0.42,-0.35,-0.91
-724,645,95,0.07,-0.35,-0.56
-729,650,96,1.54,-0.35,-0.56
-723,675,96,3.99,-0.21,-0.49
-711,688,89,4.27,-0.07,0.07
-707,687,83,2.1,-0.42,0.49
-717,677,80,-0.28,-0.77,0.49
-730,669,78,-1.47,-0.98,0.49
-738,661,75,-2.38,-1.47,0.63
-745,654,76,-3.78,-2.1,0.84
-748,663,85,-4.9,-2.24,0.63
-743,663,92,-5.81,-2.17,0.42
-736,655,96,-7.28,-2.31,0.42
-737,646,99,-7.35,-2.52,0.07
-740,639,98,-5.53,-2.52,-0.28
-741,628,94,-3.78,-2.59,-0.28
-741,641,95,-2.17,-2.8,-0.56
-742,661,101,-0.56,-2.66,-0.84
-738,674,102,-0.77,-2.38,-0.84
-727,675,101,-2.24,-2.59,-0.91
-719,673,99,-3.5,-2.66,-0.98
-718,661,100,-4.2,-2.52,-0.84
-724,650,102,-4.34,-2.52,-0.63
-726,643,104,-3.57,-2.66,-0.63
-726,644,107,-1.96,-2.45,-0.42
-724,655,111,-0.49,-2.03,-0.14
-722,667,113,0.0,-1.75,0.07
-717,671,115,-0.35,-1.47,0.21
-717,659,113,-0.98,-1.12,0.49
-725,649,113,-1.05,-0.84,0.56
-730,649,111,0.07,-0.56,0.42
-733,652,111,1.26,-0.28,0.56
-734,663,112,1.4,0.07,0.63
-735,662,110,0.98,0.42,0.49
-735,654,106,0.21,0.56,0.42
-737,644,104,0.21,0.42,0.42
-737,652,101,0.63,0.35,0.56
-737,661,104,0.77,0.42,0.56
-732,672,104,0.63,0.49,0.63
-726,667,100,-0.28,0.49,0.7
-726,646,96,-1.54,0.14,0.63
-738,632,91,-0.63,-0.21,0.49
-741,634,90,1.26,-0.49,0.49
-736,656,91,2.94,-0.7,0.56
-733,665,95,2.8,-0.77,0.84
-729,674,98,1.33,-0.84,0.91
-727,680,100,0.07,-1.05,0.63
-722,676,99,-0.91,-1.19,0.49
-724,665,96,-1.96,-1.33,0.35
-731,660,101,-1.75,-1.54,0.0
-733,663,105,-0.28,-1.47,-0.42
-728,660,105,0.84,-1.26,-0.56
-724,649,103,1.68,-1.26,-0.56
-723,648,104,2.8,-1.26,-0.56
-725,663,107,4.41,-1.05,-0.49
-723,670,106,4.62,-0.84,-0.14
-725,671,104,3.22,-0.84,0.0
-728,668,104,1.89,-0.77,0.0
-729,678,104,1.4,-0.63,-0.14
-725,684,103,0.21,-0.28,-0.14
-719,684,100,-1.82,-0.42,-0.07
-719,675,98,-3.85,-0.49,0.0
-727,658,95,-5.25,-0.49,0.14
-734,638,92,-5.46,-0.63,0.14
-739,638,94,-4.76,-1.05,0.21
-741,648,97,-3.57,-1.12,0.42
-737,668,103,-2.87,-0.91,0.63
-731,681,105,-3.57,-0.91,0.63
-724,678,106,-5.25,-0.98,0.42
-720,668,104,-6.37,-0.98,0.07
-726,650,102,-6.23,-1.05,-0.21
-730,642,104,-5.32,-1.19,-0.21
-733,651,105,-3.71,-1.26,-0.28
-729,669,107,-2.59,-1.12,0.0
-721,685,107,-2.94,-0.98,0.21
-718,675,104,-4.69,-1.05,0.49
-723,653,102,-6.51,-1.19,0.63
-735,633,103,-6.79,-1.33,0.49
-744,628,106,-5.46,-1.54,0.35
-744,637,110,-3.36,-1.54,0.21
-738,648,114,-2.31,-1.4,0.35
-729,656,115,-2.1,-1.19,0.28
-722,659,116,-2.03,-1.12,0.28
-723,660,116,-1.82,-1.05,0.14
-725,657,117,-1.19,-0.84,-0.07
-731,654,118,-0.49,-0.63,-0.14
-734,653,115,0.49,-0.56,-0.28
-731,656,114,1.19,-0.49,-0.49
-729,656,114,1.33,-0.28,-0.56
-730,665,114,1.47,-0.21,-0.63
-728,675,113,1.33,-0.07,-0.77
-722,673,112,0.28,0.07,-0.77
-718,661,114,-0.7,0.14,-0.84
-719,655,116,-0.42,0.35,-0.91
-720,654,117,0.98,0.49,-0.91
-719,661,121,2.1,0.7,-0.63
-717,668,117,2.73,1.05,-0.35
-715,669,114,2.73,1.19,-0.07
-721,662,107,2.31,1.19,0.07
-730,657,102,1.75,0.91,0.07
-737,659,102,1.61,0.84,0.14
-738,658,104,1.19,0.98,0.28
-738,655,106,0.49,0.91,0.42
-735,656,107,0.0,0.84,0.35
-736,652,107,0.0,0.7,0.28
-737,652,107,-0.21,0.77,0.28
-737,657,104,0.28,0.63,0.0
-734,658,103,0.35,0.63,0.0
-728,663,103,0.07,0.7,0.0
-726,660,104,-0.42,0.7,-0.07
-724,659,103,-0.98,0.49,0.0
-726,655,102,-0.84,0.42,0.14
-732,652,101,-0.49,0.35,0.42
-729,654,102,-0.21,0.21,0.56
-729,653,101,0.07,0.07,0.7
-727,653,100,0.07,-0.07,0.98
-728,653,101,-0.28,-0.14,1.19
-730,657,103,-0.56,-0.14,1.33
-731,655,104,-0.84,-0.07,1.47
-730,654,107,-1.19,-0.07,1.61
-729,663,108,-1.12,0.0,1.61
-726,664,109,-0.98,0.07,1.61
-727,657,105,-1.26,0.14,1.61
-730,648,102,-0.84,0.0,1.47
-733,651,102,0.14,-0.07,1.26
-731,663,103,1.19,0.07,1.19
-728,673,105,1.19,0.14,1.26
-724,674,106,0.21,0.14,1.19
-724,671,104,-0.63,0.07,0.98
-724,665,102,-1.05,0.0,0.91
-727,660,102,-1.4,-0.14,0.91
-727,656,105,-1.33,-0.14,0.98
-729,665,108,-0.84,-0.14,0.98
-726,672,107,-0.7,0.0,1.05
-721,672,105,-1.33,0.0,1.19
-719,662,105,-2.1,0.0,1.05
-721,658,104,-2.03,-0.07,0.98
-722,665,106,-0.91,0.0,0.84
-724,665,107,-0.28,0.21,0.91
-725,664,106,0.07,0.14,0.84
-720,660,103,0.56,0.07,0.77
-719,664,101,1.26,0.07,0.63
-724,666,102,1.61,0.07,0.7
-727,667,104,1.47,0.07,0.7
-729,666,102,1.12,0.07,0.77
-728,663,105,0.56,0.21,0.7
-732,665,105,0.42,0.21,0.56
-728,674,106,0.56,0.0,0.49
-723,678,103,0.14,0.07,0.49
-721,668,101,-1.19,0.21,0.56
-724,654,101,-2.17,0.07,0.49
-726,657,100,-1.26,-0.14,0.21
-726,662,98,-0.21,-0.21,0.35
-725,664,99,-0.49,-0.28,0.7
-725,670,102,-0.91,-0.35,0.63
-726,677,103,-1.12,-0.35,0.49
-723,673,102,-1.75,-0.35,0.42
-721,667,102,-2.45,-0.63,0.28
-721,658,100,-2.31,-0.7,0.28
-724,660,99,-1.47,-0.77,0.21
-728,665,101,-0.98,-0.84,0.14
-727,670,103,-1.12,-0.98,0.14
-725,676,105,-1.47,-1.05,0.14
-720,678,104,-2.24,-1.05,0.14
-717,674,104,-2.87,-1.12,0.07
-718,668,102,-3.15,-1.26,0.07
-721,660,102,-2.87,-1.33,0.07
-727,648,101,-2.45,-1.4,0.14
-729,652,105,-1.33,-1.47,0.14
-729,664,108,-0.14,-1.33,0.14
-722,675,106,0.21,-1.33,0.28
-719,673,108,-0.84,-1.26,0.35
-722,665,107,-1.89,-1.33,0.28
-726,658,106,-1.75,-1.4,0.07
-726,657,105,-1.12,-1.4,0.0
-727,654,108,-0.84,-1.4,0.14
-727,659,108,-0.28,-1.47,0.07
-728,670,109,0.28,-1.33,0.0
-729,673,110,-0.21,-1.19,-0.07
-727,666,107,-1.05,-1.19,-0.35
-721,666,108,-0.91,-1.19,-0.63
-718,668,110,-0.49,-1.05,-0.77
-722,664,109,-0.21,-1.12,-0.77
-724,661,108,-0.07,-1.19,-0.98
-724,665,108,0.21,-1.19,-1.05
-722,671,109,0.63,-0.98,-1.05
-718,676,109,0.49,-0.98,-1.05
-715,672,110,-0.14,-0.98,-0.98
-715,671,110,-0.63,-0.98,-0.98
-717,674,112,-0.21,-0.98,-0.91
-715,675,110,0.28,-0.98,-0.84
-716,669,110,0.21,-0.98,-0.77
-724,650,105,0.07,-0.98,-0.7
-735,635,104,0.49,-1.12,-0.63
-738,643,108,1.68,-0.98,-0.7
-732,664,112,2.73,-0.77,-0.56
-721,684,115,2.03,-0.49,-0.28
-715,688,112,0.0,-0.35,-0.21
-716,672,109,-2.1,-0.49,-0.35
-726,655,104,-2.73,-0.63,-0.7
-735,641,103,-1.82,-0.7,-0.84
-739,642,104,0.0,-0.77,-1.05
-734,654,106,1.68,-0.7,-0.91
-726,666,106,2.8,-0.7,-0.98
-723,677,109,3.08,-0.7,-1.12
-720,684,110,2.66,-0.7,-1.26
-721,674,105,1.82,-0.84,-1.33
-724,665,104,1.33,-0.98,-1.54
-725,660,102,1.54,-1.05,-1.68
-725,656,101,1.75,-1.19,-1.68
-729,649,100,1.47,-1.33,-1.54
-732,650,100,1.54,-1.68,-1.54
-733,661,106,1.96,-1.54,-1.54
-725,675,111,2.17,-1.4,-1.61
-719,681,110,1.61,-1.33,-1.47
-708,678,108,1.12,-1.33,-1.54
-710,670,107,0.98,-1.4,-1.54
-719,663,107,1.26,-1.4,-1.61
-727,658,104,1.89,-1.4,-1.61
-730,655,103,2.24,-1.47,-1.4
-732,655,103,2.17,-1.54,-1.19
-733,661,106,1.82,-1.33,-0.98
-730,665,106,0.91,-1.26,-0.77
-728,659,106,-0.7,-1.19,-0.56
-725,661,109,-2.03,-1.12,-0.35
-727,669,111,-2.17,-0.84,-0.28
-729,662,110,-2.8,-0.77,0.0
-733,653,110,-4.2,-0.91,0.07
-735,647,109,-3.99,-0.84,-0.28
-735,641,107,-2.66,-0.77,-0.14
-731,654,108,-1.33,-0.63,-0.07
-724,667,110,-0.49,-0.49,0.07
-722,669,110,-0.42,-0.28,0.28
-722,666,109,-0.77,-0.28,0.21
-727,655,107,-1.05,-0.42,0.14
-728,650,106,-0.42,-0.42,0.07
-729,653,108,0.49,-0.35,0.14
-728,658,106,1.05,-0.28,0.35
-725,668,109,0.77,-0.21,0.56
-723,667,107,0.14,-0.14,0.7
-726,657,106,-0.7,-0.21,0.84
-727,662,108,-0.56,-0.14,0.7
-724,674,111,0.28,0.0,0.77
-720,677,111,0.07,0.28,1.05
-724,662,108,-0.98,0.35,1.12
-732,635,104,-1.19,0.28,0.91
-737,626,104,0.07,0.21,0.77
-739,638,107,2.1,0.28,0.77
-737,660,111,3.29,0.56,0.98
-732,678,113,2.45,0.91,1.19
-724,681,109,0.49,1.05,1.05
-718,671,105,-1.61,1.05,0.91
-722,658,101,-3.22,0.91,0.84
-728,665,104,-3.15,0.77,0.7
-729,677,105,-2.94,0.7,0.7
-720,677,102,-3.92,0.63,0.91
-719,668,100,-5.25,0.35,0.98
-723,657,100,-5.53,0.21,0.98
-726,654,104,-4.48,0.21,0.84
-730,654,106,-3.01,0.07,0.84
-732,655,108,-1.82,0.0,0.98
-727,662,110,-0.91,0.14,0.91
-723,667,107,-0.21,0.21,0.63
-723,664,103,0.0,0.0,0.49
-726,666,102,-0.21,-0.21,0.28
-725,668,105,-0.21,-0.14,0.21
-720,675,107,0.07,0.0,0.21
-718,678,110,-0.35,0.0,0.35
-717,671,108,-0.91,-0.07,0.42
-719,662,110,-0.84,-0.07,0.42
-723,661,107,0.07,-0.07,0.21
-726,654,106,0.91,-0.07,0.35
-728,660,106,1.75,-0.07,0.42
-729,660,106,2.24,0.0,0.42
-728,661,109,1.89,0.14,0.49
-729,658,108,1.12,0.35,0.56
-726,662,108,0.91,0.28,0.56
-722,665,107,0.49,0.35,0.7
-722,670,107,-0.49,0.49,0.84
-725,676,107,-1.19,0.49,0.7
-725,672,103,-1.75,0.49,0.63
-727,665,102,-2.59,0.49,0.63
-726,665,102,-2.59,0.35,0.42
-723,674,104,-1.82,0.35,0.28
-721,677,103,-1.68,0.28,0.35
-722,662,100,-2.38,0.07,0.35
-723,642,98,-2.66,-0.14,0.28
-727,641,101,-1.19,-0.28,0.07
-726,662,105,0.91,-0.28,0.07
-727,672,107,1.19,-0.21,0.28
-725,667,103,-0.28,-0.35,0.42
-722,666,102,-0.84,-0.49,0.14
-722,669,104,-0.84,-0.42,0.07
-723,670,103,-0.98,-0.49,0.0
-723,667,104,-1.26,-0.7,0.0
-721,671,107,-0.84,-0.7,0.0
-721,667,104,-0.49,-0.56,0.07
-723,655,102,-0.63,-0.77,0.07
-726,657,103,-0.28,-0.84,0.0
-728,665,105,1.05,-0.84,0.0
-729,668,106,1.4,-0.84,0.14
-729,675,108,0.98,-0.84,0.07
-725,676,111,0.42,-0.63,-0.07
-716,671,112,-0.42,-0.42,-0.21
-715,660,109,-0.77,-0.42,-0.21
-719,653,106,-0.28,-0.49,-0.14
-726,653,105,0.56,-0.35,0.0
-729,656,103,1.12,-0.21,0.21
-728,667,104,0.91,-0.21,0.28
-728,677,106,0.49,0.0,0.28
-723,678,106,-0.63,0.14,0.42
-722,674,103,-1.61,0.0,0.35
-725,658,103,-2.52,0.0,0.42
-728,649,102,-2.24,-0.14,0.21
-727,656,104,-1.12,-0.21,0.21
-723,669,106,-0.63,-0.07,0.35
-719,673,105,-0.98,-0.07,0.49
-719,670,103,-1.75,-0.21,0.49
-722,658,102,-2.31,-0.35,0.49
-726,654,102,-1.96,-0.42,0.42
-726,666,105,-0.63,-0.49,0.35
-723,673,104,-0.07,-0.56,0.7
-720,677,104,-0.63,-0.84,0.84
-718,679,107,-1.4,-0.84,0.84
-720,674,106,-2.03,-0.84,0.91
-722,660,105,-2.59,-0.91,1.05
-727,651,104,-2.52,-1.05,0.98
-729,651,108,-1.61,-0.91,0.91
-725,657,110,-0.7,-0.77,0.84
-723,660,110,-0.49,-0.77,0.91
-721,658,108,-0.42,-0.7,0.98
-721,660,109,-0.21,-0.63,0.98
-725,659,108,0.0,-0.49,0.98
-726,663,107,0.28,-0.49,0.91
-725,673,110,0.42,-0.49,0.77
-723,682,109,0.35,-0.35,0.56
-721,679,109,-0.14,-0.28,0.35
-721,661,108,-0.84,-0.21,0.21
-722,652,109,-0.35,-0.21,0.07
-721,656,110,1.4,-0.07,-0.14
-719,669,110,2.8,0.07,-0.07
-714,680,105,2.8,0.07,0.07
-711,678,104,1.82,0.14,0.14
-713,676,105,0.91,0.14,0.07
-718,666,101,0.7,0.07,0.07
-722,655,100,0.91,-0.21,0.14
-724,659,103,1.68,-0.21,0.21
-722,665,106,2.45,0.0,0.35
-717,674,108,2.31,0.14,0.49
-718,675,107,1.82,0.21,0.63
-719,664,107,1.19,0.21,0.7
-722,668,105,1.26,0.28,0.49
-724,679,107,1.75,0.49,0.28
-719,690,109,1.12,0.63,0.21
-713,690,106,-0.14,0.77,0.14
-709,677,101,-1.05,0.77,0.07
-715,658,97,-1.4,0.56,0.14
-723,658,96,-0.49,0.42,0.14
-728,667,97,0.91,0.35,0.21
-730,667,94,1.05,0.35,0.49
-727,665,95,0.07,0.07,0.56
-724,676,100,0.0,0.07,0.21
-721,680,99,0.07,0.14,0.14
-718,671,98,-0.77,-0.07,0.28
-717,666,99,-1.26,-0.35,0.28
-720,668,101,-0.35,-0.35,0.14
-719,675,99,0.7,-0.35,0.0
-719,665,97,0.28,-0.49,0.21
-724,651,97,-0.14,-0.7,0.21
-726,659,101,0.91,-0.63,0.21
-724,677,104,1.82,-0.42,0.35
-718,687,102,1.12,-0.42,0.7
-714,688,100,-0.77,-0.49,0.7
-718,682,98,-2.17,-0.63,0.35
-725,665,97,-3.01,-0.77,0.07
-723,671,98,-2.73,-1.05,-0.21
-717,675,101,-1.96,-0.98,-0.28
-713,678,100,-1.61,-0.98,0.0
-713,667,98,-1.89,-1.19,0.14
-716,654,100,-2.31,-1.26,0.21
-719,668,106,-0.91,-1.12,0.07
-717,678,106,0.35,-0.98,0.28
-714,677,104,-0.28,-1.05,0.56
-716,667,104,-1.75,-1.05,0.63
-725,662,105,-2.03,-0.98,0.42
-728,665,104,-1.33,-0.91,0.42
-726,671,104,-1.33,-0.91,0.63
-723,673,104,-2.1,-0.84,0.7
-719,676,105,-2.38,-0.7,0.42
-716,672,106,-2.8,-0.7,0.28
-717,668,107,-3.22,-0.63,0.21
-716,671,106,-1.82,-0.56,-0.07
-713,673,107,-0.7,-0.42,0.0
-716,672,105,-0.56,-0.42,0.07
-719,668,105,-0.63,-0.42,-0.07
-722,662,103,-0.42,-0.35,-0.14
-726,652,97,-0.42,-0.49,0.0
-729,641,97,-0.56,-0.7,0.14
-731,659,103,-0.21,-0.56,0.21
-726,680,107,0.14,-0.42,0.28
-713,689,108,-1.54,-0.49,0.63
-705,682,108,-3.85,-0.42,0.77
-709,666,109,-5.11,-0.42,0.84
-716,664,110,-4.62,-0.42,0.77
-720,667,109,-3.5,-0.49,0.77
-720,679,106,-2.73,-0.63,0.84
-722,688,103,-2.1,-0.63,0.7
-719,680,98,-3.01,-0.77,0.35
-723,657,98,-3.92,-1.05,0.07
-724,647,101,-3.01,-1.33,-0.28
-721,663,107,-0.21,-1.4,-0.35
-713,682,110,1.54,-1.26,-0.07
-707,688,108,0.84,-1.33,0.21
-707,677,106,-0.49,-1.54,0.14
-718,663,106,-1.47,-1.61,0.07
-725,663,107,-1.12,-1.75,0.0
-726,668,108,-0.7,-1.75,0.14
-723,667,111,-1.26,-1.54,0.35
-721,663,113,-2.17,-1.33,0.42
-719,675,117,-2.1,-1.33,0.21
-715,683,117,-1.68,-1.12,0.14
-709,678,116,-2.24,-1.05,0.35
-706,674,117,-2.45,-0.98,0.28
-711,662,116,-1.96,-0.77,0.28
-717,647,111,-1.4,-0.7,0.56
-721,644,113,-0.49,-0.7,0.77
-727,657,116,0.77,-0.35,1.12
-728,675,117,1.12,0.0,1.4
-719,689,116,-0.14,0.07,1.33
-714,690,114,-2.1,0.14,1.19
-712,691,113,-3.43,0.21,0.77
-715,685,106,-3.5,-0.14,0.14
-717,663,101,-3.57,-0.49,-0.14
-719,648,99,-2.8,-0.84,-0.28
-727,648,102,-0.49,-0.98,-0.21
-728,652,109,1.61,-0.91,0.0
-721,671,116,2.24,-0.77,0.28
-716,681,118,1.75,-0.63,0.35
-709,689,119,0.7,-0.56,0.28
-705,696,117,-0.7,-0.56,0.14
-705,700,117,-2.24,-0.56,-0.14
-709,684,112,-3.36,-0.49,-0.28
-712,662,107,-3.92,-0.84,-0.42
-715,651,107,-2.66,-0.98,-0.49
-715,661,107,-0.28,-1.12,-0.28
-717,678,111,1.54,-1.12,0.0
-714,693,110,1.82,-1.26,0.07
-715,676,106,0.49,-1.47,0.14
-719,665,107,-0.42,-1.61,-0.21
-722,665,110,0.28,-1.82,-0.63
-718,678,112,1.05,-1.89,-0.63
-712,682,116,0.42,-1.89,-0.56
-710,678,114,-0.98,-1.75,-0.49
-717,664,112,-1.89,-1.75,-0.49
-724,660,109,-1.75,-1.96,-0.63
-727,659,113,-1.19,-2.03,-0.7
-725,668,116,-0.63,-1.82,-0.7
-721,665,113,-0.21,-1.82,-0.77
-717,665,117,0.07,-2.03,-0.98
-717,671,118,0.28,-2.45,-1.19
-721,672,120,-0.21,-3.29,-1.4
-717,670,117,-1.26,-4.48,-1.68
-727,662,124,-2.94,-6.02,-2.03
-739,653,130,-6.23,-10.43,-2.8
-716,662,121,-6.3,-13.51,-3.92
-700,678,119,-3.71,-12.18,-3.43
-704,688,122,-2.87,-9.66,-2.31
-708,683,122,-3.22,-7.91,-2.17
-709,689,121,-2.87,-6.44,-2.03
-710,686,120,-2.8,-5.46,-1.89
-706,682,122,-3.36,-5.18,-1.82
-715,668,122,-3.85,-5.46,-1.75
-718,648,123,-3.71,-5.88,-1.54
-729,643,136,-4.2,-6.3,-1.33
-727,660,137,-3.71,-7.56,-1.61
-714,691,140,-2.87,-7.14,-1.4
-706,699,142,-4.2,-6.23,-1.05
-701,687,150,-6.58,-5.74,-1.19
-699,661,146,-8.26,-5.81,-1.4
-707,643,140,-7.35,-5.46,-1.4
-720,632,147,-5.53,-4.9,-1.12
-730,632,142,-3.36,-4.83,-0.84
-729,657,139,-1.19,-4.27,-0.7
-725,670,137,-0.84,-3.5,-0.35
-719,672,138,-1.75,-3.08,-0.14
-719,672,146,-3.43,-3.01,-0.14
-717,668,145,-4.2,-3.01,-0.28
-712,668,153,-4.06,-2.66,-0.21
-706,663,150,-3.57,-2.38,0.07
-704,660,149,-2.24,-1.82,0.28
-708,660,149,-0.56,-1.47,0.28
-715,660,150,1.33,-0.98,0.28
-717,651,154,2.38,-0.49,0.56
-712,640,156,3.22,0.14,1.05
-709,631,155,4.55,0.56,1.68
-712,626,156,5.25,0.63,2.24
-721,635,157,5.18,0.84,2.8
-729,634,149,4.69,1.19,3.15
-732,628,146,3.99,1.54,3.5
-733,648,147,3.57,1.75,3.5
-734,669,141,3.29,1.89,3.71
-733,679,139,2.17,2.1,3.64
-727,686,139,0.77,2.24,3.36
-721,688,139,-0.63,2.31,3.08
-718,672,136,-1.61,2.38,2.52
-718,658,131,-1.19,2.1,1.89
-716,657,133,-0.07,1.75,1.61
-714,679,132,1.82,1.47,1.4
-708,701,132,3.08,1.33,1.4
-702,714,133,2.45,1.12,1.33
-698,704,128,0.07,1.05,1.33
-700,685,122,-1.82,0.84,1.05
-706,690,125,-1.33,0.56,0.7
-704,702,133,-0.7,0.28,0.77
-697,700,135,-1.26,0.21,1.12
-693,684,134,-2.52,0.28,1.33
-701,668,139,-3.22,0.42,1.61
-710,648,144,-3.29,0.63,2.03
-716,636,145,-2.24,0.91,2.45
-716,643,147,-0.28,1.33,2.94
-714,655,154,0.91,1.68,3.36
-709,669,154,0.35,2.17,3.64
-709,679,146,-0.77,2.66,3.71
-713,679,142,-2.1,2.87,3.43
-719,676,142,-3.5,3.08,3.08
-722,666,135,-3.85,3.15,2.73
-721,657,130,-3.22,3.36,2.45
-726,644,125,-1.82,3.36,2.31
-725,653,125,0.84,3.36,2.03
-722,669,131,3.15,3.43,1.96
-718,677,130,4.48,3.64,1.75
-712,684,134,5.04,3.57,1.47
-705,688,136,4.48,3.57,1.05
-699,691,132,3.78,3.57,0.7
-699,683,128,3.36,3.5,0.42
-701,683,124,3.71,3.43,0.21
-703,688,124,5.11,3.36,0.0
-704,687,124,6.02,3.22,0.14
-706,683,120,5.88,3.22,0.14
-709,680,120,5.95,3.08,0.14
-709,681,118,5.81,2.8,0.07
-702,696,116,5.95,2.59,-0.07
-699,699,119,5.18,2.52,0.07
-701,696,125,3.57,2.45,0.07
-701,689,122,2.38,2.24,-0.14
-706,672,118,1.68,2.1,-0.21
-716,657,111,1.68,2.1,-0.28
-722,663,112,3.5,2.17,-0.42
-719,675,116,5.11,2.17,-0.28
-713,684,115,5.46,2.31,-0.14
-709,692,117,4.76,2.38,-0.14
-705,690,112,3.22,2.38,-0.28
-704,677,110,1.75,2.45,-0.28
-709,666,109,1.05,2.73,-0.28
-707,672,111,2.31,2.8,-0.14
-703,678,108,3.43,2.8,0.28
-703,685,101,3.85,2.59,0.77
-707,696,95,3.57,2.31,0.91
-715,700,89,2.45,1.89,0.77
-720,695,82,1.33,1.19,0.35
-723,690,86,0.35,0.77,-0.14
-723,691,96,0.14,0.28,-0.77
-711,686,108,-0.07,-0.56,-1.05
-702,677,101,-0.91,-1.26,-0.98
-706,661,99,-1.19,-1.61,-0.91
-719,652,101,-0.63,-1.75,-0.91
-726,667,106,1.47,-1.82,-1.12
-719,688,111,2.66,-1.61,-1.12
-710,704,111,1.96,-1.26,-1.05
-706,693,109,-0.07,-0.98,-1.26
-709,679,105,-1.47,-0.7,-1.75
-714,665,101,-1.19,-0.49,-2.03
-716,670,101,1.12,-0.14,-2.03
-711,678,103,3.36,0.56,-1.61
-706,688,103,4.97,1.4,-1.26
-711,685,102,4.97,2.1,-1.05
-721,686,101,3.85,2.8,-1.05
-732,693,103,2.24,3.71,-1.33
-739,691,110,-0.42,4.9,-1.4
-730,688,116,-3.43,6.09,-1.47
-710,685,120,-6.3,7.0,-1.47
-698,680,122,-8.19,7.28,-1.75
-694,676,122,-8.75,7.07,-2.17
-693,677,119,-7.91,6.86,-2.59
-691,670,116,-5.88,6.65,-2.59
-695,655,109,-2.66,6.51,-2.31
-705,641,101,1.26,6.16,-1.75
-714,639,98,5.04,5.88,-1.26
-720,654,94,8.19,5.6,-1.12
-714,677,96,9.59,5.46,-0.77
-710,693,93,8.26,5.25,-0.42
-707,697,86,5.32,4.76,-0.14
-703,690,84,1.75,4.06,0.14
-707,688,86,-1.33,3.5,0.42
-716,688,88,-2.87,2.94,0.42
-721,683,87,-3.5,2.31,0.21
-724,675,84,-3.64,1.68,-0.14
-725,664,83,-2.94,1.19,-0.63
-728,655,80,-1.12,0.63,-1.19
-731,641,80,0.49,-0.35,-1.54
-737,630,84,1.26,-2.17,-1.75
-744,634,96,1.47,-4.69,-2.31
-738,652,101,1.96,-7.35,-2.94
-716,671,95,2.94,-8.26,-3.01
-707,686,99,2.94,-7.35,-2.38
-726,677,114,-0.21,-8.96,-2.17
-717,664,104,-2.87,-11.97,-3.01
-704,670,99,-2.73,-11.2,-3.01
-706,672,95,-1.96,-8.82,-2.31
-710,670,89,-0.63,-6.37,-1.96
-718,670,86,0.28,-4.69,-1.4
-722,676,84,1.26,-3.29,-1.26
-723,690,87,2.03,-2.17,-1.33
-721,701,92,1.89,-1.89,-1.47
-720,700,104,-0.14,-2.52,-1.68
-711,692,112,-3.01,-3.99,-2.17
-703,686,106,-4.83,-5.18,-2.66
-704,675,98,-4.97,-5.04,-2.8
-710,667,106,-4.48,-4.83,-2.73
-713,677,104,-3.5,-4.9,-2.66
-711,692,97,-3.01,-4.69,-2.17
-709,697,98,-3.71,-4.13,-1.75
-714,693,95,-4.69,-3.5,-1.68
-717,684,90,-5.46,-3.36,-1.75
-721,666,88,-6.09,-3.22,-1.61
-729,650,92,-6.3,-3.01,-1.4
-738,651,97,-4.83,-3.01,-1.33
-741,660,100,-3.29,-3.29,-1.19
-733,666,103,-2.66,-3.29,-1.12
-727,659,104,-3.01,-3.22,-0.98
-730,652,102,-2.59,-3.15,-1.12
-734,637,104,-1.61,-3.22,-1.19
-738,639,109,-0.35,-2.94,-1.12
-738,657,121,1.54,-2.38,-1.12
-729,663,133,1.4,-2.31,-0.98
-713,677,136,-0.35,-2.31,-1.12
-708,673,129,-1.82,-2.45,-1.33
-711,652,121,-2.45,-2.45,-1.47
-718,648,119,-1.33,-2.24,-1.54
-725,644,117,0.56,-1.82,-1.33
-727,646,117,2.24,-1.54,-0.91
-724,666,119,3.71,-1.19,-0.84
-719,676,118,3.92,-0.84,-0.7
-714,686,113,3.29,-0.63,-0.7
-715,678,110,2.1,-0.49,-0.84
-719,669,110,1.26,-0.07,-0.91
-722,668,112,1.82,0.49,-0.98
-720,667,114,3.01,1.33,-0.91
-715,670,116,3.99,2.17,-0.77
-712,669,117,4.69,2.8,-0.7
-714,664,120,4.97,3.22,-0.7
-712,652,119,5.04,3.15,-0.56
-717,642,115,4.97,3.36,0.0
-727,649,117,6.09,3.43,0.42
-736,665,116,7.14,3.64,0.63
-732,679,111,6.44,3.78,0.7
-724,682,107,3.64,3.92,0.84
-722,670,105,0.77,4.06,0.7
-728,654,104,-0.21,3.99,0.56
-731,654,101,0.42,3.78,0.7
-731,662,99,1.12,3.57,0.98
-728,658,97,1.33,3.29,1.26
-729,658,94,1.61,2.94,1.19
-734,652,92,1.89,2.8,1.05
-737,650,92,2.38,2.38,0.91
-733,657,93,3.15,2.1,0.77
-731,665,95,3.85,1.96,0.56
-724,678,100,3.78,1.75,0.35
-721,681,103,3.22,1.68,0.0
-720,670,98,2.8,1.54,-0.42
-718,659,98,3.36,1.4,-0.91
-717,657,95,4.9,1.33,-1.33
-714,665,95,6.93,1.33,-1.47
-711,682,93,8.19,1.4,-1.47
-708,691,88,8.26,1.4,-1.33
-703,692,85,7.35,1.26,-1.26
-707,690,80,6.3,1.05,-1.26
-712,682,77,5.04,0.77,-1.05
-718,673,77,3.85,0.49,-0.77
-722,675,79,3.71,0.14,-0.77
-728,676,83,3.01,0.14,-0.63
-728,674,87,1.75,0.14,-0.56
-725,670,88,0.91,0.14,-0.63
-720,656,87,0.77,0.07,-0.56
-724,647,88,1.19,0.21,-0.42
-731,651,85,2.8,0.28,-0.42
-729,661,86,3.92,0.42,-0.35
-726,680,86,3.85,0.7,-0.28
-726,679,85,2.59,0.91,-0.21
-730,664,81,0.98,0.91,-0.14
-732,658,79,0.35,0.84,-0.28
-733,660,80,0.42,0.77,-0.35
-732,660,78,0.42,0.84,-0.07
-728,667,79,0.0,0.77,0.0
-723,676,79,-0.07,0.77,-0.07
-718,672,77,-0.28,0.7,0.0
-719,660,75,-0.84,0.49,0.35
-723,667,76,0.0,0.07,0.42
-727,684,77,0.91,-0.21,0.84
-728,712,73,-0.28,-0.49,1.4
-724,716,69,-4.06,-0.84,1.54
-725,702,68,-9.24,-1.12,1.26
-727,671,68,-13.02,-1.54,0.63
-726,657,72,-14.07,-2.24,0.07
-725,655,79,-12.6,-2.45,-0.28
-725,648,83,-10.64,-2.45,0.0
-723,645,88,-8.33,-2.38,0.21
-723,648,91,-5.74,-2.17,0.21
-720,653,93,-3.71,-1.96,0.28
-721,655,93,-2.66,-1.82,0.28
-724,650,91,-2.1,-1.89,0.28
-726,656,93,-1.4,-1.82,0.21
-727,666,98,-1.05,-1.47,0.35
-725,677,100,-1.4,-1.12,0.56
-722,672,97,-2.45,-0.91,0.84
-717,664,92,-3.15,-0.98,0.77
-722,654,89,-3.29,-0.98,0.56
-729,653,91,-2.17,-1.05,0.35
-731,667,92,-0.49,-1.12,0.14
-728,667,90,0.14,-1.05,0.28
-725,666,89,0.42,-1.05,0.28
-724,670,89,1.4,-1.26,-0.28
-723,673,87,2.17,-1.61,-0.63
-724,679,87,2.73,-1.82,-1.05
-719,685,90,3.64,-1.89,-1.54
-717,668,86,4.06,-1.96,-1.75
-716,651,82,4.83,-2.31,-1.89
-719,649,83,6.37,-2.38,-1.96
-723,657,86,7.7,-2.31,-1.68
-725,677,96,7.63,-2.24,-1.33
-718,694,103,6.09,-1.75,-1.26
-710,693,103,3.99,-1.26,-1.12
-706,682,102,2.59,-0.98,-1.05
-709,666,101,1.82,-0.77,-0.98
-719,652,98,2.31,-0.28,-0.84
-731,641,94,3.64,0.14,-0.84
-736,641,89,4.76,0.35,-0.63
-738,647,81,5.53,0.49,-0.49
-738,659,76,5.25,0.56,-0.35
-741,667,73,3.43,0.63,-0.28
-742,666,70,1.19,0.35,-0.35
-740,664,70,-0.56,-0.14,-0.42
-734,667,77,-2.17,-0.42,-0.49
-729,680,84,-2.94,-0.63,-0.56
-720,683,88,-3.78,-0.77,-0.49
-715,677,88,-4.62,-0.84,-0.28
-713,662,87,-4.62,-0.91,-0.21
-721,645,84,-3.92,-0.91,-0.14
-729,634,84,-2.24,-0.98,0.0
-734,638,85,-0.35,-0.91,0.14
-735,649,83,1.12,-0.7,0.42
-730,659,83,1.47,-0.63,0.7
-728,665,87,0.7,-0.63,0.77
-727,671,91,-0.07,-0.49,0.63
-724,670,94,-0.56,-0.28,0.56
-719,664,96,-0.56,0.0,0.63
-718,654,99,-0.07,0.42,0.84
-723,649,96,1.4,0.77,0.84
-725,657,96,3.36,0.98,0.98
-720,678,98,4.06,1.61,1.12
-714,689,94,4.27,2.1,1.47
-706,683,90,2.94,2.45,2.17
-711,675,85,0.98,2.59,2.52
-722,670,84,0.07,2.45,2.59
-729,679,82,0.0,2.03,2.59
-733,693,79,-0.42,1.61,2.66
-732,702,71,-2.03,1.4,2.73
-728,689,76,-4.97,1.4,2.66
-730,682,79,-5.6,0.98,1.96
-727,671,77,-4.62,0.14,1.4
-725,662,78,-3.64,-0.35,1.19
-730,646,78,-1.75,-0.63,1.26
-734,644,84,0.28,-0.49,1.19
-732,669,94,2.59,0.07,0.77
-721,699,99,4.06,0.7,0.42
-707,707,101,2.94,1.05,0.35
-705,698,92,1.89,1.19,-0.07
-711,676,81,1.82,1.33,-0.49
-722,656,72,2.52,1.47,-0.98
-730,644,68,4.2,1.33,-1.33
-726,658,69,6.3,1.33,-1.54
-723,679,73,7.35,1.33,-1.4
-724,688,68,6.86,1.05,-1.12
-724,687,61,5.39,0.63,-1.33
-718,670,62,3.64,0.42,-1.82
-719,661,61,3.85,0.14,-2.24
-717,663,63,4.97,-0.07,-2.38
-712,674,66,5.53,-0.14,-2.31
-707,688,71,5.67,-0.14,-2.38
-706,689,67,4.55,-0.14,-2.17
-715,661,58,2.8,-0.42,-1.89
-723,651,57,2.45,-0.84,-1.89
-730,671,63,2.87,-0.91,-2.24
-727,685,66,2.24,-0.84,-2.1
-720,680,65,0.84,-0.98,-1.96
-716,675,64,-0.07,-1.33,-2.03
-721,675,66,-0.21,-1.33,-2.24
-726,672,65,-0.21,-1.4,-2.24
-730,665,63,-0.07,-1.68,-2.31
-734,650,61,-0.07,-1.89,-2.17
-738,648,64,0.28,-2.03,-2.1
-738,658,64,0.56,-2.03,-2.03
-738,671,68,-0.21,-2.1,-1.75
-730,684,71,-1.82,-2.1,-1.54
-723,686,70,-3.92,-2.1,-1.61
-717,669,66,-5.67,-2.38,-1.54
-722,653,68,-6.02,-2.8,-1.54
-731,648,71,-4.41,-3.01,-1.54
-740,639,72,-2.45,-3.15,-1.12
-744,650,71,-0.42,-3.29,-0.98
-738,673,75,0.84,-3.22,-1.19
-727,687,76,0.63,-3.08,-1.19
-718,684,73,-0.84,-3.22,-1.33
-720,663,72,-2.17,-3.5,-1.47
-727,650,74,-2.1,-3.64,-1.61
-732,653,77,-1.4,-3.57,-1.61
-731,656,80,-1.54,-3.43,-1.19
-729,654,82,-2.31,-3.29,-0.77
-726,661,86,-3.22,-3.01,-0.49
-722,677,91,-3.43,-2.73,-0.49
-719,678,90,-4.27,-2.45,-0.28
-717,670,89,-4.41,-2.38,-0.28
-720,657,88,-3.78,-2.17,-0.21
-728,639,85,-2.52,-1.89,0.0
-735,636,87,-0.98,-1.75,0.21
-738,641,87,0.63,-1.47,0.63
-737,651,87,0.91,-1.12,1.26
-732,672,91,0.21,-0.7,1.47
-730,678,91,-1.82,-0.35,1.47
-727,671,88,-3.92,-0.28,1.4
-725,676,89,-4.55,-0.21,0.98
-727,670,87,-4.41,0.0,0.7
-729,644,81,-4.55,-0.07,0.84
-733,627,78,-3.36,-0.28,0.77
-735,638,79,-0.28,-0.35,0.7
-737,664,81,1.82,-0.21,0.98
-729,686,82,1.96,-0.21,1.05
-722,682,78,0.14,-0.35,1.05
-717,663,76,-1.54,-0.56,0.84
-721,651,79,-1.75,-0.84,0.56
-723,657,85,-0.7,-0.91,0.49
-721,669,90,0.42,-0.77,0.84
-720,671,88,0.77,-0.56,1.12
-722,658,84,0.21,-0.56,1.33
-725,646,83,0.35,-0.63,1.12
-727,653,86,2.03,-0.56,0.7
-726,659,86,3.78,-0.35,0.7
-722,661,86,4.76,-0.28,0.84
-717,663,82,5.53,-0.28,0.77
-718,659,80,6.02,-0.07,0.98
-723,659,82,6.58,0.14,1.26
-730,673,82,6.93,0.28,1.33
-734,681,80,6.02,0.35,1.68
-737,672,80,4.27,0.7,1.75
-736,666,79,3.08,0.77,1.54
-732,680,81,2.87,0.77,1.19
-722,687,83,1.89,1.05,0.98
-717,678,81,0.63,1.12,1.05
-716,673,84,-0.14,1.12,1.19
-721,676,80,0.42,0.98,1.19
-721,680,73,1.12,0.98,1.26
-721,679,68,0.7,0.84,1.05
-726,671,65,-0.07,0.63,0.91
-731,667,61,-0.14,0.21,0.63
-732,673,62,0.63,-0.07,0.35
-729,674,64,0.98,-0.56,0.28
-724,677,67,0.7,-0.91,0.21
-721,678,70,0.91,-1.12,-0.21
-722,664,71,0.77,-1.19,-0.28
-726,650,73,0.84,-1.4,-0.35
-726,653,76,1.89,-1.4,-0.56
-727,665,81,3.36,-1.12,-0.63
-725,672,82,3.29,-0.63,-0.42
-721,671,83,2.1,-0.42,-0.49
-719,672,81,1.33,-0.21,-0.56
-719,678,83,1.4,0.14,-0.7
-720,677,80,1.4,0.42,-0.56
-717,673,76,0.77,0.49,-0.42
-718,671,78,0.49,0.77,-0.35
-723,674,78,1.12,1.12,-0.35
-723,678,75,1.4,1.19,-0.42
-717,687,70,1.05,0.98,-0.56
-720,686,65,0.14,0.84,-0.7
-726,665,62,-1.4,0.35,-0.77
-733,652,62,-2.24,-0.28,-1.05
-740,654,70,-1.89,-1.4,-1.47
-755,649,82,-4.48,-5.11,-1.68
-743,649,80,-7.84,-11.13,-2.87
-710,665,75,-6.79,-13.02,-3.71
-712,678,78,-4.62,-12.32,-2.87
-709,681,74,-3.64,-11.2,-2.31
-706,687,75,-3.08,-8.75,-1.75
-711,686,79,-2.66,-6.23,-1.26
-714,679,76,-1.75,-4.06,-1.26
-718,665,75,-1.4,-2.8,-1.05
-722,659,73,-0.98,-2.1,-0.77
-730,670,81,0.21,-1.54,-0.77
-734,678,84,0.42,-1.82,-0.84
-729,681,82,-0.28,-1.96,-0.91
-724,670,83,-1.12,-1.33,-0.91
-726,638,93,-2.03,-1.05,-0.77
-727,631,90,-1.19,-1.61,-0.91
-724,649,87,2.17,-1.61,-0.91
-723,667,100,3.85,-1.33,-0.49
-726,675,100,3.08,-1.68,-0.49
-724,666,88,1.68,-1.96,-0.77
-728,647,85,0.56,-1.68,-0.91
-734,624,104,-0.49,-2.24,-0.91
-725,624,90,-0.35,-3.29,-0.84
-715,660,70,2.31,-3.01,-0.35
-714,684,70,3.78,-2.03,0.63
-718,692,69,3.22,-1.26,1.19
-727,697,68,2.17,-0.91,1.12
-733,693,86,0.07,-0.91,0.7
-726,681,76,-2.87,-1.4,0.42
-717,680,57,-3.43,-1.33,0.21
-723,663,57,-3.92,-1.33,0.14
-733,660,63,-3.22,-1.54,-0.14
-742,680,68,-0.63,-1.96,-0.7
-743,687,80,0.77,-2.52,-0.91
-731,679,79,-0.42,-3.08,-0.98
-722,663,73,-1.96,-3.43,-1.19
-724,652,73,-1.68,-3.71,-1.61
-727,664,78,0.35,-3.92,-1.82
-727,692,91,2.1,-3.85,-1.75
-720,703,105,1.19,-3.64,-1.47
-718,690,98,-1.54,-3.43,-1.47
-717,656,90,-4.06,-3.5,-1.68
-724,640,84,-4.48,-3.29,-1.68
-733,650,92,-2.45,-3.15,-1.47
-734,681,93,-0.35,-2.94,-1.19
-725,688,98,-0.84,-2.73,-0.63
-723,690,100,-3.43,-2.17,-0.63
-724,689,100,-4.76,-1.89,-1.19
-724,687,92,-4.9,-1.75,-1.89
-724,671,84,-3.92,-1.82,-2.31
-737,650,77,-2.38,-1.89,-2.8
-750,646,66,1.47,-1.89,-3.64
-751,650,65,6.44,-1.68,-4.13
-740,653,76,10.57,-1.47,-4.06
-733,657,91,13.86,-1.26,-4.06
-727,669,93,15.47,-0.91,-4.13
-723,683,108,14.77,0.0,-4.13
-724,681,118,11.69,1.12,-3.71
-730,687,109,8.89,2.45,-3.57
-723,691,103,6.37,3.43,-3.85
-716,670,98,3.64,3.92,-3.78
-719,640,91,1.75,4.34,-3.85
-728,642,86,1.19,4.55,-3.92
-738,638,85,1.33,4.69,-3.5
-741,632,80,2.17,4.55,-3.01
-737,637,77,3.64,4.27,-2.73
-735,650,80,4.55,4.2,-2.38
-734,652,82,4.34,3.99,-1.96
-734,671,81,4.55,3.5,-2.03
-726,680,84,3.99,3.01,-2.17
-718,672,75,2.24,2.52,-2.03
-718,658,68,0.91,1.82,-2.17
-727,648,64,0.21,1.12,-2.31
-740,634,61,-0.42,0.77,-2.03
-747,622,62,-1.26,0.21,-1.68
-747,638,68,-1.12,-0.56,-1.68
-740,662,67,-0.77,-1.12,-1.68
-730,661,70,-2.66,-1.47,-0.98
-742,656,81,-6.3,-3.22,-0.91
-750,640,83,-9.31,-7.07,-1.75
-753,618,88,-10.64,-11.06,-2.38
-759,604,104,-11.69,-15.68,-2.87
-745,599,109,-11.76,-19.04,-3.01
-724,612,138,-11.27,-18.13,-1.96
-703,624,131,-14.21,-16.31,0.07
-693,671,72,-13.72,-10.78,1.4
-704,694,74,-11.48,-6.37,2.73
-727,663,77,-10.92,-3.85,3.57
-752,630,80,-10.71,-2.73,3.64
-769,604,83,-9.52,-2.59,2.8
-775,591,78,-7.35,-2.24,2.24
-765,610,84,-4.9,-2.38,1.82
-748,646,83,-1.82,-2.1,1.82
-729,675,87,-0.42,-1.96,2.31
-719,676,92,-1.54,-1.54,2.52
-719,676,92,-2.31,-1.05,2.45
-726,665,95,-2.73,-0.77,2.59
-737,655,92,-1.82,-0.56,2.45
-748,655,96,-0.42,-0.63,1.89
-750,676,98,1.33,-0.77,1.05
-745,698,101,1.96,-0.84,0.35
-736,711,98,0.98,-0.84,-0.42
-729,697,97,-0.63,-0.77,-1.05
-729,673,98,-1.4,-0.91,-1.47
-733,651,97,0.14,-1.4,-1.89
-734,650,107,3.15,-1.68,-2.17
-735,659,117,5.32,-1.68,-2.1
-727,672,118,6.23,-1.68,-2.1
-719,684,120,5.53,-1.54,-2.1
-719,690,118,4.06,-1.26,-2.38
-724,686,108,2.8,-1.19,-2.8
-736,667,96,2.31,-1.26,-3.08
-751,634,83,2.87,-1.12,-3.5
-764,637,78,7.7,-1.05,-4.34
-763,662,73,13.72,-1.26,-4.69
-750,686,67,16.87,-1.26,-4.48
-737,682,77,16.66,-1.05,-4.34
-721,671,101,14.84,-0.63,-4.41
-717,658,106,13.51,-0.21,-4.69
-716,626,109,12.81,0.14,-4.34
-719,610,112,12.67,0.7,-3.85
-728,621,117,13.51,1.89,-3.5
-731,661,122,14.07,3.57,-3.15
-723,695,121,11.83,5.6,-2.59
-712,705,112,6.86,7.14,-2.17
-710,678,100,1.26,7.98,-1.89
-721,635,92,-2.94,8.47,-1.82
-740,608,84,-3.01,8.4,-2.03
-753,597,77,-0.63,8.12,-1.61
-757,593,70,1.61,7.77,-0.49
-758,598,67,2.45,7.35,0.42
-758,622,64,3.43,6.65,0.7
-757,638,61,3.08,5.88,1.05
-754,650,59,1.05,5.11,1.47
-752,654,60,-0.7,4.48,1.54
-753,655,64,-1.68,3.99,1.54
-747,665,68,-1.26,3.36,1.12
-738,668,66,-0.63,2.52,0.63
-734,664,63,-0.07,1.82,0.28
-736,647,56,0.7,1.26,0.0
-743,611,53,1.4,0.7,0.07
-752,593,55,2.87,0.21,0.49
-763,610,56,6.58,-0.28,0.63
-760,645,60,8.89,-0.49,1.19
-748,673,63,7.07,-0.63,1.82
-740,675,64,2.31,-0.84,2.03
-742,676,66,-1.61,-1.12,1.68
-742,672,70,-3.5,-1.19,1.12
-738,662,68,-5.04,-1.12,1.05
-735,649,67,-5.74,-1.26,1.12
-741,631,68,-5.25,-1.47,0.98
-756,618,81,-4.9,-2.38,0.98
-821,613,141,-10.36,-9.73,0.42
-791,624,145,-18.13,-26.81,-3.22
-641,655,76,-13.93,-27.79,-4.48
-647,680,80,-10.15,-14.21,1.05
-698,667,76,-10.92,-7.14,2.94
-742,663,81,-10.57,-3.99,3.22
-754,679,81,-9.17,-2.03,3.36
-743,692,74,-9.1,-0.56,2.94
-733,684,77,-10.64,0.07,2.8
-736,669,72,-12.18,0.07,2.45
-742,650,69,-11.76,0.21,2.24
-749,638,78,-9.38,-0.07,1.82
-749,648,78,-6.02,-0.56,1.26
-742,662,76,-3.08,-0.84,1.12
-734,661,84,-2.31,-1.26,0.98
-734,666,89,-1.89,-1.61,0.28
-733,668,88,-0.98,-2.03,-0.14
-730,662,102,-0.91,-2.24,-0.28
-728,654,108,-2.24,-2.73,-0.42
-722,663,96,-2.31,-2.8,-0.35
-727,655,99,-3.15,-2.38,0.07
-732,660,99,-3.57,-1.96,0.21
-738,668,98,-3.08,-1.75,0.28
-734,672,99,-3.71,-1.47,0.49
-733,677,101,-4.2,-0.91,0.42
-730,666,99,-4.62,-0.7,0.28
-734,653,95,-4.41,-0.63,0.07
-745,629,90,-3.5,-0.77,-0.14
-751,599,86,-2.17,-0.98,-0.14
-751,612,91,1.33,-0.84,-0.14
-748,644,97,5.67,-0.63,-0.07
-736,670,96,7.42,-0.21,0.35
-733,688,101,6.09,0.35,0.56
-735,674,109,2.31,0.63,0.14
-734,651,103,-0.91,0.21,-0.42
-739,629,100,-2.1,0.07,-0.49
-746,614,103,-1.75,-0.77,-0.42
-742,629,110,0.14,-1.12,-0.21
-737,653,111,1.68,-1.4,0.21
-730,660,109,0.7,-1.47,0.49
-731,658,100,-1.26,-1.47,0.56
-736,646,96,-2.66,-1.33,0.49
-743,650,96,-2.38,-1.05,0.49
-743,650,95,-1.68,-0.84,0.49
-737,662,98,-1.26,-0.63,0.56
-733,673,100,-1.12,-0.42,0.42
-723,686,104,-1.12,-0.21,0.14
-720,683,99,-1.4,-0.14,-0.21
-721,654,94,-2.17,-0.35,-0.28
-733,632,98,-2.1,-0.63,-0.35
-742,628,102,0.07,-1.12,-0.49
-739,639,102,2.52,-1.68,-0.21
-732,657,107,2.8,-2.1,0.28
-726,660,108,0.49,-2.59,0.56
-728,662,105,-1.96,-2.52,0.7
-733,669,105,-3.36,-2.03,0.84
-738,677,101,-4.06,-1.54,0.84
-738,673,100,-5.53,-1.12,0.84
-735,664,100,-7.0,-0.7,0.77
-734,655,99,-7.35,-0.42,0.49
-736,642,96,-6.23,-0.49,0.21
-739,631,97,-4.69,-0.63,0.21
-743,629,104,-2.94,-0.77,0.35
-743,642,103,-0.42,-1.26,0.07
-736,659,107,1.05,-1.61,0.14
-731,659,116,-0.07,-1.96,0.14
-729,654,114,-2.03,-2.87,-0.07
-727,655,107,-2.59,-3.22,-0.21
-730,659,111,-2.8,-3.01,-0.07
-731,648,116,-3.78,-3.01,0.14
-733,650,113,-5.11,-3.36,0.42
-731,645,121,-6.72,-3.43,0.91
-731,642,121,-7.77,-3.5,1.33
-725,663,112,-7.7,-3.15,1.47
-723,659,117,-8.19,-2.24,1.89
-725,637,111,-8.33,-1.4,2.24
-735,622,112,-6.3,-0.77,2.1
-746,631,111,-2.31,-0.56,1.54
-744,651,117,1.47,-0.63,1.33
-738,662,116,1.68,-0.63,1.47
-735,660,110,0.14,-0.35,1.26
-742,654,108,-1.12,-0.14,0.98
-743,651,111,-1.47,-0.07,0.84
-736,653,117,-1.4,-0.35,0.98
-729,663,120,-2.45,-0.49,1.12
-722,677,126,-3.64,-0.28,1.12
-720,673,131,-5.6,-0.14,1.33
-720,665,124,-7.35,0.0,1.54
-725,638,120,-8.47,0.49,1.96
-733,615,123,-7.63,0.91,2.1
-737,632,122,-3.99,1.12,1.89
-729,662,122,0.0,1.05,1.89
-719,682,117,1.19,1.05,2.17
-721,681,107,0.0,0.91,2.1
-732,655,102,-1.82,0.7,1.82
-743,660,101,-1.26,0.28,1.33
-745,669,106,0.35,-0.42,1.12
-736,674,108,-0.42,-0.77,1.12
-732,677,111,-2.17,-0.91,0.84
-731,660,114,-3.57,-0.98,0.42
-732,651,117,-3.78,-0.98,0.07
-733,656,120,-2.45,-0.98,-0.14
-730,655,121,-0.91,-1.05,-0.21
-728,660,127,0.14,-1.26,-0.28
-725,661,124,0.14,-1.26,-0.42
-722,662,125,0.0,-1.26,-0.56
-725,646,119,-0.56,-1.26,-0.49
-727,642,119,-0.28,-1.26,-0.28
-730,658,125,0.91,-1.12,-0.14
-721,674,128,1.05,-0.91,0.28
-717,681,130,-0.91,-0.7,0.63
-718,675,125,-3.71,-0.42,0.77
-725,664,126,-5.74,-0.28,0.63
-730,661,125,-6.37,-0.14,0.42
-728,656,125,-6.44,0.07,0.56
-725,655,122,-5.81,0.0,0.56
-724,646,118,-5.46,-0.14,0.7
-729,638,114,-5.04,-0.28,0.91
-739,643,115,-3.92,-0.42,0.84
-740,652,118,-2.8,-0.7,0.84
-737,665,120,-2.52,-0.84,0.91
-735,652,119,-3.71,-0.98,0.91
-734,646,124,-4.69,-0.98,0.7
-734,660,128,-3.99,-0.98,0.28
-726,670,131,-3.15,-0.98,0.14
-722,666,134,-3.85,-0.91,0.14
-721,659,132,-4.48,-0.91,0.0
-721,657,132,-3.64,-0.77,-0.21
-724,653,129,-2.8,-0.7,-0.07
-724,649,127,-1.68,-0.7,-0.07
-729,647,128,-0.91,-0.7,0.0
-732,649,126,-0.35,-0.77,0.0
-733,646,125,0.14,-0.84,0.07
-730,650,122,0.49,-0.98,0.14
-725,653,129,0.42,-0.91,0.42
-724,658,133,0.35,-0.84,0.49
-721,665,136,0.63,-0.77,0.49
-715,665,134,0.42,-0.56,0.63
-721,659,131,0.0,-0.28,0.77
-731,644,126,-0.07,-0.21,0.63
-737,641,126,0.98,-0.28,0.49
-738,647,130,2.31,-0.42,0.49
-732,651,130,2.73,-0.42,0.7
-729,652,127,2.45,-0.42,0.84
-731,647,121,1.89,-0.56,0.91
-733,645,119,1.47,-0.77,1.05
-736,656,122,1.33,-0.84,1.12
-734,672,128,1.26,-0.98,1.12
-727,677,130,-0.14,-1.05,1.19
-719,678,132,-2.03,-0.84,1.05
-720,669,130,-3.5,-0.7,0.84
-721,652,129,-3.71,-0.7,0.7
-723,651,129,-2.73,-0.63,0.56
-727,653,134,-1.33,-0.35,0.63
-723,664,135,-0.14,-0.35,0.56
-717,669,132,0.56,-0.21,0.63
-715,664,130,-0.07,0.0,0.7
-721,658,128,-0.21,0.07,0.56
-727,656,125,0.21,0.0,0.42
-728,660,124,1.19,0.0,0.28
-729,658,124,1.47,-0.14,0.28
-729,657,125,1.33,-0.28,0.28
-725,654,125,1.26,-0.28,0.21
-726,651,130,1.4,-0.14,0.21
-730,643,125,2.17,-0.14,0.21
-730,637,123,3.29,-0.28,0.14
-732,652,127,4.97,-0.21,0.0
-736,657,122,6.44,-0.21,-0.28
-737,644,116,6.65,-0.35,-0.63
-736,637,117,6.79,-0.49,-1.12
-732,664,121,8.96,-0.42,-1.75
-722,678,127,10.36,-0.28,-1.82
-713,678,130,9.31,-0.07,-1.54
-709,691,130,8.54,0.21,-1.75
-709,701,133,7.91,0.49,-2.03
-707,698,127,6.09,0.84,-2.17
-708,692,119,3.99,0.98,-2.17
-712,686,120,2.52,1.05,-2.17
-716,680,119,1.68,1.05,-2.1
-717,673,112,0.84,0.91,-1.89
-724,667,107,0.35,0.7,-1.68
-731,666,105,0.28,0.42,-1.61
-732,659,105,0.0,0.07,-1.47
-731,658,107,-0.84,-0.07,-1.12
-728,669,114,-0.91,-0.21,-0.98
-723,673,117,-1.12,-0.28,-0.77
-721,656,111,-2.8,-0.42,-0.35
-731,635,110,-3.78,-0.42,-0.21
-746,618,111,-3.43,-0.35,-0.28
-754,618,112,-1.54,-0.42,-0.28
-752,632,113,0.49,-0.42,-0.14
-742,652,112,1.54,-0.49,0.0
-732,654,111,0.56,-0.49,0.21
-730,648,110,-0.91,-0.35,0.28
-736,628,108,-1.4,-0.42,0.28
-742,627,114,0.21,-0.35,0.14
-741,635,116,3.22,-0.21,0.21
-729,645,121,5.32,0.07,0.35
-725,646,121,6.23,0.49,0.42
-726,635,111,7.07,0.63,0.35
-729,637,104,8.89,0.49,0.21
-731,653,106,11.2,0.35,0.07
-732,663,102,12.39,0.35,0.0
-733,663,99,12.53,0.35,-0.14
-732,662,102,12.39,0.35,-0.42
-729,662,108,12.04,0.28,-0.77
-724,687,114,11.55,0.14,-1.05
-712,710,115,10.43,0.28,-1.05
-704,717,116,8.26,0.56,-0.77
-699,714,107,6.09,0.84,-0.91
-705,685,97,3.85,0.77,-0.98
-718,669,93,2.52,0.7,-1.26
-730,667,92,3.01,0.7,-1.26
-732,666,89,3.71,0.56,-0.98
-730,658,90,3.29,0.28,-0.56
-734,643,87,1.54,0.07,-0.14
-737,654,88,1.19,0.0,0.07
-738,664,91,1.4,-0.14,0.21
-736,661,92,0.0,-0.21,0.35
-734,670,91,-0.84,-0.14,0.21
-731,670,96,-1.26,-0.07,-0.07
-724,665,100,-2.1,-0.21,-0.14
-721,673,102,-2.45,-0.14,-0.35
-723,665,99,-2.45,-0.14,-0.42
-725,655,94,-2.03,-0.28,-0.42
-729,648,90,-1.12,-0.56,-0.28
-732,651,87,-0.07,-0.63,-0.14
-735,654,84,1.33,-0.91,0.0
-733,644,85,0.91,-1.19,0.21
-737,652,89,0.42,-1.12,0.35
-734,661,95,0.42,-1.19,0.42
-725,690,97,0.14,-1.19,0.49
-720,699,100,-1.89,-1.05,0.63
-718,685,94,-4.69,-0.98,0.35
-726,658,93,-6.23,-0.98,-0.07
-736,632,93,-5.88,-1.12,-0.42
-740,632,97,-2.73,-1.33,-0.63
-733,648,99,0.42,-1.54,-0.28
-723,666,105,2.1,-1.4,0.07
-719,683,104,1.82,-1.26,0.21
-721,678,103,0.21,-1.12,0.14
-726,661,96,-2.03,-1.05,0.07
-738,635,90,-3.22,-1.05,0.07
-746,631,90,-2.31,-1.12,-0.14
-742,662,101,-0.07,-1.26,-0.21
-723,690,105,-0.07,-1.19,0.21
-711,695,104,-2.52,-0.84,0.35
-715,677,100,-4.97,-0.7,0.07
-726,647,95,-5.67,-0.77,-0.28
-737,633,95,-4.2,-0.91,-0.42
-741,642,96,-0.77,-1.12,-0.35
-732,661,102,1.96,-1.05,-0.14
-723,678,104,2.38,-0.98,0.0
-719,680,106,1.05,-0.98,-0.21
-719,667,101,-1.4,-1.05,-0.35
-726,663,97,-2.38,-1.05,-0.35
-733,656,97,-2.1,-1.05,-0.14
-733,649,97,-1.96,-1.19,-0.07
-732,654,94,-1.47,-1.26,0.0
-728,660,96,-0.91,-1.33,0.07
-733,656,92,-1.19,-1.54,0.14
-735,647,96,-1.75,-1.61,0.14
-737,658,100,-0.91,-1.54,-0.07
-731,664,105,0.49,-1.47,-0.07
-724,670,103,0.98,-1.4,0.0
-727,660,96,1.12,-1.33,0.0
-734,639,96,1.05,-1.33,-0.21
-739,648,96,2.73,-1.26,-0.56
-737,650,101,3.92,-1.75,-0.42
-728,658,109,3.57,-1.75,0.0
-728,663,114,2.66,-1.82,0.07
-720,662,110,1.4,-1.96,0.14
-721,670,111,0.49,-1.89,0.21
-722,657,112,-1.19,-1.96,0.21
-724,658,109,-1.96,-1.96,0.21
-723,665,109,-1.54,-1.75,0.21
-720,665,106,-1.05,-1.33,0.42
-719,676,107,-0.63,-0.98,0.49
-725,672,104,-0.63,-0.77,0.35
-727,649,96,-1.61,-0.84,0.35
-733,651,92,-1.33,-0.84,0.14
-735,681,97,0.77,-0.98,-0.07
-723,696,99,0.91,-1.4,-0.07
-713,702,100,-1.19,-1.54,-0.14
-713,677,98,-3.36,-1.68,-0.49
-718,656,98,-3.85,-1.89,-0.77
-726,660,100,-2.17,-2.24,-1.05
-731,657,98,-0.98,-2.52,-0.63
-733,661,102,-0.7,-2.94,-0.42
-727,670,102,-1.26,-3.22,-0.49
-720,680,109,-1.96,-2.94,-0.49
-718,669,110,-3.08,-2.73,-0.35
-728,643,102,-3.64,-2.73,-0.21
-744,611,102,-3.64,-2.73,-0.21
-753,626,110,-0.77,-2.38,-0.49
-745,658,119,2.24,-2.03,-0.42
-726,680,122,2.1,-1.89,-0.07
-714,681,117,-0.28,-1.54,0.0
-718,654,114,-2.94,-1.26,-0.21
-728,639,112,-3.5,-0.84,-0.35
-736,638,109,-1.19,-0.77,-0.28
-732,642,106,0.91,-0.84,0.28
-728,656,107,1.89,-0.7,0.77
-727,663,109,1.33,-0.56,0.98
-729,670,105,0.28,-0.63,0.91
-731,665,103,-1.05,-0.77,0.91
-733,652,96,-2.38,-0.91,0.98
-737,650,104,-2.24,-0.98,0.98
-732,669,111,-1.12,-1.12,0.84
-718,679,116,-0.84,-1.33,0.98
-714,673,112,-2.03,-1.47,1.12
-721,647,111,-3.29,-1.47,1.05
-730,643,109,-2.87,-1.54,0.98
-734,658,108,-0.91,-1.89,1.05
-731,667,106,-0.84,-2.03,1.47
-729,664,107,-2.38,-2.03,1.54
-727,666,111,-3.64,-1.89,1.33
-728,660,117,-4.27,-1.75,1.19
-722,669,123,-4.06,-1.54,1.19
-717,665,122,-4.06,-1.47,1.33
-719,640,115,-4.62,-1.4,1.68
-729,628,114,-3.99,-1.26,1.61
-735,654,118,-0.98,-1.19,1.47
-731,676,120,0.98,-1.12,1.61
-722,672,115,-0.07,-0.98,1.75
-721,654,120,-2.1,-0.56,1.61
-722,659,118,-1.47,-0.49,1.12
-721,669,118,0.42,-0.56,1.05
-718,671,116,0.56,-0.56,1.19
-718,680,113,0.77,-0.49,1.05
-719,682,113,0.84,-0.56,0.77
-719,676,110,0.7,-0.63,0.56
-721,655,110,-0.14,-0.91,0.49
-726,659,113,0.14,-1.12,0.42
-721,682,120,1.82,-1.12,0.42
-708,697,121,1.96,-1.05,0.63
-703,687,117,-0.21,-1.19,0.84
-709,670,114,-2.38,-1.26,0.63
-723,652,109,-2.73,-1.54,0.42
-729,651,112,-2.03,-1.75,0.56
-734,652,111,-1.12,-1.82,0.84
-737,649,115,-0.77,-1.82,1.05
-728,663,120,-0.49,-1.47,1.05
-720,685,126,-0.28,-0.84,0.91
-711,688,126,-1.05,-0.56,0.7
-707,672,125,-2.38,-0.35,0.63
-714,655,121,-2.59,-0.07,0.35
-724,646,116,-0.56,0.0,0.14
-731,651,113,1.82,-0.07,0.07
-731,654,110,3.15,-0.28,0.07
-725,666,109,3.43,-0.42,0.28
-723,680,115,3.22,-0.49,0.28
