acc_x[mg],acc_y[mg],acc_z[mg],gyro_x[dps],gyro_y[dps],gyro_z[dps]
-547,-227,-833,0.63,-3.36,-0.63
-536,-232,-843,2.24,-3.92,-1.68
-528,-217,-848,4.2,-4.62,-2.59
-515,-188,-850,5.04,-5.11,-3.22
-508,-164,-847,3.57,-4.69,-3.43
-503,-144,-842,0.21,-3.64,-3.43
-495,-142,-833,-3.36,-2.66,-3.36
-499,-162,-828,-6.44,-1.89,-2.87
-499,-191,-836,-7.21,-1.75,-2.31
-503,-209,-845,-4.83,-1.89,-1.75
-512,-205,-848,-1.12,-2.1,-0.63
-516,-202,-846,1.82,-2.17,0.7
-526,-202,-842,3.5,-1.96,1.12
-527,-198,-831,3.78,-1.75,1.19
-521,-199,-827,2.73,-1.68,1.12
-517,-198,-831,1.33,-1.75,1.12
-517,-197,-836,0.35,-1.61,1.47
-518,-197,-844,-0.42,-1.26,2.03
-519,-196,-849,-0.56,-1.05,2.31
-523,-202,-856,0.14,-0.77,2.8
-524,-197,-854,1.47,-0.56,2.87
-525,-186,-847,2.52,-0.49,3.08
-524,-185,-847,2.66,-0.56,3.36
-517,-192,-846,2.17,-0.49,3.36
-511,-197,-842,1.68,0.0,3.22
-515,-197,-837,1.54,0.14,3.01
-522,-196,-828,1.05,0.0,2.94
-524,-200,-823,0.77,-0.28,2.87
-523,-210,-826,0.91,-0.63,2.45
-522,-215,-830,1.54,-1.05,1.82
-527,-199,-832,2.59,-1.61,1.47
-528,-180,-836,2.45,-1.96,1.47
-523,-180,-844,1.19,-1.82,1.68
-518,-195,-846,0.21,-1.26,1.61
-521,-200,-843,0.14,-0.98,1.47
-518,-200,-844,0.7,-1.12,1.68
-520,-204,-843,1.19,-1.26,1.96
-523,-203,-844,1.96,-1.05,2.1
-524,-205,-838,2.59,-1.12,2.1
-523,-199,-834,2.73,-1.12,2.1
-523,-203,-838,2.66,-1.12,2.17
-519,-204,-843,2.45,-0.91,2.1
-520,-195,-842,2.31,-0.49,1.89
-522,-195,-841,1.82,-0.42,1.75
-516,-202,-840,1.05,-0.07,1.47
-518,-205,-834,1.33,0.35,1.33
-519,-204,-833,2.45,0.21,1.47
-515,-203,-833,2.94,-0.07,1.68
-518,-208,-838,2.73,0.0,1.82
-521,-218,-842,2.59,0.0,1.33
-524,-216,-841,2.66,0.07,0.7
-531,-209,-837,2.66,0.0,0.49
-534,-202,-834,2.17,-0.14,0.42
-533,-198,-833,1.68,-0.28,0.35
-528,-190,-836,1.26,-0.42,0.21
-526,-180,-837,0.77,-0.42,0.42
-528,-177,-838,-0.35,-0.28,0.84
-523,-193,-844,-1.26,0.0,1.05
-515,-204,-847,-0.98,0.28,0.98
-515,-199,-841,0.21,0.49,1.19
-526,-198,-835,0.98,0.35,1.89
-529,-201,-833,1.4,0.14,2.31
-532,-212,-831,1.96,0.14,2.59
-528,-208,-832,2.24,-0.14,2.66
-524,-193,-828,2.31,-0.28,2.73
-520,-188,-831,1.33,-0.14,3.15
-520,-189,-833,0.14,0.07,3.5
-521,-193,-835,-0.35,0.35,3.92
-521,-191,-835,-0.35,0.35,4.41
-522,-184,-831,-0.28,0.49,5.04
-522,-186,-830,-1.12,0.63,5.74
-517,-214,-833,-2.17,0.84,5.81
-514,-233,-835,-1.68,0.77,5.46
-516,-229,-838,0.07,0.28,5.32
-526,-217,-838,1.12,-0.35,5.67
-534,-202,-838,0.35,-0.28,5.95
-536,-212,-839,-0.56,0.0,5.25
-535,-217,-830,-1.47,0.28,4.2
-533,-216,-828,-1.89,0.21,3.29
-533,-221,-835,-1.05,-0.35,2.45
-526,-205,-839,0.63,-0.84,1.82
-525,-201,-841,2.17,-0.98,1.82
-528,-206,-847,3.01,-1.19,1.68
-530,-204,-855,4.2,-1.54,0.98
-532,-192,-860,5.18,-1.89,0.49
-523,-175,-862,4.9,-1.82,0.35
-517,-160,-861,3.22,-1.4,0.56
-513,-154,-852,0.42,-0.63,0.7
-512,-154,-845,-2.38,0.14,0.63
-513,-157,-838,-3.85,0.7,0.56
-509,-167,-829,-4.06,0.91,1.19
-513,-185,-822,-3.36,0.77,1.89
-522,-200,-822,-1.68,0.35,2.03
-524,-206,-832,1.19,-0.28,1.68
-524,-195,-834,3.57,-0.63,1.61
-519,-184,-828,4.55,-0.7,1.82
-519,-180,-830,3.78,-0.91,1.82
-517,-184,-830,1.82,-0.77,1.54
-514,-193,-837,0.35,-0.42,1.05
-509,-196,-847,0.42,-0.21,0.49
-507,-193,-851,1.47,0.14,0.7
-511,-192,-851,2.1,0.42,1.33
-518,-203,-850,1.89,0.63,1.47
-520,-205,-848,2.52,0.63,0.91
-515,-195,-844,3.85,0.49,0.49
-510,-187,-846,4.34,0.7,0.63
-508,-185,-845,3.64,1.05,0.77
-516,-187,-845,2.45,1.26,0.7
-520,-191,-849,1.96,1.05,0.28
-525,-199,-846,1.54,1.19,0.42
-533,-205,-839,1.19,1.33,0.42
-539,-211,-840,0.91,0.91,-0.07
-536,-194,-839,0.84,0.35,-0.98
-530,-189,-838,0.42,0.07,-1.05
-528,-206,-841,-0.84,0.07,-0.91
-524,-210,-843,-0.7,-0.21,-1.26
-525,-200,-837,0.98,-0.63,-1.33
-524,-173,-832,1.82,-1.12,-0.77
-516,-167,-831,0.91,-1.19,0.14
-512,-190,-839,-0.63,-0.84,0.42
-509,-210,-853,-0.28,-0.63,-0.42
-507,-202,-854,1.96,-0.35,-0.56
-509,-196,-845,3.57,-0.07,0.42
-509,-199,-843,3.92,0.07,0.98
-505,-208,-843,3.92,0.21,0.63
-511,-204,-836,3.85,0.42,0.28
-521,-189,-834,3.36,0.14,0.42
-527,-188,-829,1.54,-0.42,1.26
-531,-204,-834,-1.05,-0.21,2.03
-536,-249,-843,-2.38,-0.63,1.61
-519,-276,-856,-2.66,-1.47,0.49
-503,-288,-875,-1.82,-1.4,-0.07
-503,-280,-880,0.77,-0.77,-0.07
-515,-255,-874,3.57,-0.21,0.56
-534,-215,-857,6.16,0.42,1.54
-546,-184,-833,7.21,1.12,2.94
-551,-176,-816,6.58,1.19,4.06
-548,-170,-815,6.58,0.49,4.27
-540,-171,-822,6.3,-0.63,4.48
-538,-178,-838,4.97,-1.4,4.62
-536,-182,-839,2.73,-1.68,4.62
-546,-188,-839,1.05,-2.03,3.99
-550,-183,-835,-0.63,-2.73,2.73
-544,-184,-830,-2.87,-3.01,1.75
-536,-196,-828,-4.97,-3.22,0.63
-529,-199,-829,-5.81,-3.71,-0.77
-529,-194,-830,-4.76,-4.2,-1.89
-526,-185,-827,-2.8,-4.55,-2.73
-518,-186,-824,-0.98,-4.69,-3.01
-509,-189,-831,1.19,-4.97,-3.64
-506,-178,-837,3.64,-5.25,-4.48
-508,-160,-836,5.11,-4.97,-4.41
-518,-163,-829,4.69,-4.55,-4.13
-525,-167,-830,3.64,-4.48,-4.34
-522,-157,-832,2.03,-4.55,-4.62
-524,-152,-832,-0.63,-4.27,-4.76
-528,-158,-830,-3.71,-3.78,-4.76
-527,-177,-833,-6.51,-3.22,-4.76
-523,-203,-838,-7.35,-2.94,-4.69
-516,-213,-835,-6.09,-3.08,-4.9
-521,-218,-828,-3.99,-3.5,-4.83
-519,-220,-836,-1.54,-4.13,-5.04
-508,-202,-837,0.91,-4.62,-5.11
-497,-184,-829,2.03,-4.41,-4.13
-494,-176,-824,0.84,-3.99,-3.15
-493,-174,-822,-1.4,-3.71,-2.52
-494,-182,-818,-3.92,-3.36,-2.1
-497,-189,-822,-5.67,-3.29,-1.82
-497,-202,-832,-6.09,-3.08,-1.47
-498,-232,-838,-5.95,-2.66,-0.84
-505,-258,-854,-4.2,-2.31,-0.91
-511,-255,-873,0.0,-2.87,-1.68
-516,-230,-878,4.13,-2.66,-1.33
-524,-206,-881,6.23,-1.75,-0.42
-539,-185,-871,6.02,-0.56,0.21
-548,-181,-860,4.06,0.35,0.21
-545,-187,-857,1.12,1.05,-0.35
-553,-206,-843,-1.82,1.61,-0.77
-568,-218,-828,-3.22,1.54,-1.4
-573,-214,-817,-3.01,0.07,-2.38
-566,-191,-818,-2.52,-1.54,-2.73
-555,-179,-814,-2.8,-2.73,-2.38
-541,-187,-819,-3.92,-3.15,-1.96
-526,-204,-833,-3.99,-3.78,-2.52
-517,-205,-848,-3.36,-4.2,-2.66
-519,-216,-851,-2.73,-3.57,-2.17
-526,-224,-843,-2.38,-2.8,-2.24
-524,-209,-837,-0.84,-2.73,-3.15
-518,-180,-831,0.56,-3.01,-3.08
-511,-165,-832,-0.77,-2.8,-2.24
-516,-196,-840,-3.43,-2.17,-1.54
-519,-230,-849,-4.83,-1.61,-1.96
-529,-249,-857,-3.71,-1.54,-2.94
-543,-234,-851,-2.45,-1.82,-3.36
-554,-219,-838,-3.43,-1.96,-3.36
-562,-227,-823,-4.97,-2.1,-4.34
-564,-243,-809,-5.6,-2.52,-5.95
-564,-253,-812,-4.69,-3.64,-7.56
-558,-242,-822,-2.66,-5.18,-8.47
-553,-214,-830,-1.33,-6.09,-8.61
-542,-193,-840,-0.7,-6.51,-8.75
-530,-184,-838,-0.77,-6.23,-8.68
-528,-183,-828,-1.05,-5.88,-8.47
-525,-179,-821,-1.54,-5.81,-7.56
-520,-181,-823,-2.24,-5.74,-6.51
-518,-189,-824,-2.66,-5.53,-5.74
-519,-198,-828,-2.31,-5.04,-4.9
-522,-206,-833,-1.26,-4.62,-3.99
-525,-221,-826,-0.77,-4.06,-2.45
-534,-231,-826,-0.84,-3.5,-1.82
-538,-224,-823,-0.21,-3.5,-2.38
-538,-210,-813,-0.07,-3.15,-2.87
-539,-199,-811,-0.77,-2.73,-2.94
-539,-188,-804,-1.82,-2.24,-2.73
-541,-184,-804,-2.94,-1.82,-2.17
-539,-206,-808,-3.85,-1.82,-1.68
-539,-228,-816,-3.92,-1.75,-1.26
-539,-241,-825,-1.82,-2.17,-0.98
-535,-238,-834,1.26,-2.45,-0.63
-531,-228,-837,3.71,-2.52,-0.14
-527,-210,-836,4.76,-2.38,0.21
-527,-189,-832,4.48,-1.75,0.49
-532,-180,-829,2.87,-0.91,1.12
-534,-178,-825,0.35,-0.28,1.75
-540,-190,-819,-1.75,0.49,2.45
-541,-213,-817,-2.73,0.77,2.87
-539,-222,-816,-1.96,0.63,3.08
-543,-220,-817,0.42,0.0,3.43
-540,-212,-820,2.17,-0.42,3.99
-538,-204,-823,2.87,-0.42,4.27
-546,-194,-819,2.87,-0.42,4.34
-551,-186,-819,2.17,-0.42,4.27
-549,-186,-821,1.54,-0.35,4.2
-543,-209,-817,0.63,0.0,4.34
-544,-239,-823,0.42,-0.14,3.99
-539,-249,-841,2.38,-0.91,2.87
-535,-240,-854,4.27,-1.26,2.03
-539,-232,-861,4.48,-0.7,1.61
-546,-228,-866,3.99,-0.07,0.21
-554,-208,-857,3.36,0.7,-1.61
-565,-197,-832,2.31,1.61,-2.73
-566,-194,-813,1.19,1.61,-3.57
-557,-200,-805,1.54,0.63,-3.99
-547,-201,-809,2.45,-0.98,-3.85
-541,-183,-822,2.73,-2.52,-3.43
-539,-171,-831,1.12,-2.87,-2.8
-532,-159,-834,-1.96,-2.66,-2.52
-527,-146,-831,-5.46,-2.17,-2.31
-531,-154,-824,-9.45,-0.98,-1.47
-529,-193,-823,-12.32,0.14,-0.91
-522,-234,-827,-12.18,0.21,-1.12
-523,-253,-839,-8.19,-0.28,-1.26
-531,-250,-843,-2.87,-0.42,-0.42
-536,-230,-836,1.12,-0.42,0.56
-536,-216,-825,3.5,-0.28,0.91
-540,-195,-817,4.06,-0.42,0.49
-539,-178,-815,2.17,-0.28,0.42
-535,-169,-814,-0.49,0.49,0.42
-535,-169,-813,-2.8,1.19,0.56
-536,-186,-818,-4.2,1.19,0.56
-541,-208,-822,-4.41,1.19,0.42
-545,-233,-823,-3.15,0.84,0.0
-544,-241,-832,-0.63,0.07,-0.7
-539,-237,-833,3.08,-0.63,-1.26
-532,-216,-832,6.09,-1.05,-1.05
-523,-186,-838,7.56,-1.54,-0.98
-523,-170,-824,5.88,-1.05,-0.42
-537,-174,-818,1.89,-0.28,-0.28
-538,-176,-819,-0.49,-0.49,-0.98
-524,-166,-815,-1.54,-0.42,-1.05
-518,-170,-822,-3.43,-0.07,-0.28
-528,-196,-827,-5.67,0.42,0.07
-535,-219,-832,-5.81,0.56,-0.63
-541,-226,-833,-3.36,0.0,-1.47
-548,-225,-821,-1.26,-0.42,-1.4
-556,-231,-826,0.21,-0.7,-1.68
-558,-227,-841,2.31,-1.33,-2.8
-552,-208,-841,3.5,-1.82,-3.71
-548,-198,-838,2.66,-1.75,-3.99
-549,-182,-841,1.54,-1.68,-4.76
-548,-144,-833,0.21,-1.89,-5.11
-540,-142,-817,-3.29,-1.68,-4.34
-530,-172,-816,-8.4,-1.19,-4.2
-529,-190,-822,-10.57,-1.4,-5.25
-529,-198,-819,-10.01,-1.75,-5.25
-527,-203,-822,-8.82,-1.96,-4.41
-522,-201,-831,-6.09,-2.38,-4.06
-521,-215,-835,-3.36,-2.24,-3.36
-519,-218,-850,-0.91,-2.31,-3.43
-523,-206,-859,1.54,-2.1,-3.57
-536,-195,-850,3.15,-1.12,-3.01
-535,-189,-836,2.8,-0.63,-2.66
-531,-198,-824,1.26,-0.42,-2.66
-528,-204,-822,-0.14,-0.56,-2.8
-525,-192,-822,-1.54,-0.91,-2.52
-527,-182,-820,-3.43,-0.91,-1.96
-536,-189,-816,-5.81,-0.7,-1.68
-543,-196,-822,-6.51,-0.77,-2.03
-547,-194,-827,-5.6,-1.05,-2.24
-539,-204,-840,-3.85,-1.12,-1.89
-532,-226,-853,-1.54,-1.12,-1.54
-522,-231,-860,1.61,-0.98,-1.54
-519,-231,-862,4.55,-0.98,-1.68
-520,-207,-847,5.81,-0.77,-1.82
-528,-167,-830,4.83,-0.35,-1.96
-534,-140,-816,1.82,-0.07,-2.03
-530,-144,-807,-3.29,0.63,-1.89
-529,-190,-802,-8.12,1.33,-1.96
-535,-231,-811,-9.52,1.12,-2.8
-538,-257,-827,-6.93,0.14,-3.29
-537,-262,-840,-2.66,-0.63,-2.94
-536,-247,-848,2.24,-1.4,-2.73
-538,-215,-851,6.3,-1.68,-2.52
-539,-185,-844,7.21,-1.4,-1.96
-542,-170,-838,5.67,-0.77,-1.68
-544,-172,-832,3.15,0.07,-1.54
-536,-191,-840,0.98,0.7,-1.47
-533,-207,-847,0.14,1.12,-1.4
-537,-214,-842,0.07,1.33,-0.91
-537,-223,-831,-0.28,1.05,-0.28
-535,-225,-826,0.14,0.49,-0.49
-527,-207,-826,1.12,0.0,-0.63
-518,-189,-829,1.33,-0.14,-0.42
-518,-180,-829,0.07,0.35,0.0
-527,-185,-828,-1.54,1.05,0.42
-540,-205,-826,-2.45,1.12,0.77
-549,-214,-827,-2.31,0.84,0.77
-560,-215,-824,-0.84,0.56,0.91
-562,-207,-821,-0.56,0.21,1.05
-554,-209,-817,-1.19,-0.14,0.63
-547,-216,-812,-1.82,-0.28,-0.35
-545,-208,-811,-1.26,-0.77,-1.26
-539,-184,-814,0.07,-1.68,-1.26
-528,-168,-815,0.35,-2.17,-0.28
-517,-177,-824,-0.7,-2.1,0.14
-513,-202,-839,-1.26,-1.89,-0.49
-513,-211,-850,-0.42,-1.54,-1.12
-510,-213,-856,0.84,-1.26,-1.19
-503,-208,-855,1.19,-0.77,-0.91
-508,-215,-845,0.77,0.42,-0.98
-520,-216,-837,1.12,1.05,-1.68
-525,-204,-823,1.54,1.19,-2.1
-533,-200,-811,1.19,0.98,-1.68
-539,-201,-807,0.07,0.35,-1.61
-543,-207,-810,-1.05,-0.42,-2.1
-545,-227,-818,-1.75,-0.84,-2.59
-543,-227,-830,-1.12,-1.61,-3.08
-543,-206,-835,0.35,-2.24,-2.52
-538,-189,-840,0.7,-2.52,-1.61
-530,-193,-846,-0.21,-2.38,-1.4
-524,-203,-849,-1.19,-1.75,-1.54
-519,-222,-853,-1.4,-1.05,-1.61
-517,-236,-852,-1.05,-0.56,-1.54
-517,-232,-842,-0.07,-0.28,-1.89
-521,-233,-835,0.42,-0.42,-2.38
-525,-231,-835,0.49,-0.35,-3.43
-531,-219,-828,0.98,-0.49,-4.13
-542,-212,-822,0.98,-0.63,-4.13
-543,-207,-826,0.42,-0.91,-4.06
-543,-197,-820,-0.21,-1.12,-4.06
-538,-195,-817,-0.56,-1.26,-3.78
-528,-189,-816,-1.19,-1.68,-3.64
-518,-180,-818,-2.31,-1.68,-2.87
-519,-190,-825,-3.5,-1.54,-1.96
-515,-209,-836,-3.92,-1.26,-1.26
-513,-231,-848,-2.45,-0.7,-0.7
-520,-238,-855,0.28,-0.28,-0.14
-533,-236,-849,3.01,-0.07,0.63
-539,-225,-845,4.69,0.0,1.61
-534,-230,-844,5.67,0.21,1.75
-530,-225,-833,6.02,0.56,1.75
-532,-203,-824,5.67,0.7,2.03
-539,-177,-815,4.76,0.28,2.31
-541,-165,-810,2.38,0.14,2.87
-538,-182,-818,-0.28,0.21,3.08
-535,-198,-825,-1.54,0.14,2.73
-536,-210,-830,-1.61,0.21,2.73
-533,-217,-840,-0.7,-0.28,2.66
-528,-209,-848,0.7,-0.49,2.66
-528,-205,-837,1.68,-0.35,3.08
-528,-213,-833,1.68,-0.21,3.15
-526,-226,-835,1.47,-0.21,2.45
-526,-236,-838,1.96,-0.07,1.68
-530,-233,-843,3.22,-0.14,0.84
-533,-217,-836,3.85,-0.21,0.14
-537,-202,-822,3.43,-0.56,-0.63
-538,-196,-815,1.68,-0.84,-1.33
-531,-198,-829,0.49,-1.12,-2.31
-525,-208,-842,0.07,-0.91,-2.73
-530,-228,-846,-0.14,-0.42,-2.59
-539,-242,-848,0.56,-0.63,-2.8
-540,-259,-839,2.38,-0.77,-2.94
-539,-265,-829,4.97,-1.12,-3.29
-531,-230,-827,8.26,-2.1,-3.5
-523,-204,-823,9.87,-2.59,-2.87
-522,-182,-828,8.33,-3.01,-2.31
-526,-161,-841,5.25,-2.59,-2.17
-534,-162,-834,1.47,-1.54,-1.47
-546,-176,-825,-2.87,-0.63,-0.77
-560,-205,-816,-5.39,-0.91,-0.98
-571,-229,-809,-6.23,-1.89,-1.33
-569,-252,-815,-6.3,-3.43,-1.61
-553,-266,-825,-4.27,-4.76,-2.38
-535,-253,-836,-0.98,-5.88,-3.15
-519,-209,-849,1.68,-6.44,-3.36
-509,-180,-846,1.47,-5.46,-2.8
-510,-174,-830,-1.75,-3.71,-2.52
-515,-187,-823,-4.55,-2.38,-2.94
-513,-208,-814,-4.97,-1.68,-3.15
-511,-213,-806,-3.57,-1.4,-2.59
-512,-212,-808,-1.47,-1.82,-1.82
-507,-213,-809,0.0,-2.1,-0.98
-508,-211,-812,0.7,-2.24,-0.49
-514,-208,-826,1.82,-2.31,-0.21
-516,-210,-835,2.24,-1.47,0.7
-526,-214,-830,1.96,-0.35,1.47
-533,-224,-829,1.54,0.35,1.75
-533,-237,-836,1.47,0.35,1.26
-540,-230,-835,2.17,0.56,1.12
-541,-223,-831,2.52,0.7,1.54
-535,-230,-824,1.68,1.12,2.1
-536,-227,-821,1.4,1.33,2.03
-541,-215,-830,1.19,1.12,1.96
-535,-219,-834,0.84,1.33,2.38
-526,-224,-844,1.54,1.54,2.73
-528,-233,-850,2.8,2.03,3.29
-530,-234,-855,5.11,2.17,3.57
-533,-227,-851,6.93,2.31,3.99
-540,-219,-837,7.49,2.8,4.62
-533,-210,-824,7.42,2.8,5.04
-526,-212,-812,6.02,2.8,5.39
-531,-200,-809,4.97,2.59,5.25
-526,-167,-818,4.48,2.17,5.53
-518,-159,-816,2.8,2.66,6.86
-529,-179,-818,0.0,3.22,7.63
-532,-192,-829,-1.19,3.08,6.72
-534,-221,-827,-1.26,3.15,5.95
-535,-248,-832,-0.56,2.8,5.11
-530,-250,-838,1.4,1.96,3.99
-526,-221,-830,3.92,1.19,3.22
-525,-195,-821,3.99,0.7,3.08
-522,-188,-822,1.89,0.49,2.31
-517,-197,-821,-0.77,0.77,1.05
-521,-210,-821,-2.38,1.12,-0.21
-526,-211,-823,-2.52,0.56,-1.26
-533,-211,-825,-1.89,-0.21,-1.75
-537,-211,-825,-1.19,-1.05,-2.31
-534,-209,-835,-0.42,-1.89,-2.87
-527,-208,-844,0.0,-2.52,-3.36
-524,-196,-852,-0.28,-2.66,-3.43
-526,-192,-849,-1.68,-2.31,-3.29
-529,-210,-851,-3.78,-1.96,-3.64
-522,-228,-853,-4.97,-1.75,-4.69
-519,-231,-845,-4.62,-1.61,-5.46
-527,-233,-838,-3.78,-1.82,-5.67
-531,-226,-837,-2.24,-2.52,-5.95
-532,-207,-836,-0.56,-3.15,-5.95
-532,-200,-832,-0.21,-3.22,-5.6
-526,-191,-836,-0.98,-3.43,-5.74
-524,-189,-838,-1.89,-3.15,-5.67
-527,-195,-837,-2.94,-2.73,-5.46
-521,-198,-835,-3.99,-2.59,-5.46
-516,-208,-829,-5.18,-2.24,-5.11
-514,-220,-828,-5.74,-2.17,-5.32
-512,-236,-835,-5.11,-2.17,-6.02
-512,-229,-836,-3.36,-2.03,-6.16
-511,-216,-838,-1.68,-2.03,-5.81
-510,-219,-839,-1.19,-1.82,-5.46
-514,-225,-842,-0.84,-1.19,-5.46
-519,-222,-844,0.14,-1.05,-5.74
-525,-210,-833,0.28,-0.84,-5.32
-531,-211,-822,-1.4,-0.35,-4.2
-531,-228,-824,-2.94,-0.35,-3.85
-532,-233,-821,-2.66,-0.56,-3.92
-533,-232,-818,-2.24,-0.77,-3.01
-538,-233,-819,-2.87,-1.05,-1.96
-545,-226,-822,-2.87,-1.4,-1.33
-548,-219,-826,-2.73,-1.54,-0.63
-544,-230,-832,-2.73,-1.33,0.07
-537,-245,-838,-1.75,-1.19,0.28
-533,-247,-842,0.21,-1.47,0.28
-532,-239,-835,1.82,-1.61,0.49
-532,-228,-829,2.8,-1.68,0.84
-526,-214,-826,3.29,-1.82,1.05
-523,-198,-825,2.94,-1.75,1.47
-520,-198,-821,1.05,-1.4,2.1
-520,-220,-821,-1.75,-0.91,2.52
-523,-237,-824,-2.87,-0.91,2.03
-517,-237,-824,-1.96,-1.05,1.47
-519,-225,-816,-1.19,-0.91,1.61
-521,-223,-814,-0.98,-0.77,1.54
-523,-225,-814,-0.35,-0.84,0.98
-527,-231,-817,1.05,-0.91,0.49
-527,-238,-827,2.45,-1.12,0.14
-526,-239,-836,3.92,-1.26,-0.14
-534,-218,-835,4.97,-1.33,-0.07
-538,-204,-838,4.55,-1.33,0.07
-537,-194,-839,2.66,-0.98,0.07
-537,-195,-833,0.07,-0.28,0.35
-538,-216,-831,-2.03,0.14,0.49
-535,-233,-830,-3.29,0.14,0.35
-537,-244,-829,-3.08,0.0,0.35
-539,-254,-833,-1.61,-0.35,0.28
-540,-252,-836,0.42,-0.84,0.14
-538,-251,-837,2.45,-1.19,0.28
-539,-240,-838,3.57,-1.33,0.35
-542,-236,-839,3.36,-1.19,0.56
-546,-234,-834,2.94,-1.12,0.7
-547,-235,-827,1.89,-0.91,1.33
-541,-245,-824,1.12,-0.98,1.96
-536,-242,-824,0.91,-1.33,2.38
-535,-241,-834,0.77,-1.68,2.94
-533,-240,-852,0.98,-1.61,3.08
-527,-230,-849,2.17,-0.77,3.71
-527,-214,-838,3.22,-0.07,4.83
-522,-184,-828,3.85,-0.07,5.32
-516,-154,-816,3.5,0.21,6.23
-510,-145,-805,1.05,1.12,7.49
-506,-176,-799,-1.54,2.17,8.4
-509,-210,-805,-1.19,2.31,8.19
-518,-219,-806,0.35,1.89,8.33
-528,-220,-808,2.1,1.61,8.54
-536,-237,-809,2.87,1.33,8.47
-541,-242,-818,3.99,0.77,7.21
-543,-227,-827,6.09,0.0,6.09
-544,-200,-833,5.95,-0.21,5.6
-543,-185,-836,3.5,0.21,5.39
-539,-198,-835,0.63,0.98,4.97
-532,-207,-836,-0.35,1.05,3.71
-528,-196,-833,0.0,1.05,3.43
-529,-187,-821,-0.63,1.05,3.85
-529,-187,-817,-1.96,0.91,3.85
-531,-199,-820,-2.24,1.05,3.15
-527,-200,-824,-0.91,0.77,2.24
-519,-203,-826,0.35,0.35,2.03
-518,-217,-830,1.19,0.21,1.75
-522,-210,-841,2.52,-0.21,0.7
-517,-199,-844,3.71,-0.56,-0.28
-514,-208,-840,2.59,-0.21,-0.56
-526,-223,-843,-0.07,-0.14,-1.47
-545,-215,-853,-1.12,-0.56,-3.08
-546,-192,-861,-1.05,-0.91,-3.71
-543,-175,-858,-2.94,-0.42,-2.94
-543,-185,-848,-6.02,0.35,-2.03
-549,-212,-843,-8.33,0.56,-1.75
-548,-224,-837,-8.82,0.14,-2.24
-545,-228,-823,-8.26,-0.42,-2.17
-538,-233,-818,-7.56,-1.54,-1.96
-535,-241,-823,-5.81,-2.52,-1.75
-537,-247,-829,-2.73,-3.29,-1.61
-526,-229,-837,0.77,-4.06,-1.19
-512,-211,-850,3.99,-4.41,-0.07
-500,-202,-857,5.46,-4.27,1.54
-501,-197,-858,5.11,-3.85,2.66
-505,-198,-853,3.64,-3.22,3.29
-507,-201,-850,1.33,-2.94,3.78
-510,-189,-847,-1.89,-2.31,4.55
-516,-202,-844,-4.2,-1.12,5.39
-521,-226,-831,-5.39,-0.14,6.16
-524,-249,-822,-3.43,0.28,6.51
-532,-250,-815,1.05,-0.42,7.0
-531,-221,-807,5.04,-1.4,7.42
-533,-203,-813,7.0,-1.75,7.42
-532,-204,-814,7.14,-1.33,6.58
-530,-202,-814,6.44,-0.84,5.6
-524,-193,-824,5.95,-0.77,5.11
-518,-178,-834,5.18,-0.42,4.97
-520,-173,-831,3.29,0.42,5.67
-525,-199,-827,1.12,1.4,5.74
-535,-239,-816,0.49,1.89,4.97
-546,-238,-819,2.1,1.4,4.55
-551,-222,-821,3.92,0.28,4.55
-559,-207,-823,4.97,0.07,4.69
-561,-197,-827,5.67,0.28,4.69
-558,-193,-819,6.37,0.35,4.97
-556,-196,-814,6.44,0.35,5.32
-550,-200,-807,6.23,-0.07,5.32
-549,-199,-804,5.95,-0.21,5.11
-546,-209,-812,6.02,-0.7,4.69
-537,-214,-814,6.16,-1.05,4.55
-532,-222,-815,6.16,-1.33,4.83
-534,-213,-828,6.44,-1.96,4.62
-536,-182,-838,7.14,-2.73,4.62
-541,-152,-844,6.79,-2.87,5.11
-544,-140,-843,4.41,-2.45,5.39
-545,-133,-841,1.19,-1.75,5.39
-539,-155,-847,-1.89,-0.98,5.18
-531,-208,-856,-4.2,-0.63,3.92
-530,-228,-855,-4.41,-0.14,2.94
-531,-229,-850,-1.26,-0.56,2.38
-525,-206,-853,2.59,-1.54,2.03
-525,-179,-844,3.64,-1.68,2.59
-534,-171,-831,2.31,-1.12,2.8
-540,-185,-826,0.56,-1.05,1.82
-540,-201,-828,-0.91,-0.98,0.98
-543,-208,-832,-0.7,-1.33,0.28
-542,-202,-829,0.21,-1.4,0.14
-536,-207,-829,1.05,-1.54,-0.14
-533,-217,-831,1.82,-1.82,-0.56
-532,-226,-835,2.66,-2.31,-1.33
-537,-219,-841,3.08,-2.73,-1.82
-541,-204,-846,3.29,-2.73,-2.17
-539,-187,-840,2.66,-2.03,-2.24
-536,-177,-828,1.54,-1.12,-2.1
-533,-180,-816,0.28,-0.42,-1.61
-530,-200,-810,-0.56,0.0,-1.19
-530,-222,-803,-0.07,-0.35,-0.98
-532,-238,-802,1.89,-0.98,-0.77
-532,-232,-812,4.62,-2.38,-0.84
-529,-206,-823,5.67,-3.15,-0.21
-528,-192,-837,4.13,-2.52,0.84
-534,-202,-839,1.61,-1.33,1.4
-542,-203,-833,-0.35,-0.49,1.05
-546,-205,-826,-1.33,-0.28,0.7
-544,-216,-818,-3.01,-0.21,0.63
-547,-235,-821,-3.99,-0.28,0.21
-544,-247,-821,-3.01,-0.56,-0.84
-534,-249,-823,-0.98,-0.98,-1.47
-534,-238,-827,0.77,-1.61,-1.54
-538,-228,-826,1.54,-1.96,-1.4
-540,-216,-822,1.47,-1.82,-1.54
-532,-200,-819,1.61,-1.89,-1.82
-527,-195,-815,1.96,-1.82,-1.82
-532,-186,-806,1.26,-1.61,-1.4
-534,-190,-804,0.14,-1.89,-1.05
-531,-205,-816,-0.84,-2.17,-1.26
-540,-214,-827,-0.63,-2.03,-1.4
-544,-217,-827,0.14,-1.96,-0.84
-540,-223,-835,0.42,-2.1,-0.56
-539,-221,-841,0.77,-2.03,-0.56
-540,-208,-838,0.63,-1.75,-0.49
-540,-196,-836,0.35,-1.47,-0.28
-542,-192,-829,-0.63,-0.84,0.56
-546,-207,-825,-1.75,-0.21,1.47
-545,-227,-821,-1.96,-0.07,1.47
-542,-241,-825,-1.05,-0.35,1.26
-541,-237,-829,0.7,-0.77,1.12
-541,-232,-834,2.38,-1.05,1.54
-538,-230,-843,3.43,-1.12,1.96
-539,-216,-839,3.08,-0.98,2.17
-548,-205,-834,1.89,-0.49,2.1
-556,-197,-823,0.07,-0.14,1.75
-557,-198,-812,-0.7,0.07,1.75
-548,-201,-799,-0.98,-0.07,2.03
-536,-208,-795,-0.98,-0.84,1.96
-536,-214,-803,-1.47,-1.54,1.75
-538,-221,-814,-0.7,-2.03,1.19
-541,-211,-821,1.33,-2.24,0.91
-540,-210,-824,3.5,-2.31,1.33
-538,-204,-833,5.95,-2.31,1.54
-533,-179,-835,7.63,-2.73,1.33
-531,-170,-833,6.65,-2.31,1.54
-530,-189,-833,3.22,-1.96,0.98
-535,-208,-834,-0.07,-1.4,0.14
-543,-229,-831,-0.91,-0.98,-0.84
-544,-225,-822,-0.63,-1.05,-1.47
-550,-214,-809,-0.84,-1.26,-1.61
-560,-210,-796,-1.19,-2.24,-2.31
-557,-195,-807,-1.05,-3.15,-3.22
-545,-187,-806,-0.35,-3.29,-3.01
-542,-193,-805,-0.49,-3.78,-2.59
-542,-205,-819,-1.19,-3.85,-2.66
-542,-220,-832,-1.54,-3.85,-3.29
-539,-220,-844,-1.19,-3.78,-4.27
-544,-220,-850,-0.77,-3.36,-4.41
-546,-218,-847,-1.26,-2.66,-3.78
-551,-231,-838,-1.68,-2.17,-3.64
-555,-245,-827,-1.33,-2.1,-3.99
-557,-241,-817,-0.49,-2.52,-4.41
-563,-229,-811,0.77,-3.01,-4.48
-566,-223,-807,1.47,-3.22,-4.27
-568,-223,-808,1.4,-3.5,-3.99
-570,-226,-810,1.26,-3.85,-4.13
-567,-221,-808,0.91,-4.27,-4.27
-565,-218,-814,0.28,-4.62,-4.48
-553,-217,-824,-0.56,-4.48,-4.55
-540,-232,-826,-1.12,-3.22,-4.2
-527,-246,-828,-0.49,-2.1,-3.71
-515,-239,-823,1.54,-1.54,-3.43
-515,-230,-817,3.57,-1.12,-2.31
-520,-236,-814,4.55,-0.63,-1.05
-526,-245,-814,5.32,0.0,-0.14
-532,-244,-820,7.28,0.28,0.63
-537,-228,-822,8.75,0.49,1.89
-547,-224,-825,8.33,1.05,3.43
-555,-224,-830,6.65,1.68,4.41
-563,-222,-834,5.67,2.73,5.32
-566,-223,-832,5.6,3.36,6.72
-565,-217,-824,5.67,4.06,8.47
-561,-217,-813,5.67,4.62,10.22
-563,-223,-803,6.02,4.9,11.34
-558,-221,-795,6.93,4.83,12.18
-551,-228,-788,7.56,4.83,13.3
-548,-239,-789,8.4,4.76,13.86
-546,-220,-789,10.01,4.2,13.93
-539,-172,-787,11.34,4.13,14.63
-531,-158,-773,10.43,4.76,16.31
-528,-179,-760,7.42,5.6,17.78
-528,-218,-762,6.16,5.46,17.71
-526,-240,-780,7.91,4.48,16.87
-523,-255,-798,9.17,3.92,16.73
-528,-277,-822,9.59,3.92,15.89
-536,-272,-841,11.2,4.13,14.21
-533,-247,-839,13.79,4.69,13.37
-528,-226,-831,14.42,5.67,13.72
-538,-216,-822,12.81,6.3,14.0
-552,-209,-821,10.29,6.65,14.0
-569,-212,-820,8.47,6.86,13.51
-581,-220,-817,7.14,6.79,13.02
-584,-220,-817,6.37,6.51,12.6
-578,-220,-818,6.02,5.88,12.04
-574,-228,-815,5.04,5.18,11.27
-575,-250,-813,3.71,4.69,10.29
-573,-270,-818,4.13,3.99,8.89
-568,-265,-810,6.79,2.73,7.56
-558,-234,-804,9.66,1.26,7.0
-555,-203,-808,10.29,-0.07,6.79
-552,-178,-797,7.56,-0.56,6.58
-552,-179,-792,3.92,-0.77,6.02
-552,-201,-796,1.05,-1.19,5.11
-547,-212,-800,0.0,-1.54,4.27
-546,-209,-805,0.77,-2.17,3.43
-546,-196,-813,1.33,-2.8,2.45
-549,-187,-810,0.21,-3.08,1.68
-563,-200,-814,-0.98,-3.29,1.05
-570,-209,-821,-0.91,-4.13,0.0
-562,-212,-820,-0.35,-4.55,-0.63
-546,-223,-821,0.28,-5.04,-1.68
-531,-225,-828,0.28,-4.97,-3.36
-517,-224,-842,0.84,-4.9,-4.97
-507,-209,-844,1.47,-4.55,-5.46
-506,-191,-854,2.31,-3.71,-4.83
-518,-207,-859,2.59,-2.66,-3.57
-524,-223,-851,2.24,-1.33,-2.8
-535,-237,-839,2.66,-1.19,-3.29
-542,-219,-826,2.59,-1.96,-4.13
-538,-197,-828,1.4,-2.24,-4.69
-526,-186,-831,-1.05,-2.03,-4.9
-511,-184,-832,-3.92,-1.33,-4.69
-507,-186,-844,-5.88,-0.98,-4.2
-513,-185,-846,-7.42,-0.84,-3.43
-525,-184,-845,-8.61,-0.21,-2.38
-526,-188,-847,-8.4,0.21,-1.75
-517,-205,-837,-7.63,0.7,-1.19
-514,-222,-823,-6.79,1.05,-0.91
-520,-225,-821,-5.04,0.35,-1.4
-529,-212,-815,-3.36,-0.56,-1.82
-535,-194,-807,-2.45,-1.47,-1.96
-539,-192,-808,-3.15,-2.45,-2.31
-543,-204,-811,-5.18,-3.22,-3.01
-552,-223,-814,-7.28,-3.99,-3.99
-558,-250,-826,-9.1,-5.11,-5.67
-561,-254,-842,-9.03,-6.23,-7.84
-554,-232,-848,-7.98,-6.86,-9.03
-545,-227,-851,-8.61,-6.79,-9.38
-541,-234,-851,-10.01,-6.37,-10.15
-544,-220,-851,-9.66,-6.16,-11.34
-542,-207,-842,-9.03,-6.23,-11.69
-539,-196,-830,-9.94,-6.02,-11.55
-540,-204,-826,-11.34,-5.74,-11.62
-546,-219,-835,-11.2,-5.74,-12.25
-544,-221,-835,-10.08,-5.74,-12.53
-543,-224,-830,-9.03,-5.74,-12.11
-540,-229,-828,-8.26,-5.67,-11.69
-538,-242,-838,-6.58,-5.6,-11.83
-535,-229,-839,-4.83,-5.46,-11.69
-529,-209,-836,-3.36,-5.25,-10.99
-522,-208,-848,-3.57,-4.69,-10.01
-524,-213,-858,-4.97,-3.29,-9.45
-530,-208,-859,-5.74,-1.68,-8.96
-526,-201,-850,-5.81,-0.28,-8.26
-523,-200,-834,-6.23,1.05,-7.07
-524,-190,-820,-6.58,2.31,-5.88
-523,-197,-801,-6.72,3.08,-5.11
-530,-227,-771,-8.19,3.85,-4.13
-553,-253,-763,-8.4,3.43,-3.99
-576,-264,-753,-6.51,1.54,-4.2
-590,-264,-749,-4.41,-0.56,-3.78
-597,-257,-763,-3.43,-2.66,-3.36
-599,-252,-784,-3.01,-4.13,-3.29
-600,-251,-800,-3.43,-4.69,-3.43
-607,-255,-808,-4.2,-4.97,-3.71
-599,-259,-816,-5.11,-5.18,-4.2
-585,-258,-825,-5.32,-5.46,-5.04
-574,-245,-829,-4.55,-5.46,-5.53
-566,-230,-824,-3.64,-5.18,-5.53
-555,-226,-814,-3.22,-4.83,-4.9
-543,-228,-806,-3.22,-4.9,-4.55
-533,-223,-801,-2.87,-5.46,-4.34
-522,-214,-808,-2.66,-5.67,-3.71
-515,-203,-813,-3.08,-5.46,-3.08
-519,-197,-805,-4.41,-4.62,-1.75
-531,-211,-808,-5.74,-4.13,-1.12
-541,-221,-807,-6.02,-3.99,-1.19
-547,-232,-813,-5.11,-3.85,-1.12
-546,-242,-824,-3.57,-3.92,-1.19
-548,-241,-827,-1.26,-3.71,-1.12
-551,-244,-827,0.84,-3.85,-1.19
-552,-252,-831,1.54,-4.06,-1.61
-554,-234,-828,2.24,-4.06,-2.38
-570,-205,-817,2.31,-4.2,-2.45
-592,-191,-805,0.91,-4.69,-2.03
-600,-186,-795,-1.75,-5.18,-1.47
-598,-211,-796,-4.34,-5.46,-1.54
-591,-267,-797,-6.58,-5.88,-2.87
-586,-300,-811,-6.79,-6.37,-5.6
-590,-316,-825,-4.27,-7.0,-8.61
-604,-292,-816,-0.63,-7.84,-11.06
-623,-233,-799,1.68,-8.68,-11.62
-618,-196,-804,2.17,-9.87,-11.55
-602,-187,-809,0.7,-9.87,-10.92
-595,-194,-815,-1.68,-9.1,-9.87
-584,-201,-818,-4.2,-8.68,-9.24
-576,-210,-814,-6.3,-7.77,-8.96
-578,-232,-814,-7.84,-6.72,-8.54
-585,-251,-807,-6.79,-6.09,-8.61
-583,-234,-788,-3.29,-5.95,-8.89
-578,-200,-774,-0.42,-6.65,-8.89
-569,-157,-764,-0.35,-6.86,-8.4
-570,-146,-761,-2.38,-6.09,-7.28
-564,-169,-779,-3.36,-5.39,-6.3
-560,-181,-787,-2.52,-4.69,-5.32
-556,-178,-786,-0.56,-4.41,-3.57
-549,-176,-787,0.63,-4.2,-1.61
-547,-191,-799,0.84,-3.08,-0.14
-544,-211,-812,2.59,-2.24,0.49
-535,-210,-812,6.23,-1.33,1.75
-527,-200,-806,9.8,-0.49,3.64
-527,-184,-800,11.97,0.35,5.88
-527,-162,-802,13.09,0.98,7.42
-521,-123,-804,12.95,1.96,8.96
-504,-96,-795,10.29,3.64,11.48
-496,-103,-798,5.67,5.88,14.49
-506,-113,-808,2.24,7.56,16.59
-528,-119,-795,-0.21,9.17,18.62
-539,-145,-783,-2.52,9.87,20.09
-546,-172,-785,-3.43,10.08,20.79
-567,-168,-783,-1.47,9.8,21.35
-601,-134,-762,1.47,8.4,22.61
-625,-129,-734,1.61,6.58,24.78
-610,-216,-723,-1.96,4.48,24.99
-541,-338,-787,-4.2,1.61,20.37
-462,-399,-885,0.56,0.0,12.88
-446,-412,-926,7.63,1.26,7.98
-496,-373,-935,12.95,2.45,5.04
-537,-236,-930,17.36,2.8,2.73
-558,-83,-889,18.2,3.64,3.64
-563,7,-840,10.57,5.25,7.14
-575,23,-816,-2.38,7.14,10.22
-578,-20,-821,-14.0,8.47,11.13
-580,-107,-830,-21.98,8.75,10.78
-585,-196,-844,-25.41,8.19,10.5
-581,-261,-869,-22.96,6.44,9.31
-579,-295,-877,-15.54,4.2,7.28
-590,-281,-865,-6.79,2.1,5.18
-596,-245,-852,0.07,0.63,3.29
-594,-215,-831,3.71,-0.21,0.91
-584,-181,-809,3.64,-0.35,-1.12
-569,-168,-789,1.19,-0.7,-2.87
-540,-180,-776,-2.38,-1.19,-4.48
-524,-192,-776,-4.9,-1.96,-6.09
-518,-177,-791,-5.46,-3.22,-7.28
-521,-162,-800,-6.86,-3.71,-7.49
-526,-165,-803,-9.8,-3.22,-7.77
-543,-196,-798,-12.11,-2.66,-8.75
-567,-242,-802,-11.83,-2.59,-10.29
-583,-270,-805,-7.98,-3.57,-11.97
-589,-279,-798,-3.15,-4.76,-12.95
-591,-272,-808,0.77,-6.3,-14.21
-585,-231,-830,3.08,-7.63,-15.61
-581,-195,-842,2.8,-7.42,-16.03
-579,-170,-845,0.14,-6.23,-15.75
-577,-165,-840,-3.64,-4.9,-14.98
-578,-174,-831,-7.21,-3.71,-14.14
-579,-179,-825,-9.52,-3.29,-13.3
-576,-184,-817,-10.64,-3.29,-12.25
-571,-188,-810,-11.06,-3.36,-11.06
-563,-178,-804,-11.06,-3.71,-9.94
-554,-171,-798,-10.99,-3.78,-8.61
-551,-171,-788,-10.85,-3.5,-6.93
-558,-181,-780,-9.94,-3.29,-5.32
-554,-205,-776,-8.33,-3.36,-3.99
-547,-230,-787,-5.67,-3.71,-3.22
-540,-233,-807,-1.05,-4.27,-2.87
-537,-212,-822,3.64,-4.34,-2.03
-539,-189,-829,5.53,-3.85,-0.77
-536,-178,-829,4.83,-2.66,0.56
-533,-181,-829,3.15,-1.33,0.77
-534,-179,-832,1.47,-0.07,0.49
-534,-171,-833,0.28,1.47,0.77
-541,-161,-822,-0.77,2.8,1.61
-552,-176,-812,-2.45,3.43,2.59
-566,-203,-813,-3.43,3.5,2.59
-577,-210,-816,-2.52,2.87,1.89
-583,-196,-814,-0.42,2.17,1.61
-586,-193,-816,1.05,1.75,1.75
-584,-202,-820,0.98,1.61,1.82
-589,-215,-821,0.84,1.61,1.05
-586,-219,-829,1.68,1.19,0.0
-576,-215,-824,2.38,0.98,-0.63
-573,-201,-816,2.31,0.77,-0.49
-569,-188,-810,1.54,0.35,-0.49
-567,-176,-810,0.7,0.14,-0.56
-567,-159,-800,-0.49,0.21,-0.35
-570,-151,-792,-2.31,0.21,0.21
-564,-158,-796,-4.2,-0.07,0.49
-557,-176,-802,-5.25,-0.07,0.7
-552,-200,-802,-5.39,0.07,0.98
-544,-222,-810,-3.78,-0.42,0.7
-534,-231,-820,-0.84,-1.05,0.0
-535,-225,-823,1.89,-1.12,-0.35
-538,-223,-821,3.5,-0.98,-0.35
-539,-217,-827,4.76,-0.84,-0.7
-541,-207,-834,6.23,-0.49,-0.91
-553,-190,-830,6.51,0.07,-0.84
-565,-176,-826,5.04,0.35,-0.7
-576,-174,-822,2.59,0.35,-0.91
-585,-179,-813,-0.28,0.35,-1.19
-589,-196,-807,-2.87,0.0,-1.54
-587,-217,-803,-4.41,-0.49,-2.17
-589,-234,-802,-4.48,-1.26,-2.94
-594,-235,-810,-3.36,-2.52,-4.41
-594,-223,-812,-1.75,-3.57,-5.39
-590,-223,-811,-0.49,-4.13,-5.81
-584,-216,-815,0.84,-4.69,-6.51
-573,-183,-808,2.38,-5.25,-6.93
-569,-152,-800,2.24,-5.6,-6.65
-558,-130,-803,0.21,-5.81,-6.37
-548,-126,-806,-2.66,-5.18,-5.74
-541,-127,-817,-4.9,-4.48,-4.9
-527,-133,-824,-6.23,-3.71,-3.85
-519,-152,-823,-7.07,-2.52,-2.52
-520,-185,-820,-7.07,-1.33,-1.4
-524,-211,-822,-5.32,-0.84,-1.26
-531,-212,-817,-1.68,-0.63,-1.12
-539,-200,-812,2.1,-0.63,-0.42
-541,-189,-810,4.2,-0.56,0.42
-542,-186,-807,4.62,-0.07,1.19
-549,-187,-811,4.41,0.21,1.26
-555,-181,-821,3.99,0.35,1.33
-558,-174,-831,3.22,0.77,2.03
-558,-173,-841,1.82,1.47,2.8
-558,-186,-840,-0.14,2.45,3.29
-566,-195,-830,-1.75,3.08,3.5
-582,-191,-818,-1.68,2.87,3.71
-588,-171,-809,-0.98,1.96,4.41
-583,-158,-805,-0.49,1.12,5.81
-578,-176,-799,-0.91,0.7,6.44
-562,-221,-811,-1.75,0.07,5.32
-543,-254,-831,-1.33,-0.35,2.94
-539,-247,-840,1.19,-0.84,0.49
-547,-198,-837,3.71,-1.26,-0.42
-551,-152,-828,3.22,-1.12,-0.14
-556,-148,-812,0.35,-0.35,0.14
-565,-173,-805,-2.24,0.0,-0.63
-573,-193,-808,-2.94,-0.28,-1.82
-574,-199,-815,-2.17,-1.05,-2.59
-571,-197,-814,-1.4,-1.82,-3.15
-568,-195,-813,-1.19,-2.45,-3.99
-564,-191,-818,-1.05,-3.01,-5.32
-561,-182,-825,-0.91,-3.29,-6.58
-559,-167,-822,-1.47,-3.22,-7.28
-561,-162,-820,-2.87,-2.87,-7.28
-560,-176,-817,-4.41,-2.31,-7.21
-557,-182,-816,-4.62,-2.31,-7.49
-547,-178,-820,-3.43,-2.52,-7.35
-541,-172,-819,-2.8,-2.52,-6.3
-540,-175,-818,-3.08,-2.24,-5.18
-541,-185,-820,-3.01,-1.82,-4.55
-540,-195,-822,-2.45,-1.47,-4.34
-542,-201,-822,-1.68,-1.12,-3.92
-546,-200,-821,-0.77,-0.77,-3.22
-550,-199,-821,0.07,-0.49,-2.8
-555,-203,-821,0.42,-0.42,-2.45
-559,-202,-820,0.49,-0.28,-1.89
-564,-193,-822,0.77,-0.28,-1.26
-568,-191,-822,0.49,-0.21,-0.7
-568,-193,-823,-0.28,0.07,-0.35
-572,-195,-821,-1.47,0.49,-0.07
-575,-205,-809,-1.68,0.63,0.07
-578,-220,-800,-1.61,0.14,-0.14
-573,-213,-803,-0.14,-0.77,-0.7
-564,-203,-805,1.61,-1.4,-0.63
-557,-202,-810,2.1,-1.82,-0.56
-551,-202,-815,1.96,-1.89,-0.56
-548,-203,-817,1.89,-1.75,-0.77
-544,-201,-819,1.61,-1.61,-0.98
-546,-200,-815,1.54,-1.26,-1.05
-554,-201,-812,1.96,-0.98,-0.98
-557,-197,-813,2.73,-0.98,-0.91
-554,-186,-817,3.29,-1.05,-0.63
-556,-181,-818,2.87,-0.91,-0.42
-560,-184,-821,1.89,-0.42,-0.28
-561,-186,-819,1.12,0.0,-0.28
-560,-191,-814,0.7,0.21,-0.21
-559,-198,-808,0.35,0.42,-0.07
-561,-202,-807,0.7,0.21,-0.07
-558,-195,-811,1.61,-0.14,0.07
-552,-192,-815,2.52,-0.35,0.42
-548,-198,-821,2.8,-0.35,0.91
-547,-205,-828,3.36,-0.21,1.12
-550,-210,-832,4.41,0.0,1.4
-554,-216,-832,5.18,0.07,1.82
-556,-223,-831,6.02,0.07,2.1
-557,-229,-830,6.65,-0.14,2.24
-553,-218,-837,7.07,0.0,2.31
-555,-200,-825,6.65,0.21,2.52
-557,-191,-815,5.11,0.35,2.94
-551,-197,-808,3.01,0.77,2.87
-555,-202,-801,1.26,1.19,2.38
-560,-211,-800,0.98,0.91,1.61
-558,-212,-799,1.4,0.49,0.98
-561,-211,-800,2.17,0.07,0.77
-569,-215,-808,3.15,-0.56,0.28
-568,-201,-817,4.62,-1.33,-0.35
-560,-171,-822,5.46,-1.68,-0.49
-547,-157,-824,4.62,-1.4,-0.63
-541,-166,-822,1.89,-0.49,-0.91
-542,-166,-823,-0.56,0.42,-1.68
-540,-163,-817,-1.61,0.98,-2.24
-542,-162,-810,-2.38,1.33,-2.24
-544,-173,-807,-2.87,1.54,-2.03
-553,-184,-807,-2.52,1.54,-2.38
-559,-182,-812,-1.33,1.12,-3.01
-568,-184,-813,-0.63,0.84,-3.08
-575,-191,-817,-0.56,0.56,-3.01
-579,-179,-818,-0.35,0.14,-3.29
-582,-163,-818,-0.49,-0.14,-3.71
-589,-160,-818,-2.45,-0.21,-4.2
-592,-163,-815,-5.53,-0.14,-5.04
-592,-178,-803,-8.47,-0.35,-5.95
-599,-204,-794,-10.71,-0.91,-7.14
-597,-223,-807,-11.27,-2.66,-8.68
-580,-215,-819,-10.08,-4.34,-9.59
-556,-222,-826,-8.19,-5.11,-9.45
-541,-234,-832,-7.91,-5.32,-9.24
-535,-245,-830,-7.7,-5.32,-9.38
-538,-256,-819,-7.07,-5.53,-9.73
-535,-247,-822,-5.53,-6.23,-10.01
-523,-230,-823,-3.57,-6.23,-9.45
-517,-214,-820,-2.8,-5.53,-8.33
-514,-207,-822,-3.15,-4.76,-7.63
-519,-211,-821,-4.2,-4.06,-7.14
-533,-214,-816,-4.9,-3.64,-6.86
-542,-221,-816,-4.55,-3.43,-6.37
-538,-230,-812,-3.78,-3.43,-5.74
-540,-229,-812,-2.59,-3.78,-5.18
-543,-221,-822,-1.05,-4.27,-4.76
-545,-218,-830,-0.14,-4.27,-3.92
-547,-213,-832,0.49,-4.06,-3.15
-550,-200,-828,0.56,-3.5,-2.45
-552,-196,-819,-0.28,-3.15,-2.24
-555,-197,-810,-2.31,-2.73,-2.45
-555,-219,-805,-4.34,-2.1,-3.08
-562,-251,-807,-4.62,-1.89,-4.13
-565,-259,-815,-2.45,-2.38,-4.9
-566,-248,-818,0.35,-2.87,-5.04
-565,-235,-812,1.82,-3.22,-4.76
-564,-229,-807,1.89,-3.15,-4.69
-566,-213,-811,2.17,-2.87,-5.04
-579,-203,-795,2.73,-2.59,-5.04
-588,-205,-780,1.19,-3.08,-4.62
-577,-213,-780,-0.63,-3.43,-5.18
-589,-213,-758,-2.38,-3.57,-6.02
-608,-190,-746,-2.38,-4.55,-6.44
-613,-184,-749,-1.19,-6.23,-6.09
-594,-189,-753,-2.8,-7.49,-5.04
-579,-201,-772,-5.18,-8.05,-4.62
-579,-221,-790,-5.88,-7.91,-4.48
-580,-239,-811,-6.09,-8.12,-4.76
-574,-237,-826,-5.88,-8.12,-5.18
-576,-234,-835,-4.76,-7.7,-5.18
-573,-219,-839,-3.29,-7.42,-5.18
-561,-205,-837,-1.96,-6.93,-4.83
-554,-208,-837,-1.47,-5.81,-4.06
-548,-215,-842,-0.91,-4.48,-3.29
-545,-214,-841,-0.14,-3.36,-2.52
-538,-192,-831,0.21,-2.66,-1.54
-534,-180,-832,0.0,-1.61,-0.21
-536,-170,-827,-0.28,-0.28,0.56
-542,-157,-802,-0.84,1.19,1.89
-549,-171,-783,-1.54,1.89,2.8
-557,-190,-771,-1.54,1.89,3.15
-567,-212,-781,0.28,1.33,3.22
-569,-229,-802,3.15,0.14,3.15
-564,-225,-810,4.06,-0.49,3.08
-568,-217,-812,3.5,-0.7,2.45
-575,-207,-808,2.45,-0.84,1.47
-581,-195,-807,1.75,-0.63,0.56
-577,-187,-798,1.19,-0.56,0.14
-579,-171,-786,-0.14,-0.42,0.07
-588,-175,-779,-2.52,-0.91,-0.21
-594,-191,-770,-4.9,-1.61,-1.19
-599,-208,-775,-5.81,-2.66,-2.52
-603,-226,-797,-4.76,-3.92,-3.64
-587,-223,-822,-2.87,-4.76,-4.55
-576,-214,-835,-1.33,-4.97,-5.04
-574,-199,-830,-1.19,-4.83,-5.6
-572,-197,-820,-2.52,-4.69,-6.37
-571,-200,-815,-3.99,-4.69,-7.42
-573,-194,-813,-4.9,-4.48,-8.33
-572,-191,-814,-6.09,-4.2,-8.75
-565,-207,-824,-7.14,-3.71,-9.45
-556,-215,-829,-6.79,-3.15,-10.43
-560,-208,-822,-5.88,-3.08,-10.99
-562,-202,-813,-5.88,-3.08,-10.99
-562,-204,-807,-5.32,-3.36,-11.2
-554,-212,-815,-4.34,-3.36,-11.41
-554,-216,-808,-3.5,-2.59,-11.2
-558,-216,-809,-2.38,-2.38,-10.57
-555,-208,-797,-2.03,-2.94,-9.8
-558,-200,-793,-1.82,-3.08,-8.61
-558,-190,-793,-1.89,-3.15,-7.35
-556,-179,-787,-3.08,-2.73,-5.81
-554,-191,-799,-4.13,-2.1,-4.83
-551,-199,-809,-5.18,-1.26,-4.34
-555,-210,-805,-5.39,-0.63,-3.85
-566,-223,-806,-4.41,-0.49,-3.64
-577,-232,-806,-1.89,-0.77,-3.57
-583,-234,-807,1.61,-1.4,-3.01
-584,-229,-827,5.11,-2.1,-2.87
-587,-195,-823,6.93,-2.31,-2.59
-593,-176,-807,5.6,-2.24,-1.61
-584,-185,-812,2.52,-2.45,-1.89
-573,-197,-805,-0.28,-2.24,-2.59
-568,-207,-807,-1.82,-2.03,-2.87
-562,-212,-815,-1.82,-2.31,-3.29
-558,-202,-819,-1.19,-2.38,-3.08
-566,-203,-830,-0.35,-2.1,-2.66
-569,-197,-824,0.42,-1.82,-2.1
-568,-200,-824,1.47,-1.68,-1.47
-567,-196,-815,2.59,-1.75,-1.05
-569,-190,-798,2.24,-1.68,-0.35
-567,-197,-790,0.7,-1.75,-0.42
-564,-211,-787,-0.7,-1.75,-1.19
-564,-228,-792,-1.54,-1.96,-1.82
-558,-242,-804,-1.54,-2.24,-2.73
-559,-238,-805,-0.77,-2.31,-3.36
-566,-231,-797,-0.49,-2.38,-3.71
-570,-224,-797,-0.28,-2.73,-4.2
-569,-215,-796,0.07,-2.94,-4.55
-568,-205,-796,-0.14,-2.8,-4.76
-578,-210,-795,-1.05,-2.66,-4.9
-589,-235,-792,-1.54,-2.66,-5.39
-591,-250,-808,-0.28,-3.29,-6.3
-579,-248,-819,2.17,-3.99,-6.86
-576,-232,-818,4.06,-3.99,-6.72
-574,-216,-810,3.99,-4.06,-6.3
-575,-204,-803,2.94,-3.92,-6.58
-572,-193,-797,1.33,-3.71,-6.58
-567,-191,-795,-0.49,-3.15,-5.88
-560,-206,-806,-1.54,-2.45,-5.18
-559,-210,-815,-1.89,-1.82,-4.62
-564,-229,-818,-1.54,-1.26,-4.2
-572,-248,-827,-0.49,-0.7,-3.99
-577,-246,-826,1.54,-0.49,-3.5
-578,-234,-813,3.92,-0.49,-3.01
-580,-221,-803,4.83,-0.49,-2.73
-579,-215,-794,3.64,-0.28,-2.73
-578,-225,-786,1.4,-0.07,-3.36
-580,-224,-783,-1.33,0.0,-3.92
-582,-228,-774,-3.36,-0.14,-3.99
-592,-242,-762,-5.39,-0.35,-3.78
-587,-254,-764,-6.51,-0.98,-3.99
-572,-263,-772,-5.11,-1.4,-4.06
-563,-260,-780,-2.03,-1.82,-3.57
-553,-246,-792,1.19,-2.1,-2.66
-556,-226,-799,4.34,-2.24,-2.38
-569,-208,-790,5.67,-2.1,-2.03
-579,-208,-774,4.76,-2.17,-1.96
-582,-213,-775,3.5,-2.66,-2.03
-586,-211,-771,1.82,-3.29,-1.96
-584,-211,-778,-1.26,-3.36,-1.54
-570,-229,-794,-4.13,-3.01,-1.47
-563,-249,-805,-5.46,-2.38,-1.54
-567,-260,-806,-4.9,-2.1,-1.47
-573,-256,-809,-3.15,-2.1,-1.47
-565,-252,-815,-0.84,-2.1,-1.75
-568,-241,-804,1.61,-1.68,-1.89
-580,-226,-787,3.57,-1.68,-1.75
-581,-228,-787,4.76,-2.24,-1.68
-569,-235,-788,4.69,-2.66,-1.47
-562,-241,-799,3.92,-2.31,-1.54
-563,-248,-803,2.52,-1.82,-1.82
-568,-249,-804,0.63,-1.33,-1.82
-568,-258,-803,-0.56,-0.91,-2.17
-577,-258,-789,-1.4,-0.28,-2.52
-588,-254,-775,-1.75,-0.35,-2.59
-583,-249,-774,-1.96,-1.05,-2.66
-576,-247,-781,-1.68,-1.61,-2.73
-584,-245,-780,-1.19,-1.68,-2.24
-590,-261,-789,-0.77,-1.75,-1.75
-582,-271,-805,0.07,-2.03,-2.1
-582,-260,-804,1.26,-1.89,-2.31
-595,-251,-805,2.1,-1.75,-2.17
-598,-245,-805,1.68,-1.54,-2.66
-596,-250,-794,1.19,-1.12,-3.43
-592,-246,-785,0.63,-1.26,-4.06
-586,-243,-770,-0.42,-1.47,-4.41
-587,-242,-746,-1.33,-2.03,-4.27
-581,-241,-757,-1.19,-3.08,-3.92
-558,-242,-774,-0.35,-3.71,-3.43
-552,-230,-787,0.07,-3.57,-2.1
-558,-228,-812,0.84,-3.08,-1.12
-567,-221,-829,2.03,-2.17,-0.21
-570,-221,-838,3.85,-0.91,0.77
-574,-208,-829,5.6,0.21,1.54
-579,-186,-800,5.95,0.7,2.73
-581,-191,-774,4.13,0.98,3.71
-581,-198,-761,1.68,0.98,3.78
-576,-215,-750,-0.7,0.63,4.27
-568,-237,-756,-2.31,0.35,4.97
-559,-264,-778,-2.17,0.07,5.53
-554,-277,-809,-0.14,0.0,5.81
-554,-263,-826,3.15,0.14,6.23
-561,-246,-823,5.6,0.77,6.86
-558,-237,-819,6.86,1.4,7.07
-558,-216,-814,7.77,2.1,7.14
-559,-199,-819,8.61,2.73,7.7
-560,-192,-810,8.47,3.15,8.26
-577,-190,-788,6.65,3.57,9.17
-578,-215,-782,4.83,3.15,9.24
-569,-228,-782,3.92,2.52,8.96
-564,-240,-783,3.78,2.24,9.17
-565,-253,-788,3.64,1.89,8.75
-567,-248,-784,3.5,1.68,7.56
-575,-242,-786,3.99,1.54,6.02
-579,-240,-790,4.76,0.98,4.48
-579,-232,-791,5.88,0.63,3.71
-576,-224,-798,6.72,0.07,3.43
-566,-218,-806,6.93,-0.42,2.52
-563,-210,-816,6.23,-0.56,1.82
-565,-208,-820,4.69,-0.28,1.33
-574,-212,-810,2.94,0.14,0.84
