acc_x[mg],acc_y[mg],acc_z[mg],gyro_x[dps],gyro_y[dps],gyro_z[dps]
-65,-166,-1001,-1.12,-0.35,5.88
-62,-189,-985,-1.75,0.07,6.86
-69,-218,-980,-1.75,0.42,6.93
-78,-235,-978,-0.07,0.7,6.23
-73,-221,-979,2.45,0.77,5.6
-67,-198,-976,3.36,0.28,5.39
-70,-192,-981,2.03,-0.14,4.97
-75,-195,-985,0.21,-0.42,4.48
-73,-195,-988,-0.56,-0.42,4.06
-69,-188,-987,0.07,-0.28,4.27
-70,-189,-984,0.77,-0.07,4.69
-73,-189,-983,1.54,0.21,4.83
-75,-185,-979,2.66,0.42,4.97
-73,-177,-977,3.36,0.56,4.97
-73,-172,-976,3.36,0.49,5.32
-80,-176,-977,3.01,0.49,5.46
-85,-185,-977,2.73,0.42,5.32
-83,-185,-979,2.31,0.42,4.97
-76,-181,-981,2.24,0.56,4.34
-71,-178,-983,1.89,0.56,3.99
-72,-173,-985,1.47,0.7,3.57
-69,-176,-981,1.68,0.98,3.5
-71,-181,-982,1.54,1.26,3.57
-75,-187,-985,1.82,1.4,3.43
-83,-195,-987,1.89,1.47,3.22
-85,-189,-997,2.17,1.61,3.01
-77,-177,-996,2.8,1.82,3.08
-76,-166,-995,2.59,1.89,3.43
-85,-166,-990,1.54,1.89,3.78
-90,-178,-995,1.12,1.89,4.13
-88,-190,-996,1.75,1.82,4.55
-79,-184,-998,3.08,1.75,4.69
-84,-177,-999,3.5,1.54,5.04
-93,-172,-1001,2.31,1.33,5.32
-94,-169,-1004,0.98,1.26,5.88
-90,-174,-1002,0.21,1.05,6.79
-80,-181,-1000,0.28,0.91,7.49
-73,-174,-998,1.96,1.33,8.26
-79,-185,-984,1.96,1.05,9.03
-70,-194,-994,0.0,0.7,8.26
-71,-191,-994,0.63,0.98,7.77
-85,-171,-982,0.28,0.84,7.49
-81,-159,-984,-1.19,1.05,7.42
-73,-178,-974,-1.68,0.98,7.84
-69,-188,-981,-0.98,1.12,7.56
-75,-187,-986,1.82,1.54,7.21
-79,-174,-986,3.15,1.61,6.86
-81,-152,-989,2.59,1.68,6.51
-87,-148,-982,0.7,1.68,6.86
-91,-169,-979,-2.03,1.61,6.86
-85,-193,-983,-2.8,1.75,6.58
-78,-207,-980,-1.05,2.1,6.02
-77,-207,-981,1.4,2.38,5.18
-78,-192,-981,3.43,2.59,4.55
-82,-175,-984,3.5,2.59,4.06
-88,-169,-984,1.75,2.45,3.71
-87,-175,-984,-0.7,2.17,3.5
-82,-185,-989,-2.31,2.17,3.64
-74,-198,-989,-1.89,2.31,3.43
-76,-204,-987,-0.28,2.31,3.15
-83,-206,-988,1.54,2.38,2.73
-87,-196,-986,2.52,2.1,2.1
-87,-180,-988,2.31,1.89,1.75
-85,-178,-988,0.98,1.54,1.89
-83,-185,-987,-0.91,1.26,2.03
-78,-193,-989,-1.61,1.19,2.03
-70,-197,-992,-0.63,1.4,2.24
-71,-194,-994,0.91,1.68,2.66
-73,-193,-994,2.03,1.89,2.73
-72,-180,-991,1.47,1.82,2.66
-71,-167,-990,-0.42,1.61,2.87
-70,-176,-984,-2.52,1.47,3.5
-75,-198,-983,-3.99,1.4,3.99
-80,-210,-983,-3.43,1.33,3.85
-77,-203,-990,-1.75,1.54,3.78
-74,-181,-996,-0.28,1.68,4.2
-69,-170,-997,-0.35,1.47,4.83
-68,-170,-993,-1.68,1.19,5.18
-70,-176,-992,-2.24,1.33,5.25
-68,-181,-988,-1.96,1.4,5.67
-65,-177,-986,-1.54,1.4,5.88
-65,-174,-983,-0.77,1.4,6.09
-62,-173,-989,-0.28,1.4,6.37
-58,-170,-995,0.0,1.4,6.37
-59,-166,-995,0.35,1.47,6.37
-68,-160,-999,0.07,1.4,6.3
-74,-152,-1001,-0.84,1.47,6.3
-73,-152,-998,-1.89,1.26,6.58
-72,-156,-995,-3.43,0.77,6.72
-71,-160,-994,-4.62,0.35,6.58
-66,-161,-993,-4.48,0.21,6.51
-61,-166,-993,-3.57,0.35,6.65
-62,-169,-984,-2.03,0.56,6.44
-64,-179,-994,-2.1,0.21,5.81
-60,-172,-996,-1.96,0.14,4.62
-65,-153,-992,-1.75,-0.07,4.2
-69,-146,-994,-3.64,-0.49,4.13
-62,-156,-992,-5.04,-0.7,4.13
-58,-168,-995,-5.11,-0.77,3.85
-54,-169,-999,-3.85,-0.77,3.43
-53,-166,-999,-1.75,-0.7,3.43
-59,-157,-997,-0.84,-0.7,3.15
-59,-146,-1003,-0.7,-0.56,2.8
-54,-138,-1001,-1.19,-0.56,2.59
-53,-132,-995,-2.59,-0.77,2.31
-60,-128,-992,-4.55,-0.77,1.96
-63,-134,-987,-5.95,-0.77,1.82
-56,-153,-981,-6.44,-0.77,1.89
-52,-167,-983,-6.16,-0.84,1.4
-56,-169,-986,-4.62,-0.77,0.63
-60,-166,-988,-3.08,-0.63,0.28
-61,-164,-993,-2.59,-0.7,0.14
-62,-162,-996,-2.52,-0.77,-0.35
-61,-159,-994,-2.52,-0.63,-0.49
-61,-159,-992,-2.87,-0.63,-0.56
-65,-166,-991,-3.71,-0.91,-0.7
-67,-174,-994,-4.06,-0.98,-0.98
-64,-174,-997,-3.64,-0.91,-1.26
-62,-168,-1001,-3.64,-1.05,-1.47
-65,-160,-1004,-3.64,-1.12,-1.68
-69,-150,-1006,-2.94,-0.98,-1.61
-69,-141,-1008,-2.31,-1.05,-1.33
-67,-137,-1007,-2.38,-1.19,-1.05
-70,-129,-1007,-2.24,-1.33,-0.84
-77,-119,-1008,-2.24,-1.4,-0.28
-72,-123,-1007,-3.36,-1.68,0.49
-70,-137,-1007,-4.55,-1.96,0.77
-81,-154,-1005,-5.46,-2.38,0.56
-88,-159,-1007,-5.6,-2.59,0.35
-80,-153,-1007,-5.11,-2.8,0.49
-73,-139,-1005,-4.41,-2.94,0.7
-76,-131,-1001,-4.06,-3.22,0.84
-78,-125,-994,-4.34,-3.71,1.12
-76,-119,-992,-5.04,-3.99,1.33
-72,-126,-989,-5.25,-3.99,1.61
-71,-144,-984,-5.53,-3.92,1.68
-70,-153,-984,-4.97,-3.57,1.05
-64,-150,-984,-2.94,-2.94,0.56
-62,-143,-988,-1.19,-2.31,0.21
-62,-130,-988,-0.21,-1.82,-0.28
-65,-119,-990,-0.7,-1.68,-0.77
-59,-107,-988,-2.31,-1.47,-1.05
-58,-111,-990,-4.06,-0.98,-1.12
-67,-128,-990,-5.32,-0.56,-1.12
-73,-139,-990,-4.76,-0.14,-1.4
-68,-144,-990,-2.87,0.21,-1.47
-66,-141,-993,-0.56,0.42,-1.4
-72,-137,-991,0.56,0.42,-1.54
-76,-129,-993,0.42,0.28,-1.82
-73,-131,-996,-0.7,0.0,-1.75
-73,-138,-1000,-1.96,-0.35,-1.96
-80,-140,-1004,-2.24,-0.56,-2.1
-82,-139,-1003,-1.96,-0.63,-2.03
-83,-137,-1002,-2.31,-0.91,-2.24
-79,-131,-1006,-2.38,-0.98,-2.31
-85,-129,-1005,-1.96,-0.77,-1.75
-92,-125,-1002,-1.82,-0.98,-1.68
-86,-123,-1002,-2.03,-1.12,-1.68
-82,-129,-1004,-2.03,-0.91,-0.98
-73,-133,-1002,-1.47,-0.98,-0.56
-65,-130,-1001,-0.77,-0.91,-0.7
-68,-124,-1002,-0.21,-0.77,-0.49
-71,-128,-997,-0.14,-0.91,-0.14
-74,-131,-992,-0.84,-1.05,0.07
-75,-135,-989,-1.61,-1.19,0.14
-71,-143,-988,-2.24,-1.4,-0.21
-59,-144,-990,-2.45,-1.61,-0.7
-58,-144,-994,-1.47,-1.33,-1.05
-62,-141,-991,-0.07,-1.05,-1.26
-69,-129,-993,0.63,-0.56,-1.26
-67,-124,-995,0.7,-0.28,-1.05
-66,-123,-997,-0.21,-0.35,-0.98
-75,-121,-1000,-1.33,-0.63,-1.26
-75,-122,-995,-2.03,-0.84,-1.12
-69,-129,-995,-2.66,-0.77,-0.7
-66,-141,-996,-2.31,-0.63,-0.42
-66,-153,-994,-0.84,-0.56,-0.7
-67,-146,-992,0.84,-0.42,-0.84
-70,-145,-995,1.4,-0.35,-0.84
-76,-143,-996,0.77,-0.49,-1.19
-82,-135,-999,0.14,-0.49,-1.4
-77,-131,-999,-0.77,-0.49,-1.33
-69,-127,-1002,-1.68,-0.7,-1.61
-70,-126,-1005,-1.54,-0.7,-1.47
-73,-123,-1001,-1.12,-0.63,-1.26
-70,-121,-1001,-0.98,-0.63,-0.98
-71,-129,-995,-0.98,-0.63,-0.49
-76,-141,-991,-0.91,-0.63,-0.35
-75,-150,-992,-0.14,-0.56,-0.35
-71,-150,-992,0.7,-0.63,-0.35
-69,-143,-996,1.05,-0.84,-0.7
-71,-133,-997,1.05,-0.84,-0.84
-71,-133,-999,0.35,-0.91,-0.84
-65,-147,-1001,-0.42,-0.91,-0.56
-67,-150,-998,-0.14,-0.98,-0.7
-65,-139,-998,0.49,-0.84,-1.54
-67,-125,-998,0.98,-0.7,-0.91
-66,-123,-995,0.28,-0.7,-0.98
-64,-123,-997,-0.7,-0.77,-1.05
-61,-132,-998,0.0,-0.49,0.07
-64,-136,-997,1.12,0.14,1.54
-70,-134,-998,1.47,0.14,0.98
-69,-131,-993,1.12,-0.42,-0.35
-67,-140,-996,-0.07,-0.56,-1.19
-68,-148,-998,-0.56,-0.28,-0.21
-71,-147,-994,0.07,-0.21,-0.07
-76,-135,-997,0.07,-0.14,-0.49
-77,-132,-999,-0.14,-0.28,-0.21
-69,-141,-1000,-0.21,-0.63,0.07
-73,-140,-1001,0.0,-0.63,0.21
-78,-131,-1003,0.35,-0.42,0.35
-75,-126,-1001,0.14,-0.42,0.77
-66,-131,-998,-0.21,-0.56,1.12
-68,-139,-995,-0.28,-0.77,0.77
-74,-138,-994,0.14,-0.77,0.56
-76,-139,-994,0.63,-0.63,0.7
-73,-142,-993,0.91,-0.56,0.98
-71,-142,-997,1.4,-0.63,0.91
-77,-136,-1002,2.38,-0.56,1.05
-79,-127,-1002,2.38,-0.63,1.4
-77,-126,-995,0.84,-0.84,1.61
-71,-138,-998,-0.14,-0.56,1.68
-75,-149,-991,-0.14,-0.56,1.68
-74,-145,-992,0.49,-0.49,1.4
-69,-143,-987,1.47,-0.56,1.4
-69,-144,-992,1.33,-0.56,1.26
-65,-140,-993,1.05,-0.63,0.7
-66,-142,-996,0.63,-0.63,0.49
-68,-146,-994,0.35,-0.84,0.21
-69,-151,-993,0.35,-0.91,0.07
-71,-148,-999,0.84,-0.77,0.21
-73,-143,-996,0.77,-0.77,0.28
-74,-139,-1001,0.49,-0.77,0.21
-74,-138,-1002,0.42,-0.77,0.56
-69,-134,-999,0.42,-0.7,0.84
-63,-132,-997,0.49,-0.63,1.05
-65,-139,-999,0.56,-0.77,1.33
-68,-140,-998,1.12,-0.7,1.33
-69,-132,-997,1.82,-0.56,1.33
-71,-127,-999,1.33,-0.42,1.47
-72,-129,-1001,0.49,-0.35,1.47
-71,-132,-1002,-0.21,-0.35,1.47
-66,-127,-1000,-0.63,-0.35,1.4
-70,-130,-993,-1.05,-0.49,1.61
-85,-138,-996,-1.33,-0.42,1.54
-91,-143,-995,-0.77,-0.42,1.47
-84,-137,-991,-0.21,-0.84,1.54
-80,-127,-996,-0.98,-1.19,1.33
-79,-125,-998,-1.96,-1.4,1.26
-76,-133,-997,-3.08,-1.68,1.4
-73,-136,-999,-3.78,-1.82,1.05
-75,-137,-1001,-3.36,-1.68,0.77
-80,-131,-998,-3.22,-1.82,0.7
-78,-129,-1000,-3.29,-1.68,0.56
-77,-126,-1002,-3.08,-1.54,0.7
-80,-121,-1002,-2.59,-1.47,1.05
-78,-125,-1000,-1.82,-1.47,1.19
-82,-126,-1002,-1.54,-1.26,1.19
-82,-122,-999,-0.98,-1.12,1.12
-78,-116,-997,-1.12,-1.19,0.98
-76,-108,-994,-2.31,-1.47,0.91
-81,-108,-994,-3.5,-1.61,0.77
-84,-113,-994,-4.41,-1.54,0.77
-84,-124,-996,-4.55,-1.4,0.98
-80,-136,-1002,-3.29,-1.12,0.98
-78,-136,-1000,-1.54,-0.98,0.84
-78,-121,-998,-0.42,-1.12,0.42
-79,-110,-991,-0.84,-1.33,0.21
-79,-118,-986,-2.73,-1.54,0.21
-80,-133,-988,-4.13,-1.61,-0.14
-81,-144,-989,-3.5,-1.4,-0.21
-80,-143,-993,-1.61,-1.12,-0.35
-77,-134,-1002,0.35,-0.77,-0.56
-77,-124,-1005,1.75,-0.56,-0.49
-75,-113,-1000,1.82,-0.63,-0.42
-70,-105,-1000,0.91,-0.63,-0.42
-67,-107,-993,-0.63,-0.84,-0.35
-70,-124,-991,-2.31,-1.12,-0.42
-73,-141,-993,-2.8,-1.12,-0.77
-78,-149,-996,-1.75,-1.05,-0.98
-77,-147,-994,0.0,-0.98,-1.12
-78,-136,-995,1.4,-0.98,-1.26
-76,-124,-997,2.24,-0.98,-1.19
-72,-119,-998,2.17,-0.91,-0.91
-64,-122,-1000,1.68,-0.84,-0.77
-63,-128,-998,1.33,-0.91,-0.91
-71,-130,-996,0.63,-0.98,-1.19
-76,-129,-997,0.0,-0.84,-1.61
-72,-129,-996,-0.35,-0.56,-1.82
-67,-127,-993,-0.14,-0.49,-1.82
-66,-125,-993,0.35,-0.42,-1.96
-69,-122,-995,0.63,-0.42,-1.96
-72,-122,-998,0.49,-0.28,-1.82
-73,-131,-1001,0.21,-0.21,-1.54
-76,-137,-1001,0.0,-0.42,-1.68
-84,-135,-1005,-0.14,-0.56,-1.89
-82,-125,-1005,-0.14,-0.63,-1.89
-74,-126,-1005,-0.28,-0.77,-1.47
-67,-130,-1003,-0.42,-0.98,-1.4
-70,-130,-1001,-0.07,-1.12,-1.33
-71,-132,-999,0.21,-1.12,-1.12
-70,-137,-997,0.21,-1.05,-1.05
-68,-140,-997,0.35,-1.19,-1.19
-74,-135,-998,0.56,-1.19,-1.4
-72,-123,-999,0.77,-1.26,-1.26
-70,-119,-997,0.42,-1.26,-0.84
-70,-122,-998,-0.49,-1.26,-0.7
-70,-125,-999,-0.77,-1.19,-0.56
-74,-127,-999,-0.63,-1.05,-0.35
-76,-125,-997,-0.63,-0.98,-0.28
-76,-122,-993,-0.91,-0.84,-0.21
-75,-124,-991,-1.4,-0.77,0.0
-70,-130,-993,-1.68,-0.77,0.07
-69,-138,-995,-0.98,-0.56,0.14
-73,-142,-995,0.21,-0.42,-0.07
-81,-138,-996,1.12,-0.42,-0.35
-81,-126,-998,1.4,-0.42,-0.49
-78,-120,-1002,0.7,-0.63,-0.28
-77,-119,-1000,-0.35,-0.77,-0.14
-79,-124,-995,-1.54,-0.84,-0.07
-79,-132,-996,-2.17,-0.91,0.0
-77,-144,-998,-1.61,-0.91,0.28
-80,-146,-997,-0.35,-0.77,0.21
-78,-135,-997,1.19,-0.63,0.21
-76,-128,-998,1.75,-0.56,0.63
-78,-124,-999,0.98,-0.77,0.56
-77,-120,-999,0.28,-0.77,0.49
-75,-123,-997,-0.56,-0.77,0.7
-70,-130,-993,-1.4,-0.84,0.7
-70,-142,-991,-1.4,-0.7,0.56
-73,-146,-991,-0.63,-0.63,0.28
-76,-138,-993,0.77,-0.49,0.0
-79,-130,-997,1.68,-0.35,-0.07
-79,-122,-999,1.4,-0.42,0.0
-78,-116,-997,0.49,-0.49,0.0
-74,-115,-998,-0.77,-0.56,0.0
-72,-122,-995,-1.54,-0.49,0.42
-71,-131,-995,-1.61,-0.35,0.49
-75,-133,-1000,-0.91,-0.21,0.42
-82,-134,-1001,0.42,-0.07,0.7
-84,-135,-1003,1.54,0.07,0.77
-82,-132,-1000,1.61,-0.14,0.77
-79,-129,-1001,0.63,-0.49,0.63
-80,-126,-999,-0.77,-0.84,0.42
-82,-128,-999,-1.75,-1.12,0.56
-79,-137,-1000,-1.96,-1.19,0.56
-73,-139,-1000,-0.91,-1.19,0.49
-71,-136,-1001,0.56,-1.19,0.28
-74,-126,-999,1.75,-1.12,0.14
-78,-118,-992,1.54,-1.05,0.14
-77,-112,-992,-0.07,-1.12,0.07
-78,-115,-992,-1.61,-1.19,0.21
-79,-131,-992,-2.31,-1.19,0.42
-77,-144,-992,-1.75,-1.12,0.35
-72,-143,-993,-0.28,-0.98,-0.07
-72,-130,-991,1.12,-0.84,-0.42
-75,-125,-990,1.47,-0.56,-0.49
-77,-125,-989,1.47,-0.49,-0.56
-72,-128,-992,1.54,-0.42,-0.7
-72,-128,-994,1.61,-0.42,-0.84
-77,-122,-998,1.54,-0.35,-1.33
-72,-119,-1000,1.05,-0.21,-1.26
-66,-126,-1005,0.7,-0.07,-1.26
-71,-133,-1003,1.19,0.07,-1.47
-79,-125,-1001,2.03,0.28,-1.75
-81,-114,-1003,1.96,0.35,-1.54
-82,-109,-1003,0.91,0.0,-1.19
-86,-114,-1003,-0.42,-0.35,-0.91
-85,-117,-1006,-1.4,-0.56,-0.56
-81,-127,-1006,-1.68,-0.63,-0.14
-80,-137,-1003,-1.4,-0.77,0.07
-79,-138,-1004,-0.42,-0.77,0.14
-81,-134,-1001,0.77,-0.77,0.28
-84,-129,-998,0.84,-0.91,0.35
-82,-126,-996,0.77,-0.98,0.56
-78,-126,-994,0.42,-1.12,0.84
-73,-123,-993,-0.28,-1.26,0.7
-73,-123,-991,-1.05,-1.4,0.63
-71,-134,-989,-1.89,-1.47,0.77
-63,-140,-989,-1.96,-1.4,0.63
-65,-141,-992,-0.98,-1.12,0.42
-70,-139,-994,-0.07,-0.84,0.21
-73,-131,-994,0.77,-0.63,0.0
-67,-122,-995,1.54,-0.42,0.0
-68,-120,-995,1.68,-0.21,0.28
-71,-119,-998,1.47,-0.14,0.35
-72,-117,-1000,1.12,-0.07,0.42
-75,-117,-1000,0.28,-0.14,0.63
-77,-124,-999,-0.42,-0.14,0.63
-79,-135,-1001,-0.56,-0.14,0.7
-78,-147,-1002,0.42,-0.14,0.77
-78,-150,-1003,2.03,-0.14,0.56
-78,-140,-1005,3.71,0.14,0.56
-80,-131,-1004,4.27,0.07,0.28
-80,-120,-999,3.57,-0.21,-0.07
-77,-115,-993,2.45,-0.35,-0.28
-75,-120,-991,1.33,-0.7,-0.28
-72,-125,-992,0.28,-1.19,-0.56
-76,-122,-992,-0.35,-1.54,-0.84
-78,-120,-994,-1.19,-1.68,-1.05
-75,-122,-997,-2.03,-1.75,-1.19
-74,-127,-1002,-2.1,-1.54,-0.98
-70,-129,-1004,-1.33,-1.4,-0.98
-68,-127,-1002,0.0,-1.19,-1.05
-69,-130,-999,1.12,-1.12,-0.91
-66,-131,-997,1.89,-0.91,-0.98
-66,-132,-995,2.66,-0.84,-1.05
-70,-128,-989,2.59,-0.84,-1.26
-77,-122,-988,1.61,-0.91,-1.47
-78,-127,-991,-0.07,-1.05,-1.47
-75,-133,-998,-1.12,-1.12,-1.54
-74,-136,-1001,-1.12,-1.12,-1.82
-72,-134,-1004,-0.35,-1.05,-2.03
-71,-127,-1005,0.77,-0.91,-2.17
-73,-122,-1001,1.54,-0.91,-2.31
-76,-114,-999,1.26,-0.91,-2.24
-79,-111,-995,0.35,-0.98,-1.82
-82,-120,-993,-0.84,-0.98,-1.4
-79,-132,-999,-1.47,-0.98,-1.12
-73,-136,-1001,-1.05,-1.05,-0.91
-72,-133,-1000,-0.14,-1.12,-0.91
-82,-130,-999,-0.07,-1.19,-0.91
-84,-130,-997,-0.56,-1.19,-0.77
-79,-135,-997,-0.84,-1.19,-0.49
-82,-141,-995,-0.7,-1.26,-0.35
-88,-137,-997,-0.49,-1.47,-0.42
-85,-132,-1000,-0.56,-1.54,-0.21
-80,-131,-1002,-0.91,-1.68,0.14
-77,-135,-1003,-0.77,-1.75,0.42
-73,-135,-1000,-0.28,-1.68,0.7
-68,-133,-998,-0.07,-1.61,0.98
-70,-137,-993,-0.14,-1.68,1.19
-76,-139,-992,-0.49,-1.61,1.26
-74,-136,-989,-0.63,-1.54,1.47
-63,-138,-988,-0.35,-1.19,1.82
-62,-151,-990,0.21,-0.77,1.89
-63,-155,-988,1.05,-0.49,1.4
-67,-149,-983,1.96,-0.28,1.05
-65,-144,-985,2.1,-0.07,0.77
-65,-140,-992,1.82,0.21,0.56
-67,-142,-994,1.4,0.28,0.63
-75,-142,-996,0.91,0.28,0.35
-82,-134,-999,1.05,0.28,0.35
-85,-130,-1002,1.05,0.35,0.7
-84,-130,-1002,0.91,0.14,0.98
-86,-131,-1003,0.84,0.0,1.05
-89,-132,-999,0.77,-0.14,1.26
-94,-138,-997,0.28,-0.42,1.26
-93,-148,-995,-0.14,-0.7,1.19
-89,-154,-996,0.21,-0.98,1.05
-88,-150,-1000,0.98,-1.12,0.84
-87,-137,-1002,1.68,-1.12,0.77
-83,-129,-1003,1.47,-1.26,0.84
-77,-123,-1003,0.49,-1.47,0.77
-75,-118,-1000,-0.49,-1.47,0.49
-79,-117,-993,-1.19,-1.4,0.56
-78,-125,-990,-1.61,-1.26,0.77
-77,-133,-990,-1.47,-1.19,0.7
-78,-128,-993,-0.35,-1.12,0.56
-80,-122,-993,0.49,-1.05,0.77
-81,-118,-993,0.07,-1.05,0.98
-78,-124,-992,-1.12,-1.19,0.98
-74,-128,-995,-2.1,-1.33,0.84
-78,-128,-992,-2.66,-1.4,0.7
-80,-127,-991,-3.5,-1.47,0.56
-73,-131,-995,-4.27,-1.4,0.42
-62,-141,-995,-3.78,-1.05,0.35
-59,-146,-996,-1.68,-0.56,0.28
-66,-140,-995,1.05,-0.07,-0.07
-75,-126,-991,2.24,0.14,-0.49
-80,-120,-991,1.89,0.42,-0.7
-83,-128,-992,1.05,0.28,-0.49
-83,-132,-995,0.35,0.14,-0.49
-82,-130,-1001,0.14,0.0,-0.7
-80,-128,-1004,-0.14,-0.21,-0.77
-77,-131,-1006,-0.35,-0.21,-0.63
-77,-140,-1006,-0.07,-0.14,-0.42
-81,-143,-1007,0.91,-0.14,-0.49
-88,-134,-1002,2.03,-0.21,-0.7
-89,-123,-999,1.96,-0.42,-0.63
-84,-119,-998,0.7,-0.77,-0.49
-79,-120,-998,-0.63,-1.12,-0.35
-79,-130,-1000,-1.61,-1.26,-0.28
-78,-138,-1001,-1.61,-1.26,-0.35
-76,-147,-999,-0.49,-1.12,-0.42
-79,-147,-1000,1.05,-1.05,-0.7
-89,-128,-997,2.24,-0.98,-1.19
-94,-104,-995,2.17,-1.12,-1.33
-88,-100,-994,0.63,-1.19,-0.84
-79,-115,-996,-1.05,-1.47,-0.56
-76,-127,-1000,-1.68,-1.47,-0.49
-76,-133,-1000,-1.26,-1.26,-0.42
-78,-139,-999,-0.84,-1.12,-0.49
-81,-143,-997,-0.56,-0.98,-0.84
-80,-140,-996,0.07,-0.98,-1.05
-79,-135,-992,0.42,-1.12,-1.12
-78,-133,-991,0.21,-1.33,-1.19
-75,-138,-988,-0.7,-1.54,-1.26
-74,-141,-992,-1.96,-1.82,-1.75
-80,-139,-997,-2.59,-1.89,-2.1
-84,-135,-1001,-2.38,-1.75,-2.17
-86,-125,-1005,-2.38,-1.61,-2.1
-85,-120,-1001,-2.59,-1.75,-1.89
-79,-118,-991,-3.57,-1.96,-1.75
-70,-124,-1001,-4.2,-1.89,-1.61
-71,-127,-987,-4.41,-2.17,-1.4
-71,-139,-989,-4.41,-1.82,-1.82
-74,-146,-984,-3.22,-1.47,-1.82
-74,-155,-986,-1.54,-1.19,-1.75
-76,-158,-991,1.33,-0.77,-2.1
-85,-143,-991,3.36,-0.49,-2.31
-87,-124,-991,3.71,-0.49,-2.66
-81,-123,-997,2.66,-0.49,-2.66
-81,-124,-997,1.12,-0.56,-2.66
-82,-124,-998,0.84,-0.49,-2.73
-78,-130,-998,1.05,-0.42,-2.52
-78,-132,-1000,1.26,-0.49,-2.45
-83,-133,-1000,2.03,-0.42,-2.59
-78,-130,-1001,3.15,-0.07,-2.38
-75,-123,-1004,3.92,0.14,-1.96
-71,-115,-1002,4.55,0.28,-1.68
-76,-112,-1001,3.99,0.14,-1.33
-82,-112,-999,1.89,-0.21,-1.19
-83,-122,-995,-0.28,-0.28,-1.26
-84,-140,-995,-1.61,-0.35,-1.19
-84,-157,-995,-1.47,-0.42,-1.26
-83,-158,-996,0.14,-0.35,-1.54
-86,-146,-997,1.68,-0.42,-1.61
-85,-133,-997,1.75,-0.77,-1.68
-89,-127,-1000,0.7,-1.19,-1.47
-85,-131,-997,-0.91,-1.47,-1.05
-78,-138,-1001,-1.82,-1.54,-0.7
-76,-140,-1004,-1.89,-1.61,-0.56
-72,-139,-1005,-0.91,-1.4,-0.63
-72,-136,-1003,0.49,-1.05,-0.63
-77,-128,-1000,1.61,-0.98,-0.63
-80,-122,-992,2.31,-0.84,-0.42
-83,-122,-983,1.47,-0.91,-0.21
-84,-127,-980,-0.63,-1.26,-0.14
-80,-141,-987,-2.38,-1.54,-0.14
-79,-156,-996,-2.45,-1.61,-0.21
-77,-159,-1003,-0.98,-1.4,-0.56
-73,-146,-1006,1.12,-0.98,-0.7
-69,-135,-1008,3.01,-0.63,-0.63
-68,-131,-1005,3.85,-0.42,-0.42
-73,-126,-998,4.06,-0.49,-0.42
-81,-122,-993,3.36,-0.63,-0.28
-83,-127,-988,1.89,-0.84,-0.28
-79,-136,-989,0.91,-0.91,-0.14
-80,-149,-992,0.91,-0.98,-0.14
-86,-152,-993,1.68,-0.98,-0.63
-87,-146,-997,2.87,-0.91,-1.05
-85,-139,-994,3.29,-0.91,-1.05
-87,-138,-993,2.38,-1.26,-1.26
-86,-131,-997,1.33,-1.26,-1.61
-79,-128,-990,-0.07,-1.4,-1.82
-76,-134,-992,-0.98,-1.47,-1.96
-81,-145,-991,-1.05,-1.47,-2.17
-80,-146,-993,-0.56,-1.4,-2.24
-78,-140,-995,0.42,-1.19,-2.24
-78,-138,-993,1.05,-1.05,-2.1
-79,-136,-996,0.56,-1.12,-1.89
-81,-134,-996,-0.56,-1.19,-1.89
-82,-138,-992,-1.75,-1.33,-1.68
-81,-150,-992,-2.66,-1.33,-1.54
-83,-163,-993,-2.66,-1.33,-1.4
-78,-168,-997,-1.33,-1.26,-1.54
-74,-161,-996,0.56,-1.12,-1.75
-74,-143,-999,1.96,-0.98,-1.75
-74,-127,-999,2.03,-0.98,-1.54
-73,-120,-992,0.7,-0.98,-1.26
-73,-127,-989,-0.91,-1.05,-0.84
-75,-144,-989,-1.54,-0.98,-0.28
-75,-157,-990,-0.49,-0.77,-0.21
-76,-157,-993,1.05,-0.56,-0.35
-80,-145,-998,2.17,-0.49,-0.28
-79,-134,-1001,1.61,-0.63,0.0
-78,-126,-1004,-0.28,-0.91,0.21
-81,-126,-1004,-1.82,-1.12,0.42
-83,-139,-1004,-2.24,-1.05,0.98
-80,-152,-1001,-1.68,-0.91,1.19
-77,-158,-998,0.21,-0.84,1.19
-77,-156,-996,2.24,-0.98,1.26
-80,-151,-998,2.94,-1.12,1.12
-76,-139,-1000,2.66,-1.19,0.98
-71,-134,-997,1.61,-1.19,1.19
-76,-142,-993,0.56,-1.12,1.26
-80,-150,-995,0.35,-1.05,1.26
-82,-149,-995,1.75,-0.7,1.26
-79,-146,-993,3.85,-0.28,1.4
-81,-145,-996,5.04,-0.07,1.33
-84,-135,-996,5.46,-0.14,0.91
-84,-116,-997,5.11,-0.07,0.7
-86,-110,-997,3.01,-0.21,1.05
-86,-114,-995,0.07,-0.56,1.12
-85,-122,-996,-1.68,-0.56,1.12
-79,-128,-996,-1.82,-0.49,1.12
-75,-133,-999,-1.26,-0.42,1.19
-78,-142,-996,0.0,-0.21,1.12
-88,-146,-990,0.84,-0.14,0.84
-87,-141,-988,0.56,-0.35,0.7
-83,-138,-989,-0.84,-0.7,0.63
-84,-142,-993,-2.31,-0.98,0.63
-84,-149,-993,-2.94,-1.05,0.42
-79,-157,-994,-2.24,-1.05,0.56
-82,-155,-996,-0.98,-1.12,0.56
-83,-144,-995,0.42,-0.91,0.28
-77,-137,-994,1.26,-0.7,0.49
-75,-133,-994,0.56,-0.91,0.42
-80,-128,-994,0.56,-0.84,0.0
-81,-127,-992,0.98,-0.42,0.21
-76,-130,-993,1.19,-0.28,0.7
-77,-139,-991,2.03,-0.14,0.77
-85,-140,-995,3.01,0.07,0.84
-92,-132,-998,3.43,0.28,0.84
-85,-124,-1000,3.01,0.21,1.05
-83,-122,-1000,1.19,0.0,1.33
-82,-122,-1000,-0.98,-0.14,1.19
-84,-136,-997,-1.96,-0.14,1.26
-86,-155,-998,-2.1,-0.14,1.26
-89,-159,-996,-0.63,-0.21,0.91
-92,-155,-996,1.26,-0.14,0.7
-94,-147,-998,2.38,-0.28,0.56
-90,-138,-1000,2.45,-0.49,0.42
-85,-129,-1001,1.82,-0.7,0.49
-84,-127,-1004,0.49,-0.98,0.7
-83,-129,-1000,-0.63,-1.05,0.91
-82,-148,-998,-1.19,-1.05,1.19
-86,-159,-997,-0.56,-0.98,0.91
-89,-151,-994,1.33,-0.84,0.63
-92,-130,-990,2.1,-0.91,0.49
-87,-117,-990,1.26,-0.98,0.42
-78,-121,-993,-0.35,-1.05,0.84
-72,-131,-996,-1.19,-0.91,0.98
-73,-141,-996,-0.56,-0.7,0.98
-76,-147,-993,0.84,-0.28,1.05
-76,-143,-990,2.03,0.0,0.84
-79,-133,-989,2.94,0.21,0.63
-84,-127,-993,3.08,0.28,0.7
-89,-126,-998,2.17,0.21,0.91
-88,-130,-1006,1.33,0.28,1.19
-88,-135,-1004,0.49,0.14,1.33
-89,-138,-1000,-0.56,-0.14,1.4
-90,-149,-998,-1.54,-0.35,1.4
-89,-164,-994,-1.82,-0.56,0.98
-88,-168,-999,-0.98,-0.63,0.35
-89,-156,-998,0.42,-0.77,-0.07
-95,-133,-997,0.63,-1.12,-0.21
-98,-120,-993,-0.56,-1.33,-0.07
-92,-129,-994,-1.82,-1.47,0.28
-83,-143,-993,-1.89,-1.4,0.56
-78,-149,-990,-1.19,-1.54,0.28
-84,-148,-992,-0.07,-1.4,0.14
-86,-150,-989,0.7,-1.12,0.21
-81,-149,-987,0.42,-1.26,-0.07
-78,-138,-988,-0.07,-1.33,-0.7
-76,-131,-987,-0.63,-1.19,-0.7
-72,-135,-989,-1.68,-1.12,-0.49
-69,-144,-994,-1.96,-0.98,-0.56
-70,-147,-994,-1.19,-0.7,-0.84
-70,-145,-993,0.14,-0.28,-0.84
-73,-147,-993,0.98,0.0,-0.77
-79,-147,-993,1.47,0.28,-0.84
-79,-137,-992,1.68,0.35,-0.91
-78,-129,-995,1.05,0.35,-0.63
-76,-133,-996,-0.21,0.21,-0.28
-80,-143,-997,-1.47,0.0,-0.35
-82,-150,-1000,-1.33,0.0,-0.35
-78,-154,-1003,-0.42,0.0,-0.14
-75,-151,-1003,0.7,-0.07,-0.21
-77,-143,-1004,1.4,-0.14,-0.28
-80,-137,-1006,1.12,-0.21,-0.07
-79,-132,-1005,0.21,-0.35,0.28
-80,-131,-1006,-1.05,-0.49,0.77
-84,-136,-1003,-1.82,-0.63,1.26
-79,-151,-992,-1.96,-0.91,1.89
-72,-165,-991,-1.54,-1.12,2.45
-66,-170,-988,-0.49,-1.26,2.31
-64,-167,-983,0.28,-1.47,1.89
-69,-163,-985,0.07,-1.33,1.54
-68,-164,-983,-0.35,-1.12,1.33
-72,-162,-990,-0.42,-0.91,1.19
-71,-156,-989,0.28,-0.63,0.98
-74,-154,-997,1.4,-0.42,1.19
-78,-149,-999,2.03,-0.49,1.26
-78,-143,-996,2.03,-0.63,1.26
-75,-140,-990,1.19,-0.63,1.4
-76,-148,-986,0.07,-0.77,1.47
-80,-155,-988,-0.49,-0.84,1.33
-79,-155,-990,0.28,-0.63,1.05
-71,-151,-993,1.33,-0.56,1.05
-63,-143,-999,1.75,-0.56,0.7
-64,-138,-997,1.54,-0.49,0.28
-71,-141,-994,1.12,-0.21,0.21
-72,-154,-985,1.12,0.0,0.35
-76,-158,-986,1.68,0.21,0.14
-83,-156,-987,2.52,0.21,-0.21
-86,-153,-991,2.73,0.0,-0.42
-85,-150,-997,2.1,-0.21,-0.7
-82,-149,-1005,1.4,-0.28,-0.98
-81,-146,-1004,0.77,-0.49,-1.12
-85,-142,-1003,-0.14,-0.56,-0.98
-86,-143,-998,-0.91,-0.56,-0.84
-78,-155,-997,-0.77,-0.56,-0.63
-74,-169,-995,-0.28,-0.56,-0.35
-80,-168,-994,0.7,-0.63,-0.84
-82,-155,-991,1.33,-0.7,-0.98
-78,-151,-988,0.84,-0.77,-0.56
-82,-158,-985,-0.35,-1.05,-0.49
-91,-168,-990,-0.98,-1.19,-0.7
-89,-164,-993,-0.84,-1.19,-0.77
-81,-159,-994,-0.42,-1.26,-0.49
-78,-160,-997,-0.42,-1.33,-0.42
-79,-158,-996,-0.07,-1.19,-0.49
-78,-155,-990,0.21,-1.26,-0.21
-80,-159,-985,-0.07,-1.33,-0.07
-85,-170,-985,-0.28,-1.33,0.0
-92,-174,-984,-0.21,-1.33,-0.14
-87,-165,-990,0.21,-1.33,-0.28
-83,-154,-994,0.56,-1.26,-0.07
-86,-153,-998,0.28,-1.33,0.07
-82,-150,-998,0.07,-1.26,0.07
-79,-149,-994,-0.07,-1.26,0.21
-83,-147,-991,-0.84,-1.33,0.14
-88,-149,-987,-1.68,-1.33,0.0
-89,-153,-985,-2.8,-1.4,0.0
-84,-151,-991,-3.15,-1.26,-0.14
-79,-151,-993,-2.1,-0.91,0.0
-77,-154,-998,-0.56,-0.49,0.35
-79,-153,-998,0.56,-0.28,0.35
-82,-139,-997,1.12,-0.14,0.14
-89,-135,-994,0.35,-0.07,0.35
-93,-145,-990,-1.4,-0.21,0.49
-91,-158,-991,-2.66,-0.49,0.42
-93,-156,-993,-2.66,-0.63,0.07
-96,-142,-996,-1.89,-0.77,0.14
-98,-138,-997,-1.75,-0.91,0.49
-95,-147,-997,-1.68,-0.98,0.84
-88,-155,-997,-0.91,-0.98,0.91
-86,-152,-994,0.0,-1.19,0.77
-85,-138,-992,-0.07,-1.33,0.63
-85,-134,-993,-1.47,-1.47,0.7
-84,-145,-995,-3.01,-1.61,0.63
-83,-149,-996,-3.22,-1.47,0.49
-81,-148,-993,-2.1,-1.19,0.56
-85,-144,-995,-0.91,-0.84,0.7
-87,-138,-993,0.0,-0.7,0.7
-84,-129,-994,0.14,-0.77,0.63
-79,-126,-996,-0.91,-0.91,0.77
-73,-134,-997,-2.24,-0.98,0.91
-75,-147,-998,-3.64,-1.12,0.63
-84,-150,-996,-3.78,-1.05,0.35
-90,-146,-997,-3.08,-0.84,0.42
-92,-151,-997,-2.1,-0.77,0.7
-89,-152,-1000,-0.49,-0.84,0.91
-82,-141,-1005,1.26,-0.84,0.91
-82,-125,-1002,1.75,-0.98,0.98
-84,-127,-998,0.35,-1.05,0.98
-87,-134,-999,-0.63,-1.12,1.12
-81,-137,-991,-1.26,-1.12,1.05
-75,-142,-991,-0.63,-0.91,0.84
-78,-141,-989,-0.07,-0.98,0.77
-78,-137,-986,0.63,-0.91,0.35
-79,-138,-978,1.12,-0.91,0.21
-69,-157,-1000,-0.7,-1.4,-0.42
-70,-119,-999,1.12,-0.42,-1.05
-94,-96,-982,0.42,-0.56,-0.28
-91,-123,-996,-4.06,-0.91,0.07
-75,-155,-992,-4.13,-0.7,0.0
-78,-152,-993,-1.96,-0.56,-0.7
-86,-130,-997,0.35,-0.42,-0.77
-88,-133,-995,1.54,-0.21,-0.28
-83,-134,-998,1.26,-0.28,-0.21
-82,-121,-1001,0.28,-0.56,-0.56
-93,-105,-999,-1.89,-0.91,-0.77
-99,-113,-996,-4.48,-0.98,-0.35
-91,-138,-995,-6.44,-1.05,0.21
-80,-154,-996,-5.74,-1.19,0.07
-82,-153,-995,-3.15,-1.26,-0.49
-90,-137,-997,-1.05,-1.19,-0.84
-91,-127,-1001,-0.35,-1.19,-0.77
-81,-127,-1001,-0.35,-1.19,-0.7
-81,-128,-1005,-0.42,-1.19,-0.84
-90,-125,-1000,-0.49,-1.19,-1.05
-86,-123,-999,-0.77,-1.12,-1.26
-84,-119,-994,-1.33,-1.47,-0.91
-82,-125,-990,-2.59,-1.82,-1.05
-82,-135,-987,-3.22,-1.96,-1.4
-88,-142,-986,-3.92,-2.03,-1.4
-81,-144,-991,-3.71,-1.75,-1.75
-78,-143,-998,-2.45,-1.33,-1.75
-79,-134,-995,-1.75,-1.19,-1.89
-75,-128,-999,-1.26,-0.91,-2.17
-75,-122,-991,-1.68,-0.84,-2.38
-80,-116,-993,-2.45,-0.77,-2.38
-83,-117,-991,-3.29,-0.63,-2.31
-84,-127,-993,-3.57,-0.56,-1.89
-85,-136,-994,-3.22,-0.63,-1.89
-88,-139,-999,-2.59,-0.63,-2.03
-90,-136,-1002,-1.82,-0.56,-1.82
-86,-139,-1006,-0.98,-0.49,-1.33
-82,-140,-1007,0.14,-0.49,-1.12
-83,-140,-1006,0.63,-0.49,-1.12
-86,-133,-1004,0.63,-0.56,-1.12
-87,-131,-995,-0.28,-0.84,-0.77
-83,-142,-993,-1.89,-1.19,-0.42
-79,-148,-1001,-3.01,-1.4,-0.77
-84,-140,-999,-2.52,-1.47,-1.05
-80,-126,-996,-2.03,-1.54,-1.26
-83,-123,-998,-2.03,-1.26,-0.91
-87,-127,-999,-1.61,-1.12,-0.77
-90,-123,-998,-0.7,-1.12,-0.77
-87,-114,-994,-0.07,-1.12,-0.56
-85,-115,-992,-0.7,-1.26,-0.35
-89,-122,-990,-1.82,-1.4,-0.35
-90,-126,-987,-2.66,-1.54,-0.56
-88,-124,-988,-2.94,-1.61,-0.63
-80,-127,-986,-3.57,-1.68,-0.7
-80,-134,-987,-4.27,-1.54,-0.98
-76,-143,-1003,-3.36,-1.12,-1.26
-73,-137,-1001,-1.47,-0.77,-1.68
-73,-129,-1007,0.35,-0.14,-2.1
-84,-115,-1005,1.47,0.0,-2.17
-96,-101,-1003,0.63,-0.21,-2.52
-98,-97,-995,-1.19,-0.28,-2.59
-97,-110,-994,-3.57,-0.56,-2.1
-99,-121,-998,-4.55,-0.98,-1.96
-92,-128,-997,-3.78,-1.12,-2.03
-89,-125,-1000,-2.8,-1.33,-2.03
-89,-119,-1003,-1.54,-1.33,-2.17
-88,-117,-1001,-0.42,-1.26,-2.03
-88,-117,-1005,0.35,-1.12,-1.68
-87,-116,-1001,0.63,-1.12,-1.68
-85,-114,-998,0.56,-1.12,-1.61
-82,-115,-1002,-0.35,-1.26,-1.47
-84,-116,-1000,-1.75,-1.68,-1.75
-87,-112,-999,-2.66,-1.89,-1.89
-91,-110,-995,-3.5,-1.89,-1.68
-88,-121,-994,-3.99,-1.89,-1.4
-88,-135,-994,-3.29,-1.82,-1.4
-84,-138,-996,-1.12,-1.61,-1.54
-79,-128,-997,1.4,-1.33,-1.54
-74,-116,-999,2.94,-1.05,-1.47
-74,-110,-997,2.66,-0.98,-1.54
-78,-108,-994,1.33,-0.98,-1.68
-87,-108,-993,-0.28,-1.05,-1.68
-87,-112,-994,-1.54,-1.05,-1.54
-88,-122,-997,-2.03,-1.12,-1.4
-86,-130,-999,-1.75,-1.19,-1.47
-83,-128,-1000,-0.49,-1.19,-1.61
-83,-122,-1001,0.49,-1.05,-1.82
-82,-118,-999,1.05,-0.91,-1.82
-84,-121,-996,0.63,-0.91,-1.75
-86,-122,-997,0.35,-0.91,-1.89
-87,-119,-993,0.42,-1.05,-2.03
-90,-121,-994,0.42,-0.91,-2.03
-92,-120,-994,0.35,-0.91,-2.1
-86,-119,-997,0.56,-0.91,-2.1
-84,-123,-996,0.84,-0.84,-2.03
-88,-120,-999,0.84,-0.84,-2.24
-90,-116,-1000,1.26,-0.84,-2.03
-87,-116,-999,0.77,-0.84,-1.82
-85,-117,-999,0.14,-0.98,-1.82
-84,-122,-996,-0.63,-1.19,-1.89
-88,-121,-997,-1.4,-1.26,-2.17
-88,-123,-997,-1.4,-1.12,-2.24
-85,-127,-1001,-1.12,-0.98,-2.17
-85,-125,-996,-0.35,-0.91,-2.45
-89,-121,-997,1.05,-0.7,-2.31
-94,-118,-1000,2.03,-0.42,-1.89
-87,-118,-997,2.24,-0.63,-1.61
-84,-114,-996,1.54,-0.91,-1.33
-90,-118,-994,0.49,-1.05,-1.26
-96,-122,-991,-0.91,-0.98,-1.19
-95,-130,-991,-1.61,-0.84,-0.98
-93,-144,-994,-1.26,-0.63,-0.91
-88,-148,-996,0.49,-0.56,-1.12
-80,-141,-998,2.38,-0.49,-1.33
-74,-128,-999,3.08,-0.49,-1.4
-80,-120,-997,2.73,-0.42,-1.54
-89,-117,-993,1.33,-0.49,-1.47
-94,-123,-991,-0.49,-0.7,-1.4
-97,-130,-993,-1.54,-0.84,-1.26
-97,-135,-998,-0.77,-0.77,-1.26
-94,-136,-1003,0.63,-0.7,-1.12
-86,-128,-1008,1.96,-0.77,-0.91
-78,-118,-1006,2.45,-0.84,-0.7
-79,-111,-1002,1.61,-0.91,-0.7
-81,-116,-992,-0.21,-0.98,-0.49
-83,-131,-988,-1.89,-1.05,-0.35
-84,-143,-991,-2.1,-0.98,-0.42
-85,-143,-994,-0.98,-0.84,-0.49
-87,-131,-996,0.35,-0.84,-0.77
-85,-120,-997,0.98,-0.84,-0.7
-87,-123,-1002,1.05,-0.56,-0.35
-86,-127,-999,1.05,-0.63,-0.35
-82,-120,-998,1.05,-0.7,-0.28
-88,-114,-997,0.49,-0.63,-0.21
-95,-117,-995,-0.42,-0.7,-0.28
-91,-121,-994,-0.84,-0.77,-0.07
-86,-124,-996,-0.7,-0.7,0.21
-86,-128,-994,0.0,-0.56,0.14
-88,-132,-994,0.7,-0.42,0.14
-88,-134,-996,1.19,-0.35,0.14
-87,-132,-998,1.96,-0.21,0.0
-86,-127,-998,2.94,0.0,0.0
-85,-122,-997,2.94,-0.07,0.07
-83,-116,-997,2.17,-0.14,-0.14
-85,-119,-998,1.61,-0.07,-0.14
-88,-127,-996,1.4,-0.07,-0.07
-88,-130,-997,1.89,0.0,-0.28
-88,-129,-994,2.66,0.0,-0.42
-91,-123,-996,3.01,0.0,-0.42
-93,-118,-994,2.45,-0.14,-0.49
-86,-119,-996,1.47,-0.21,-0.28
-83,-126,-996,0.56,-0.28,-0.07
-85,-132,-995,-0.35,-0.49,-0.21
-85,-133,-1000,-0.98,-0.56,-0.35
-83,-136,-998,-1.33,-0.56,-0.28
-82,-141,-1002,-1.12,-0.35,-0.21
-82,-135,-995,-0.28,-0.35,-0.14
-85,-127,-996,0.49,-0.35,0.14
-90,-126,-997,0.07,-0.56,0.42
-91,-125,-1000,-0.49,-0.84,0.49
-90,-123,-1003,-0.84,-0.98,0.84
-86,-126,-1007,-1.19,-1.12,1.19
-86,-130,-1006,-0.77,-1.12,1.54
-87,-135,-1002,0.35,-0.84,1.82
-85,-137,-999,1.26,-0.7,1.96
-83,-130,-998,1.96,-0.63,1.75
-84,-124,-993,2.17,-0.7,1.82
-88,-124,-991,1.54,-0.77,1.96
-92,-125,-993,0.49,-0.84,1.82
-96,-128,-992,-0.42,-1.05,1.75
-99,-131,-993,-1.05,-1.12,1.68
-94,-136,-997,-0.84,-1.19,1.47
-88,-138,-998,0.56,-1.26,1.19
-91,-137,-995,1.89,-1.33,0.91
-85,-135,-1001,2.59,-1.33,0.49
-80,-127,-995,2.87,-1.19,0.21
-84,-120,-994,1.61,-1.47,-0.21
-90,-104,-994,0.0,-1.26,-0.56
-89,-113,-993,-1.61,-1.19,-0.42
-77,-124,-1001,-1.4,-0.63,-0.91
-70,-126,-1003,2.38,0.28,-0.98
-68,-121,-1005,6.86,1.26,-0.98
-64,-108,-1004,11.06,2.38,-1.12
-69,-96,-1001,13.65,3.43,-0.77
-92,-83,-993,12.53,3.92,-0.21
-111,-91,-988,7.7,3.57,-0.14
-106,-119,-979,1.96,2.8,-0.14
-112,-159,-981,-1.61,2.24,0.21
-110,-192,-977,-2.8,1.19,-0.14
-102,-200,-983,-2.31,0.07,-0.91
-94,-189,-988,-1.12,-0.98,-1.96
-96,-176,-999,-0.98,-1.89,-2.66
-97,-164,-1007,-1.96,-2.73,-3.08
-84,-143,-1012,-3.08,-2.94,-3.64
-63,-128,-1016,-2.8,-2.59,-3.57
-61,-131,-1009,-1.96,-2.31,-3.15
-78,-128,-993,-1.82,-2.31,-3.29
-89,-116,-986,-1.68,-2.03,-3.15
-88,-115,-980,-2.73,-1.89,-2.17
-84,-117,-980,-4.34,-2.24,-1.47
-80,-125,-986,-5.67,-2.59,-0.91
-75,-139,-999,-6.09,-2.59,-0.42
-68,-146,-1007,-4.62,-2.38,-0.49
-65,-143,-1010,-1.96,-1.75,-0.42
-66,-133,-1007,0.28,-0.91,-0.49
-72,-122,-1003,1.19,-0.35,-0.56
-86,-122,-989,0.84,-0.07,-0.35
-100,-129,-984,-0.35,0.0,-0.42
-99,-132,-981,-0.28,0.0,-0.07
-90,-140,-982,0.56,-0.35,0.56
-85,-140,-995,1.19,-0.56,0.63
-86,-137,-1001,1.82,-0.77,0.77
-85,-137,-1007,2.03,-0.77,0.98
-86,-130,-1012,1.68,-0.77,0.7
-82,-122,-1009,1.68,-0.56,0.7
-80,-125,-1000,1.61,-0.49,0.91
-80,-129,-993,1.33,-0.56,0.84
-83,-125,-991,1.19,-0.63,0.77
-85,-126,-990,1.12,-0.7,0.98
-83,-133,-991,0.42,-0.84,1.19
-83,-127,-1001,-1.12,-1.19,0.91
-90,-122,-999,-2.17,-1.4,0.77
-95,-132,-1001,-2.94,-1.54,0.98
-93,-142,-1004,-3.22,-1.68,0.91
-85,-139,-1006,-1.82,-1.68,0.63
-80,-131,-999,-0.07,-1.4,0.63
-80,-124,-994,0.35,-1.4,0.7
-82,-125,-992,0.21,-1.19,0.7
-84,-137,-989,0.63,-0.91,0.7
-88,-141,-988,1.47,-0.77,0.63
-89,-132,-989,2.24,-0.7,0.35
-85,-120,-991,2.03,-0.7,0.28
-85,-121,-992,0.56,-0.91,0.42
-86,-128,-992,-1.61,-1.26,0.35
-83,-133,-996,-2.8,-1.19,0.35
-82,-147,-994,-2.8,-0.84,0.56
-86,-156,-996,-1.68,-0.56,0.35
-92,-153,-997,0.63,-0.21,0.0
-94,-141,-997,2.87,-0.07,0.07
-90,-128,-997,3.43,-0.14,0.14
-82,-121,-993,2.94,-0.21,0.21
-80,-127,-990,1.54,-0.42,0.35
-83,-145,-987,-0.07,-0.56,0.28
-87,-157,-986,-0.42,-0.7,-0.07
-91,-155,-989,-0.21,-0.63,-0.28
-96,-151,-994,0.14,-0.63,-0.28
-97,-146,-1000,0.28,-0.84,-0.28
-86,-132,-1001,0.77,-0.77,-0.35
-79,-123,-1001,0.98,-0.77,0.0
-78,-124,-998,0.49,-0.77,0.0
-83,-129,-993,0.14,-0.7,0.0
-90,-135,-993,-0.07,-0.63,0.21
-94,-142,-991,0.14,-0.49,0.07
-97,-144,-990,1.05,-0.35,0.0
-95,-141,-993,1.61,-0.42,0.14
-85,-131,-995,1.82,-0.35,0.07
-79,-127,-1001,1.61,-0.35,0.28
-84,-130,-1002,0.21,-0.63,0.49
-93,-133,-1003,-0.7,-0.7,0.21
-96,-134,-997,-1.47,-0.77,0.35
-100,-137,-992,-2.73,-1.05,0.42
-94,-144,-989,-3.5,-1.26,0.21
-85,-147,-993,-3.22,-1.26,0.07
-79,-146,-995,-1.96,-1.26,0.0
-77,-145,-999,0.21,-0.84,-0.07
-79,-142,-996,1.89,-0.63,0.07
-88,-134,-998,2.94,-0.35,-0.07
-94,-123,-997,3.15,-0.21,-0.14
-96,-119,-992,1.96,-0.42,0.28
-91,-118,-991,-0.21,-0.77,0.42
-82,-121,-994,-1.61,-0.91,0.42
-77,-131,-993,-2.17,-0.84,0.49
-77,-143,-994,-1.68,-0.56,0.35
-83,-154,-997,-0.14,-0.21,0.14
-93,-151,-995,2.03,0.07,0.0
-93,-137,-994,3.5,0.21,-0.14
-86,-127,-998,3.64,0.0,0.07
-85,-128,-996,2.03,-0.35,0.28
-89,-124,-997,-0.14,-0.63,0.07
-91,-123,-996,-2.31,-0.84,0.0
-88,-131,-995,-3.92,-0.91,0.21
-85,-149,-994,-3.71,-0.77,0.21
-85,-154,-996,-1.61,-0.56,0.14
-84,-143,-996,1.19,-0.35,0.14
-80,-134,-997,3.15,-0.14,0.35
-78,-130,-994,3.5,-0.07,0.56
-81,-126,-991,2.52,-0.21,0.42
-84,-128,-991,1.19,-0.21,0.49
-87,-138,-985,-0.21,-0.21,0.84
-90,-154,-983,-1.05,-0.42,0.77
-92,-169,-986,-0.42,-0.35,0.49
-89,-166,-993,1.33,-0.14,0.14
-87,-147,-1000,2.94,0.0,-0.28
-84,-122,-1001,3.08,0.0,-0.35
-85,-109,-1004,1.61,0.28,0.42
-91,-110,-997,-0.28,0.14,0.98
-96,-118,-992,-2.52,0.07,0.84
-98,-136,-995,-3.15,-0.21,1.4
-94,-157,-998,-2.03,-0.42,1.96
-87,-154,-1005,0.07,-0.14,1.82
-85,-141,-1012,2.73,0.21,2.1
-84,-127,-1015,3.57,0.14,2.66
-90,-118,-1011,2.59,-0.14,2.8
-93,-123,-1004,0.84,-0.35,3.29
-95,-139,-995,-1.61,-0.63,3.71
-93,-153,-991,-3.15,-0.98,3.78
-87,-164,-991,-2.8,-1.05,3.71
-83,-167,-994,-0.84,-0.98,3.5
-80,-155,-996,1.4,-0.91,3.08
-78,-134,-990,2.8,-0.77,2.73
-75,-123,-986,2.87,-0.63,2.73
-71,-123,-978,1.68,-0.63,2.87
-71,-128,-978,-0.14,-0.49,2.87
-77,-135,-976,-1.4,-0.28,2.52
-82,-140,-977,-2.31,-0.14,2.03
-82,-146,-983,-2.31,0.14,1.61
-76,-153,-991,-0.84,0.56,1.33
-71,-148,-997,1.61,0.98,0.91
-76,-131,-1001,3.64,1.26,0.77
-78,-120,-1001,3.99,1.47,0.84
-75,-123,-996,2.73,1.61,1.05
-78,-133,-995,1.12,1.54,1.05
-85,-143,-991,0.56,1.54,1.05
-92,-153,-994,0.84,1.54,0.98
-98,-154,-999,1.68,1.4,0.98
-95,-148,-1001,2.38,0.98,0.98
-89,-138,-1005,2.24,0.49,0.98
-90,-135,-1005,1.26,0.07,0.91
-92,-139,-1006,0.14,-0.28,0.98
-93,-147,-1005,-0.77,-0.63,0.84
-94,-149,-1003,-1.26,-0.98,0.56
-98,-143,-1000,-1.12,-1.12,0.35
-89,-135,-999,-0.98,-1.26,0.35
-82,-132,-1001,-0.77,-1.26,0.49
-80,-133,-1000,-0.07,-1.12,0.63
-80,-129,-997,0.63,-0.98,0.56
-81,-124,-996,0.91,-0.84,0.7
-86,-129,-992,0.0,-0.98,0.7
-86,-132,-992,-1.26,-1.26,0.42
-83,-129,-991,-1.96,-1.4,0.14
-79,-126,-994,-2.52,-1.4,0.07
-77,-131,-996,-2.45,-1.12,0.14
-77,-139,-995,-1.75,-0.91,-0.07
-76,-135,-993,-0.35,-0.63,-0.35
-76,-135,-990,0.91,-0.35,-0.42
-83,-136,-992,1.19,-0.21,-0.56
-84,-128,-995,1.19,-0.28,-0.63
-83,-122,-995,0.42,-0.35,-0.42
-82,-125,-998,-1.19,-0.56,-0.28
-82,-133,-1001,-2.59,-0.63,-0.42
-85,-138,-998,-3.08,-0.7,-0.49
-86,-144,-995,-2.59,-0.63,-0.56
-88,-151,-992,-1.82,-0.63,-0.63
-89,-145,-995,-0.56,-0.56,-0.98
-87,-136,-996,0.77,-0.56,-0.91
-85,-127,-998,0.98,-0.63,-0.77
-85,-115,-1000,0.42,-0.63,-0.7
-83,-118,-998,-0.84,-0.7,-0.21
-82,-129,-994,-2.52,-0.84,-0.28
-88,-142,-996,-3.08,-0.84,-0.7
-91,-145,-998,-2.38,-0.7,-0.91
-93,-142,-996,-1.33,-0.7,-1.05
-94,-137,-995,-0.63,-0.63,-1.12
-91,-134,-998,-0.7,-0.98,-1.19
-87,-129,-1000,-0.91,-1.19,-1.26
-86,-130,-995,-1.26,-1.26,-0.91
-85,-140,-995,-2.1,-1.54,-0.77
-89,-149,-994,-2.59,-1.61,-0.84
-89,-151,-996,-2.24,-1.54,-1.05
-87,-148,-995,-1.26,-1.47,-1.05
-83,-142,-997,-0.49,-1.47,-1.33
-77,-128,-994,-0.21,-1.54,-1.54
-74,-123,-995,-0.35,-1.47,-1.33
-75,-123,-995,-0.7,-1.33,-1.12
-76,-124,-992,-0.91,-1.26,-0.98
-80,-124,-989,-1.4,-1.26,-1.05
-83,-130,-989,-1.82,-1.19,-1.05
-83,-137,-990,-1.89,-0.98,-1.26
-78,-137,-995,-1.54,-0.77,-1.47
-74,-127,-998,-0.84,-0.63,-1.26
-79,-128,-1002,-0.98,-0.49,-1.19
-85,-127,-999,-1.47,-0.56,-1.33
-83,-130,-997,-1.82,-0.49,-1.33
-80,-136,-996,-1.75,-0.49,-1.12
-84,-143,-991,-1.4,-0.63,-1.26
-91,-143,-993,-1.12,-0.91,-1.75
-85,-139,-999,-0.7,-0.84,-1.89
-81,-138,-1005,-0.14,-0.77,-1.68
-85,-134,-1005,0.07,-0.91,-1.82
-90,-122,-1001,-0.07,-0.98,-1.89
-91,-117,-999,-0.84,-1.05,-1.54
-87,-124,-1000,-1.82,-1.12,-1.33
-86,-132,-1000,-2.24,-1.4,-1.26
-82,-137,-997,-2.17,-1.61,-1.26
-79,-136,-999,-1.82,-1.61,-1.4
-82,-131,-1000,-1.19,-1.54,-1.47
-82,-127,-999,-0.49,-1.4,-1.4
-84,-126,-999,-0.49,-1.33,-1.19
-87,-123,-998,-0.84,-1.54,-1.33
-93,-120,-997,-1.26,-1.54,-1.47
-96,-123,-995,-2.1,-1.61,-1.33
-93,-129,-994,-2.87,-1.75,-1.33
-90,-137,-998,-2.52,-1.82,-1.4
-87,-140,-995,-1.54,-1.82,-1.54
-86,-137,-994,-0.42,-1.82,-1.75
-84,-140,-994,0.49,-1.82,-1.89
-83,-142,-993,0.98,-1.82,-2.38
-83,-135,-994,1.19,-1.89,-2.8
-85,-126,-994,0.84,-1.89,-2.87
-83,-122,-995,-0.14,-2.03,-2.8
-80,-122,-994,-1.4,-2.17,-2.59
-75,-125,-996,-2.24,-1.96,-2.52
-75,-127,-999,-1.12,-1.68,-2.1
-80,-125,-997,-0.21,-1.4,-1.89
-79,-120,-994,1.12,-0.91,-1.75
-81,-112,-993,1.33,-0.7,-1.4
-80,-110,-987,0.91,-0.77,-1.19
-78,-142,-984,-0.35,-1.33,-1.33
-71,-133,-1006,0.35,-0.84,-2.45
-92,-97,-986,3.15,-0.14,-1.75
-99,-106,-998,0.77,-0.42,-0.98
-84,-130,-998,-1.26,-0.28,-1.05
-91,-142,-997,-0.35,-0.28,-1.4
-97,-127,-1005,-0.42,-0.49,-1.68
-97,-132,-996,-0.07,-0.56,-1.33
-94,-138,-994,-0.56,-0.77,-1.19
-98,-134,-997,-0.91,-1.05,-1.54
-97,-133,-996,-0.98,-1.4,-1.54
-94,-138,-1000,-0.7,-1.47,-1.33
-93,-135,-1001,-0.49,-1.54,-1.19
-90,-126,-1004,-0.49,-1.61,-1.33
-86,-119,-1001,-0.63,-1.68,-1.26
-81,-120,-999,-1.26,-1.68,-0.98
-82,-125,-999,-1.75,-1.61,-1.05
-81,-130,-996,-1.33,-1.47,-1.12
-82,-126,-994,-0.56,-1.33,-1.19
-83,-117,-994,0.07,-1.33,-1.12
-86,-114,-994,-0.07,-1.4,-0.98
-87,-114,-999,-0.63,-1.4,-0.91
-87,-117,-998,-0.84,-1.33,-0.84
-87,-124,-1000,-0.56,-1.19,-0.49
-90,-125,-999,-0.28,-1.12,-0.42
-89,-118,-995,0.0,-0.98,-0.49
-86,-117,-994,-0.42,-1.05,-0.42
-84,-122,-995,-1.05,-1.19,-0.42
-82,-129,-996,-0.84,-1.12,-0.49
-81,-129,-996,-0.35,-1.05,-0.56
-84,-126,-997,-0.42,-0.91,-0.63
-92,-125,-998,-0.63,-0.84,-0.7
-93,-127,-995,-0.91,-0.77,-0.56
-92,-129,-996,-1.05,-0.84,-0.42
-88,-128,-998,-0.84,-0.91,-0.42
-85,-127,-998,-0.35,-0.98,-0.49
-86,-126,-996,-0.14,-0.98,-0.49
-86,-133,-994,-0.35,-1.05,-0.7
-93,-140,-995,-0.35,-1.12,-0.98
-96,-134,-993,0.0,-1.12,-1.33
-91,-122,-996,0.63,-1.12,-1.33
-85,-117,-997,0.35,-1.19,-1.05
-84,-120,-996,-0.28,-1.26,-0.98
-83,-129,-997,-0.56,-1.19,-0.91
-83,-133,-999,-0.07,-0.98,-0.91
-85,-135,-990,0.91,-0.84,-1.05
-88,-132,-990,1.19,-0.7,-1.26
-92,-125,-993,1.12,-0.63,-1.47
-90,-119,-994,0.98,-0.77,-1.47
-88,-115,-995,0.49,-0.84,-1.4
-86,-114,-998,0.14,-0.91,-1.19
-86,-116,-1000,-0.28,-0.91,-1.05
-89,-119,-1000,-0.56,-0.77,-1.05
-92,-125,-998,-0.49,-0.63,-0.91
-94,-129,-1000,-0.07,-0.56,-0.84
-95,-130,-1000,0.77,-0.42,-0.77
-96,-124,-1001,1.12,-0.56,-0.56
-93,-118,-1001,0.84,-0.63,-0.42
-91,-122,-999,0.21,-0.77,-0.28
-89,-131,-996,-0.56,-0.91,-0.21
-90,-134,-994,-0.56,-0.98,-0.56
-91,-131,-992,0.07,-0.98,-0.63
-94,-130,-996,0.63,-0.91,-0.56
-95,-129,-1000,1.26,-0.84,-0.63
-96,-119,-1002,1.75,-0.77,-0.7
-95,-108,-1001,1.4,-0.7,-0.49
-95,-107,-997,0.35,-0.77,-0.42
-94,-116,-995,-0.91,-0.91,-0.21
-93,-127,-995,-1.12,-0.91,-0.21
-92,-134,-993,-0.35,-0.77,-0.28
-94,-132,-994,0.56,-0.77,-0.63
-95,-128,-992,1.33,-0.7,-0.7
-91,-129,-993,1.61,-0.63,-0.7
-83,-126,-995,1.33,-0.63,-0.91
-78,-128,-993,0.98,-0.63,-0.98
-84,-134,-994,0.56,-0.7,-1.19
-94,-137,-989,0.14,-0.7,-1.61
-95,-140,-990,-0.42,-0.63,-1.89
-93,-135,-998,-0.28,-0.63,-1.82
-95,-134,-999,-1.05,-1.05,-1.96
-94,-126,-1004,-1.4,-1.12,-2.17
-88,-120,-1002,-1.68,-1.12,-1.82
-90,-123,-1001,-1.68,-1.19,-1.47
-90,-131,-996,-0.91,-1.05,-1.33
-89,-132,-996,0.35,-0.77,-1.05
-84,-127,-992,1.4,-0.77,-1.12
-82,-121,-991,1.82,-0.77,-1.19
-83,-121,-995,1.47,-0.7,-0.98
-83,-125,-996,0.91,-0.63,-1.05
-87,-124,-997,0.14,-0.63,-1.12
-95,-123,-996,-0.84,-0.63,-0.98
-94,-125,-995,-2.03,-0.7,-1.05
-91,-135,-994,-2.59,-0.77,-0.84
-89,-148,-997,-1.89,-0.77,-0.77
-86,-147,-1000,0.07,-0.7,-1.05
-87,-131,-1003,2.17,-0.49,-1.12
-89,-111,-1000,2.94,-0.49,-0.7
-92,-105,-998,1.89,-0.56,-0.28
-92,-111,-995,0.21,-0.63,0.28
-90,-124,-995,-0.98,-0.77,0.63
-91,-137,-994,-1.4,-0.98,0.7
-92,-141,-995,-1.05,-1.05,0.56
-91,-139,-1000,0.0,-0.84,0.56
-87,-139,-1001,1.19,-0.63,0.63
-87,-136,-1001,2.45,-0.49,0.49
-87,-127,-1000,3.71,-0.35,0.56
-91,-120,-996,4.2,-0.28,0.77
-94,-113,-996,4.06,-0.14,0.98
-91,-108,-997,3.43,0.0,1.4
-88,-107,-1000,2.31,-0.07,1.54
-91,-110,-1002,0.77,-0.14,1.61
-92,-113,-1006,-0.56,-0.21,1.61
-87,-117,-1002,-0.98,-0.07,1.68
-85,-123,-997,-0.98,-0.07,1.68
-90,-128,-993,-0.63,-0.07,1.4
-94,-132,-986,-0.21,-0.21,1.26
-97,-130,-988,-0.56,-0.42,0.98
-95,-130,-991,-0.63,-0.49,0.77
-91,-136,-993,-0.77,-0.63,0.63
-87,-141,-997,-0.7,-0.7,0.21
-91,-143,-1000,-0.07,-0.63,-0.14
-96,-133,-999,0.63,-0.63,-0.49
-99,-122,-998,0.98,-0.7,-0.49
-100,-121,-996,0.35,-0.91,-0.21
-96,-122,-997,-0.42,-1.05,-0.21
-93,-126,-998,-0.49,-1.12,0.07
