acc_x[mg],acc_y[mg],acc_z[mg],gyro_x[dps],gyro_y[dps],gyro_z[dps]
-442,645,843,81.76,51.66,-10.57
-512,676,823,53.27,46.9,-11.62
-551,683,878,24.99,45.5,-13.23
-595,668,920,-6.3,45.85,-14.07
-566,499,922,-30.45,46.76,-16.1
-518,350,901,-40.18,47.6,-17.43
-473,253,836,-34.72,47.04,-16.66
-444,198,815,-18.55,44.73,-13.3
-492,246,837,-3.29,41.86,-10.43
-547,317,829,5.04,39.69,-10.08
-558,346,764,6.23,40.67,-11.41
-524,370,666,3.15,45.01,-12.88
-470,385,628,-5.95,51.87,-14.42
-474,415,620,-22.54,59.78,-17.64
-490,394,642,-37.1,66.29,-21.98
-544,390,708,-49.77,69.86,-24.22
-603,427,766,-55.44,67.41,-25.27
-606,382,749,-62.37,60.48,-23.45
-550,301,681,-75.53,53.76,-21.35
-464,190,614,-89.95,50.05,-23.24
-419,73,611,-95.06,47.74,-27.44
-427,26,655,-79.8,44.66,-29.33
-444,42,677,-55.3,40.88,-25.06
-444,44,684,-35.35,38.57,-17.57
-492,66,801,-22.61,37.03,-11.9
-593,120,1040,-13.3,30.38,-8.12
-564,71,974,-2.59,19.25,-5.18
-398,24,781,11.41,14.49,-4.27
-356,40,680,11.76,14.63,-3.71
-427,28,634,7.63,16.59,-3.08
-497,1,689,7.0,19.39,-3.15
-561,39,836,6.37,20.02,-5.81
-588,99,935,3.5,17.01,-8.89
-570,153,924,0.7,13.09,-8.89
-556,220,897,-3.36,10.5,-7.98
-588,256,867,-15.33,7.56,-7.0
-617,183,816,-29.05,5.11,-6.79
-630,91,802,-35.35,4.83,-7.91
-633,21,805,-30.87,7.28,-10.15
-632,-38,815,-19.11,11.97,-11.9
-621,-84,818,-3.99,16.31,-12.32
-594,-106,800,14.28,20.86,-11.62
-590,-63,773,34.58,26.25,-8.82
-592,32,746,59.36,31.15,-3.22
-580,98,715,78.61,33.81,4.06
-573,224,693,89.53,33.04,9.38
-564,341,682,91.42,29.05,11.62
-566,454,676,84.07,22.54,11.69
-554,548,672,70.07,14.0,10.71
-559,536,649,46.55,4.06,10.22
-604,512,640,25.13,-4.62,8.75
-668,420,652,7.84,-11.06,6.65
-728,315,665,-1.26,-14.91,5.18
-776,217,677,-0.98,-16.45,3.5
-769,167,705,8.12,-16.03,2.03
-693,214,704,22.89,-13.86,1.82
-625,343,723,34.37,-10.71,3.85
-599,402,776,31.85,-9.1,6.51
-586,350,794,19.39,-9.73,6.65
-572,312,794,8.82,-10.92,4.34
-570,299,790,1.89,-11.55,2.24
-597,298,795,-2.24,-11.13,1.61
-629,278,799,-4.83,-8.96,1.96
-637,267,804,-6.86,-6.44,1.61
-602,284,817,-7.84,-3.99,0.0
-531,299,799,-6.37,-1.54,-1.82
-497,317,769,-3.99,0.21,-2.52
-524,320,756,-3.22,0.63,-1.89
-578,294,758,-4.9,0.56,-1.26
-607,274,757,-5.81,0.56,-1.89
-614,274,751,-5.67,0.63,-2.73
-608,288,750,-5.46,0.56,-3.29
-594,311,763,-5.95,0.7,-3.43
-568,321,691,-7.63,1.4,-3.57
-562,253,817,-12.6,1.26,-3.71
-673,164,698,-17.5,-1.47,-0.49
-705,9,743,-16.73,-0.35,-0.49
-732,190,734,-3.22,2.66,-1.33
-553,205,757,15.61,6.23,-1.4
-513,402,769,24.78,7.28,1.19
-553,465,799,11.83,5.88,1.33
-614,371,731,-8.19,2.8,-0.77
-657,280,727,-22.4,0.07,-3.43
-663,251,716,-23.87,-0.91,-5.53
-618,238,709,-17.99,-1.33,-5.88
-594,260,711,-14.0,-1.96,-4.34
-607,284,749,-18.2,-3.15,-2.59
-622,239,771,-27.51,-4.06,-1.75
-603,153,758,-34.09,-4.69,-1.33
-577,72,738,-32.2,-4.69,-0.7
-575,57,726,-20.51,-3.99,0.14
-616,97,738,-7.91,-2.87,1.54
-650,177,750,-0.35,-1.96,2.94
-653,224,756,-0.91,-1.54,3.99
-652,252,750,-5.39,-1.82,4.27
-650,255,729,-9.87,-2.52,3.92
-646,243,701,-12.25,-3.5,3.64
-648,246,694,-13.44,-4.9,3.57
-648,277,721,-14.84,-5.53,3.78
-628,281,749,-17.29,-5.67,4.2
-599,244,762,-20.51,-5.95,4.69
-577,194,752,-21.49,-6.51,4.97
-553,154,742,-19.11,-7.7,5.53
-543,160,741,-13.79,-8.89,6.58
-560,195,738,-8.96,-10.15,7.77
-590,218,746,-7.56,-11.55,8.75
-631,226,768,-10.01,-12.74,9.1
-648,210,766,-12.6,-14.07,8.61
-639,193,746,-14.42,-15.54,7.98
-615,191,739,-13.86,-16.87,7.7
-614,214,745,-11.9,-17.57,8.12
-609,223,735,-10.36,-18.48,8.33
-606,222,743,-11.62,-19.74,7.84
-610,243,749,-12.74,-20.79,7.14
-596,248,738,-11.69,-22.33,6.51
-579,264,732,-10.43,-24.57,6.37
-580,280,758,-12.6,-26.25,6.93
-586,260,781,-17.78,-27.51,7.07
-580,198,781,-21.56,-28.98,6.58
-567,145,784,-21.49,-30.1,6.02
-564,137,788,-18.34,-30.38,5.67
-555,137,794,-15.05,-30.38,5.95
-546,132,800,-14.56,-30.8,6.93
-554,119,826,-15.75,-30.94,7.49
-561,93,823,-14.0,-30.52,7.35
-537,57,807,-6.86,-30.17,7.0
-537,80,807,1.12,-29.47,7.07
-549,129,820,7.42,-28.42,7.28
-531,165,821,11.27,-27.86,7.42
-519,212,824,12.53,-28.0,7.84
-524,238,830,11.2,-28.49,8.12
-517,239,831,7.98,-29.05,7.84
-501,226,828,4.97,-29.89,7.21
-494,229,837,2.8,-30.17,6.51
-493,223,841,0.63,-30.03,6.3
-494,211,831,0.49,-29.96,5.95
-518,218,835,-0.14,-29.61,5.81
-528,237,860,-2.1,-28.42,5.32
-493,250,880,-5.95,-26.95,5.32
-444,249,890,-9.73,-25.83,5.25
-423,235,893,-11.62,-24.99,5.04
-439,224,898,-12.39,-23.66,4.55
-464,219,908,-13.72,-22.05,3.78
-465,197,901,-15.54,-20.65,3.08
-446,180,892,-15.68,-19.18,2.52
-431,187,883,-14.21,-17.71,2.17
-427,188,874,-12.88,-16.73,2.31
-436,190,872,-11.83,-16.24,1.96
-430,198,879,-10.99,-15.54,1.75
-399,204,894,-10.57,-14.7,2.03
-383,194,899,-10.29,-14.14,2.45
-382,174,906,-7.84,-13.79,2.45
-387,184,907,-5.11,-13.02,2.1
-379,181,914,-4.83,-12.39,2.17
-381,165,918,-7.07,-12.11,2.1
-391,147,916,-7.84,-11.76,1.54
-402,135,908,-6.86,-11.2,1.05
-414,124,902,-5.04,-10.64,0.7
-416,129,900,-1.54,-9.8,0.21
-390,136,894,2.94,-8.75,-0.21
-369,149,885,8.05,-7.77,0.07
-376,165,886,12.39,-7.14,0.84
-393,198,901,14.56,-6.51,1.33
-383,204,910,14.63,-6.23,1.26
-379,195,908,14.28,-6.23,0.98
-388,194,908,14.07,-5.81,0.63
-401,193,907,14.63,-5.32,0.35
-407,180,900,14.84,-4.76,0.28
-415,170,898,15.12,-3.78,0.35
-425,162,903,16.03,-2.52,0.42
-416,164,901,17.99,-1.47,0.42
-399,166,892,20.09,-0.77,0.56
-416,189,890,20.79,0.0,0.7
-425,208,895,20.72,0.84,0.42
-411,215,896,19.53,1.33,0.42
-409,209,894,18.13,1.68,0.28
-409,202,892,18.76,2.17,0.14
-405,202,893,19.81,2.8,0.0
-397,210,889,20.86,3.36,0.0
-409,225,884,21.77,3.78,0.07
-422,243,883,22.54,4.2,0.21
-419,258,881,21.0,4.48,0.28
-411,263,880,18.83,4.69,0.07
-415,258,879,16.66,5.04,0.14
-427,251,879,15.47,5.39,0.21
-426,252,873,15.82,5.74,0.0
-423,259,867,15.82,5.95,-0.28
-428,262,860,15.54,6.09,-0.56
-423,262,851,15.33,5.88,-0.56
-421,266,841,14.77,5.46,-0.42
-429,263,838,14.35,4.97,-0.07
-429,260,835,14.56,4.41,0.14
-429,266,836,14.7,3.92,0.42
-438,274,840,14.77,3.36,0.77
-440,281,845,14.91,2.73,0.84
-438,298,846,15.33,2.31,0.77
-438,303,845,14.84,1.89,0.98
-441,306,840,13.02,1.33,0.84
-450,313,841,10.78,0.56,0.77
-456,317,843,7.07,-0.21,0.84
-456,316,844,2.94,-0.91,0.7
-451,304,847,-0.35,-1.4,0.49
-444,299,848,-2.66,-1.82,0.49
-438,292,849,-4.27,-2.03,0.63
-434,274,850,-5.6,-2.31,0.7
-434,259,850,-6.09,-2.52,0.56
-432,252,853,-5.32,-2.66,0.28
-427,250,849,-3.64,-2.73,0.21
-426,254,856,-2.31,-2.73,0.42
-421,253,856,-1.4,-2.52,0.49
-425,254,857,0.49,-2.31,0.56
-435,268,857,2.45,-1.96,0.7
-439,282,861,3.01,-1.68,0.91
-444,293,862,2.17,-1.68,0.77
-449,295,859,0.77,-1.61,0.56
-451,287,856,-0.91,-1.68,0.35
-450,276,855,-2.31,-1.75,-0.14
-437,269,860,-3.08,-1.61,-0.35
-426,261,858,-3.08,-1.54,-0.49
-413,256,861,-1.61,-1.19,-0.49
-405,259,867,0.07,-0.56,-0.35
-403,266,869,1.47,0.0,-0.28
-407,273,866,2.24,0.28,-0.14
-413,282,862,2.31,0.49,-0.14
-418,292,861,2.03,0.63,-0.21
-420,298,855,1.33,0.77,-0.21
-425,299,854,-0.35,0.77,-0.21
-435,294,856,-2.38,0.77,-0.35
-435,276,854,-3.71,0.84,-0.35
-438,265,854,-4.2,0.77,-0.42
-445,258,856,-4.48,0.84,-0.49
-442,255,855,-4.27,0.84,-0.63
-432,266,855,-3.92,0.91,-0.63
-425,280,855,-4.2,0.91,-0.56
-422,289,855,-5.11,1.05,-0.7
-420,293,854,-5.32,0.91,-0.63
-420,271,853,-5.81,0.56,-0.28
-417,254,856,-6.23,0.35,-0.49
-419,240,854,-4.69,0.21,-0.49
-420,241,854,-1.82,0.21,0.0
-425,249,858,0.56,0.35,0.77
-430,254,863,1.12,0.42,1.05
-438,259,857,0.84,0.14,0.91
-447,255,853,0.14,-0.28,0.63
-454,252,847,-0.28,-0.56,0.49
-454,259,844,0.0,-0.77,0.42
-451,263,846,0.28,-0.84,0.56
-452,260,845,0.21,-1.12,0.63
-452,256,847,0.49,-1.26,0.63
-453,256,843,1.19,-1.47,0.63
-446,263,843,1.75,-1.75,0.7
-436,276,846,1.68,-2.17,0.77
-430,286,852,0.7,-2.59,0.7
-428,285,852,-0.49,-3.08,0.77
-434,274,850,-1.54,-3.57,0.77
-443,268,852,-1.89,-3.71,0.77
-446,261,854,-2.17,-3.71,0.91
-450,258,851,-2.17,-3.78,0.98
-449,256,856,-2.03,-3.78,0.98
-442,268,856,-2.31,-3.57,0.84
-425,270,857,-2.38,-3.71,0.7
-417,277,858,-2.87,-3.99,0.63
-419,279,858,-3.36,-4.13,0.77
-418,273,862,-4.48,-4.27,1.12
-413,262,869,-5.6,-4.13,1.05
-407,241,864,-4.97,-3.99,0.98
-413,233,864,-3.01,-3.78,1.05
-429,242,861,-1.26,-3.5,1.19
-427,254,860,0.42,-3.22,1.19
-416,275,859,0.49,-3.22,1.33
-414,281,859,-0.98,-3.64,1.54
-422,273,858,-2.66,-4.13,1.68
-425,259,858,-4.06,-4.55,1.61
-422,253,859,-4.06,-4.55,1.4
-420,247,868,-2.87,-4.27,1.47
-417,258,879,-1.61,-3.78,1.4
-400,264,886,-0.84,-3.01,1.4
-391,257,889,-0.98,-2.38,1.54
-396,250,885,-0.49,-1.68,1.4
-406,246,882,0.35,-1.05,1.19
-408,248,883,0.77,-0.42,0.91
-418,246,881,0.84,0.28,0.63
-425,236,876,1.96,0.91,0.35
-434,241,868,3.29,1.47,0.28
-434,248,866,5.04,2.03,0.21
-425,255,860,6.51,2.45,0.21
-422,266,858,7.63,2.52,0.21
-427,273,856,8.19,2.45,0.07
-422,277,857,7.21,2.31,0.07
-414,275,860,6.02,2.03,0.0
-410,274,862,5.25,1.89,-0.14
-407,274,863,5.39,2.03,-0.14
-409,282,865,5.6,2.24,-0.07
-416,285,865,5.32,2.45,0.0
-426,285,865,4.62,2.59,0.0
-434,282,863,3.64,2.73,-0.14
-435,279,862,3.08,2.94,-0.28
-433,277,857,3.01,3.15,-0.42
-432,275,856,2.73,3.15,-0.42
-433,274,855,2.1,3.08,-0.28
-432,265,850,1.61,2.87,-0.21
-433,258,846,1.82,2.66,-0.14
-437,260,844,2.24,2.59,0.14
-436,262,851,2.24,2.38,0.49
-429,271,848,2.8,2.17,0.63
-426,270,849,3.01,1.82,0.77
-432,274,851,2.31,1.47,0.84
-432,274,851,1.82,1.26,0.84
-429,278,850,1.47,1.05,0.91
-431,281,850,1.12,0.91,1.19
-432,284,850,0.42,0.63,1.33
-431,288,850,-0.49,0.28,1.26
-433,288,848,-1.4,0.0,1.19
-434,286,847,-2.03,-0.28,1.33
-436,285,844,-1.96,-0.42,1.33
-437,285,843,-1.82,-0.63,1.54
-447,287,842,-2.52,-1.05,1.75
-451,282,843,-3.99,-1.47,1.75
-452,277,837,-4.76,-2.03,1.61
-448,277,845,-5.46,-2.52,1.61
-446,275,842,-6.23,-3.01,1.61
-445,274,846,-6.93,-3.5,1.54
-443,275,853,-7.14,-3.78,1.61
-426,261,858,-6.93,-3.78,1.61
-420,261,858,-6.23,-3.64,1.68
-415,264,854,-4.83,-3.57,1.47
-420,268,857,-3.57,-3.43,1.47
-429,275,861,-3.5,-3.36,1.47
-438,271,863,-4.55,-3.43,1.26
-438,266,863,-5.32,-3.29,0.84
-431,261,860,-4.76,-3.01,0.7
-430,268,861,-3.71,-2.73,0.77
-434,275,865,-3.64,-2.38,0.91
-433,277,864,-4.27,-2.31,0.77
-431,272,864,-5.67,-2.52,0.63
-431,265,858,-6.51,-2.73,0.35
-430,269,857,-6.3,-2.73,0.21
-420,273,859,-6.65,-2.66,0.42
-412,275,860,-7.63,-2.87,0.77
-400,266,863,-8.75,-3.22,0.77
-396,255,867,-9.24,-3.43,0.77
-396,243,868,-9.03,-3.57,0.77
-402,228,869,-8.05,-3.57,0.77
-414,220,871,-6.3,-3.36,0.77
-421,213,872,-3.92,-2.87,0.91
-420,210,870,-1.19,-2.38,0.91
-420,217,871,1.47,-1.75,0.91
-419,233,874,3.99,-1.12,0.98
-412,241,873,5.46,-0.63,0.98
-408,250,872,6.3,-0.42,0.98
-411,261,872,6.86,-0.21,0.7
-414,258,867,6.79,-0.14,0.63
-424,262,869,6.51,-0.14,0.35
-423,264,866,6.37,0.07,0.21
-416,266,861,6.51,0.21,0.07
-419,275,860,7.07,0.28,0.07
-425,287,859,6.93,0.35,0.07
-420,294,857,5.81,0.07,0.0
-420,303,860,4.06,-0.28,0.0
-424,295,856,1.75,-0.63,0.07
-427,281,859,0.42,-1.12,-0.07
-438,274,856,-0.84,-1.33,-0.21
-436,263,863,-1.33,-1.33,-0.42
-430,262,866,-1.19,-1.26,-0.49
-421,265,866,-1.05,-1.05,-0.49
-414,263,872,-1.26,-0.84,-0.35
-415,258,870,-1.68,-0.7,-0.28
-418,252,866,-1.47,-0.7,-0.28
-418,255,863,-0.84,-0.56,-0.35
-420,256,863,-0.49,-0.56,-0.42
-424,255,863,-1.05,-0.63,-0.28
-421,252,863,-1.05,-0.63,-0.35
-418,247,860,-0.07,-0.49,-0.28
-417,249,857,1.82,-0.42,-0.07
-420,263,858,2.94,-0.42,0.14
-422,266,858,2.66,-0.63,0.35
-425,262,855,2.03,-0.98,0.49
-422,259,859,2.03,-1.33,0.49
-418,258,861,1.68,-1.54,0.56
-414,257,865,1.68,-1.68,0.49
-406,262,865,2.1,-1.54,0.42
-403,270,870,2.52,-1.4,0.49
-412,271,866,2.52,-1.12,0.63
-418,270,865,3.08,-1.12,0.42
-432,276,857,2.59,-0.91,0.49
-435,268,861,2.17,-0.91,0.49
-438,267,854,2.1,-0.91,0.49
-436,262,856,2.59,-0.98,0.49
-436,273,859,2.59,-1.19,0.35
-426,276,859,1.68,-1.33,0.14
-408,273,859,1.61,-1.54,0.0
-398,278,860,2.52,-1.54,0.0
-403,283,862,2.66,-1.47,0.14
-408,290,870,1.89,-1.4,0.28
-409,284,865,0.63,-1.47,0.21
-413,275,863,0.42,-1.61,0.0
-429,281,863,0.35,-1.47,0.0
-437,281,862,-0.14,-1.19,-0.14
-438,279,861,-0.91,-1.26,-0.21
-440,276,861,-1.82,-1.19,-0.28
-435,277,865,-2.59,-1.05,-0.42
-421,273,867,-3.43,-1.05,-0.42
-417,265,868,-4.06,-0.98,-0.28
-418,254,871,-4.41,-0.84,-0.14
-415,244,872,-4.34,-0.7,-0.28
-412,234,870,-3.15,-0.42,-0.35
-407,227,868,-0.98,0.0,-0.21
-403,232,866,1.61,0.56,0.0
-402,247,862,3.71,0.91,0.35
-408,252,861,4.83,1.05,0.56
-416,261,863,5.25,1.12,0.77
-422,268,863,5.25,1.12,0.84
-426,264,859,4.9,1.05,0.91
-430,266,858,4.97,1.05,0.91
-435,269,857,5.32,1.05,0.84
-427,267,858,5.39,1.12,0.91
-424,274,856,5.11,1.12,0.98
-417,284,856,5.32,1.19,0.91
-407,297,856,4.97,1.05,0.98
-406,309,856,3.22,0.7,1.12
-412,311,861,1.12,0.56,1.19
-414,304,858,-0.49,0.35,1.05
-418,298,857,-1.68,0.28,1.05
-426,294,857,-2.52,0.28,1.05
-428,290,855,-2.66,0.21,0.98
-435,276,855,-3.22,0.07,1.05
-443,270,855,-3.43,-0.21,0.7
-438,261,851,-3.36,-0.42,0.42
-425,258,855,-3.01,-0.56,0.28
-416,256,851,-2.03,-0.7,0.28
-404,262,856,-0.49,-0.7,0.49
-397,277,859,0.14,-0.7,0.77
-397,284,865,0.0,-0.84,0.84
-402,283,868,-0.49,-0.91,0.84
-413,278,871,-0.91,-0.77,0.84
-421,266,874,-0.84,-0.35,0.7
-424,257,873,0.42,0.35,0.42
-422,255,863,2.45,1.12,0.28
-422,260,870,4.13,1.75,0.35
-438,271,863,4.48,2.38,0.35
-433,279,864,4.83,2.73,0.14
-423,289,860,4.06,2.87,0.07
-418,284,859,2.52,2.8,0.07
-421,277,856,1.61,2.66,-0.07
-423,273,854,1.4,2.66,0.0
-418,268,854,1.82,2.66,-0.07
-416,270,853,2.73,2.73,-0.07
-419,272,851,3.92,2.73,-0.07
-424,268,849,4.97,2.59,0.0
-431,269,846,6.16,2.52,0.14
-443,275,843,6.72,2.45,0.14
-446,280,842,6.72,2.17,0.14
-447,284,840,6.23,1.75,0.21
-444,288,839,5.53,1.26,0.28
-437,295,841,4.76,0.7,0.21
-434,298,842,3.71,0.28,0.14
-427,296,842,2.8,-0.21,0.14
-421,299,844,2.52,-0.56,0.14
-421,303,844,2.38,-0.84,0.28
-424,308,846,2.17,-1.05,0.35
-430,312,846,1.05,-1.26,0.42
-441,309,848,-0.28,-1.54,0.35
-444,305,846,-1.4,-1.75,0.28
-442,302,844,-2.73,-2.1,0.07
-441,297,846,-4.13,-2.38,0.07
-440,290,846,-5.46,-2.73,0.0
-434,284,852,-6.16,-3.01,-0.07
-427,278,854,-6.44,-3.08,0.0
-419,274,856,-6.3,-3.01,0.0
-413,264,858,-5.67,-2.94,-0.07
-413,255,863,-4.48,-2.66,0.0
-414,256,863,-2.45,-2.17,-0.07
-411,264,862,-0.07,-1.4,0.0
-417,265,859,1.68,-0.91,0.21
-425,279,864,2.52,-0.35,0.35
-434,278,860,2.73,-0.21,0.42
-443,275,856,2.24,-0.14,0.28
-448,275,856,1.75,0.07,0.0
-441,272,855,1.82,0.28,-0.14
-431,271,852,2.24,0.42,-0.14
-427,273,853,3.01,0.56,-0.07
-427,279,851,3.57,0.77,0.07
-420,278,851,4.2,0.84,0.0
-415,280,848,4.83,0.77,0.07
-414,286,849,5.32,0.77,0.14
-412,293,851,5.32,0.77,0.35
-414,295,853,4.83,0.56,0.49
-422,296,852,4.27,0.49,0.7
-427,296,849,4.13,0.49,0.84
-436,296,849,3.43,0.42,0.91
-444,295,846,2.59,0.21,0.7
-447,293,843,1.82,0.07,0.63
-445,295,843,0.91,-0.14,0.49
-440,292,840,0.35,-0.42,0.35
-435,292,844,0.07,-0.63,0.35
-426,297,845,-0.21,-0.84,0.35
-411,299,848,0.0,-0.98,0.35
-408,305,849,0.28,-1.05,0.56
-414,312,851,0.21,-1.19,0.77
-426,307,854,-1.19,-1.26,0.91
-433,295,853,-2.73,-1.47,0.91
-434,290,852,-3.22,-1.54,0.63
-435,287,852,-3.29,-1.47,0.56
-436,281,853,-3.36,-1.4,0.63
-436,279,853,-3.22,-1.4,0.63
-436,274,853,-3.15,-1.26,0.7
-435,268,852,-2.73,-1.12,0.7
-432,264,852,-1.82,-0.84,0.63
-429,266,850,0.21,-0.63,0.56
-429,274,848,2.17,-0.35,0.7
-432,288,849,2.94,-0.14,0.84
-431,300,850,2.8,-0.21,0.91
-424,303,850,1.96,-0.42,0.91
-422,302,850,0.84,-0.7,0.91
-424,294,849,0.14,-0.84,0.77
-430,287,843,0.35,-1.05,0.63
-438,285,840,0.91,-1.19,0.63
-442,286,844,1.12,-1.26,0.56
-441,284,847,0.91,-1.33,0.63
-433,280,848,1.33,-1.4,0.56
-427,280,852,2.24,-1.33,0.56
-421,284,854,2.73,-1.26,0.63
-418,288,856,3.01,-1.19,0.63
-419,285,855,2.52,-1.12,0.56
-420,281,858,2.38,-0.98,0.28
-423,282,850,3.08,-0.84,0.14
-430,284,850,3.85,-0.56,0.07
-430,292,852,4.69,-0.49,0.0
-429,302,840,5.18,-0.42,-0.14
-428,304,842,5.04,-0.56,-0.07
-436,308,841,4.76,-0.77,0.0
-439,303,843,4.34,-0.91,0.14
-431,306,847,3.78,-0.91,0.0
-419,306,850,3.5,-0.91,-0.07
-412,306,856,3.01,-0.91,-0.07
-419,307,851,2.17,-0.91,-0.07
-426,302,854,1.82,-0.91,-0.07
-431,306,855,0.98,-0.77,-0.21
-424,305,855,0.21,-0.49,-0.49
-416,301,852,0.07,-0.35,-0.7
-416,306,849,0.63,-0.07,-0.77
-421,309,846,1.05,0.14,-0.77
-427,312,842,0.77,0.07,-0.7
-434,312,840,0.14,-0.21,-0.7
-438,306,835,-0.35,-0.49,-0.77
-440,308,836,-0.84,-0.91,-0.77
-439,307,836,-1.4,-1.26,-0.84
-439,301,837,-2.03,-1.68,-0.77
-442,299,838,-2.66,-2.1,-0.77
-436,297,842,-2.94,-2.45,-0.91
-427,297,844,-2.94,-2.73,-0.91
-416,299,848,-2.59,-2.87,-0.98
-411,311,852,-2.24,-2.73,-1.05
-403,316,856,-2.52,-2.66,-0.98
-400,315,858,-3.01,-2.59,-0.98
-414,315,855,-3.57,-2.45,-0.98
-434,304,851,-4.06,-2.24,-0.98
-454,299,848,-4.69,-2.24,-1.05
-457,294,847,-5.46,-2.17,-1.12
-447,292,850,-6.3,-2.17,-1.26
-432,287,851,-7.07,-2.24,-1.47
-418,278,851,-6.93,-2.24,-1.4
-413,273,850,-6.3,-2.31,-1.19
-416,269,851,-5.74,-2.31,-0.98
-419,268,855,-5.18,-2.38,-0.84
-416,265,857,-4.69,-2.31,-0.63
-410,261,855,-3.64,-2.1,-0.56
-411,264,855,-2.03,-1.89,-0.42
-417,272,858,-0.7,-1.61,-0.21
-419,281,859,0.0,-1.47,0.0
-420,279,857,0.28,-1.54,0.21
-424,283,857,0.49,-1.4,0.28
-428,284,855,0.63,-1.19,0.28
-428,287,853,0.56,-1.19,0.28
-430,286,856,0.0,-1.19,0.28
-432,284,857,-0.56,-1.19,0.28
-432,277,859,-0.98,-1.12,0.28
-429,269,856,-0.49,-0.98,0.28
-419,265,859,0.35,-0.63,0.35
-414,266,856,1.68,-0.35,0.49
-414,275,857,2.8,-0.21,0.63
-420,276,853,2.73,-0.14,0.91
-423,276,848,3.15,-0.35,0.98
-430,278,847,3.71,-0.42,1.05
-440,279,843,3.71,-0.63,1.19
-441,282,844,3.64,-0.91,1.05
-441,275,839,3.43,-1.33,1.19
-435,273,839,4.69,-1.68,1.26
-433,284,843,5.6,-1.82,1.4
-422,292,848,5.74,-2.03,1.61
-411,300,852,5.32,-2.17,1.61
-407,303,853,4.83,-2.31,1.68
-410,308,855,3.99,-2.45,1.82
-412,311,859,2.73,-2.59,1.75
-410,313,859,1.54,-2.59,1.68
-409,316,864,0.49,-2.31,1.54
-408,308,861,-0.14,-2.03,1.4
-414,304,860,-0.28,-1.82,1.26
-429,298,856,-0.14,-1.54,1.26
-437,293,855,0.14,-1.26,1.33
-434,292,853,0.21,-1.12,1.12
-429,294,854,0.28,-0.84,0.91
-415,301,858,0.7,-0.63,0.7
-403,305,857,0.49,-0.56,0.77
-397,307,857,-0.28,-0.49,0.84
-396,303,858,-1.05,-0.56,0.77
-400,295,859,-0.98,-0.49,0.77
-401,291,860,-0.63,-0.28,0.63
-405,293,860,0.49,0.14,0.49
-411,295,857,1.89,0.56,0.42
-418,304,856,2.87,0.91,0.56
-420,307,858,3.08,1.26,0.63
-424,306,858,2.31,1.54,0.7
-423,302,859,1.12,1.68,0.49
-423,284,857,0.14,1.68,0.28
-423,277,854,0.35,1.75,0.07
-427,279,853,1.19,1.96,0.0
-429,281,850,1.68,2.03,0.0
-432,282,848,2.24,2.1,-0.07
-429,281,842,3.29,2.17,-0.14
-422,291,841,4.48,2.24,-0.14
-418,304,841,5.32,2.17,-0.14
-416,313,842,5.6,1.96,-0.07
-419,320,837,5.32,1.61,-0.07
-429,322,837,4.55,1.26,0.0
-441,322,835,3.36,0.84,0.07
-440,322,839,2.52,0.49,0.07
-439,319,838,1.19,0.14,0.07
-438,311,839,-0.21,-0.35,0.0
-436,306,837,-1.19,-0.91,-0.07
-432,303,839,-2.03,-1.33,-0.14
-426,299,840,-2.73,-1.82,-0.14
-416,301,841,-2.45,-2.31,-0.28
-420,309,841,-2.1,-2.59,-0.28
-426,312,840,-1.89,-2.87,-0.14
-430,317,839,-1.96,-3.15,-0.07
-435,323,840,-2.31,-3.36,0.0
-429,330,840,-2.73,-3.64,0.0
-427,333,839,-4.06,-3.99,0.0
-428,328,838,-6.09,-4.62,0.0
-434,319,840,-8.12,-5.18,0.0
-445,309,844,-9.87,-5.6,0.0
-446,296,849,-11.2,-5.95,-0.35
-437,277,851,-12.04,-6.23,-0.49
-427,270,853,-11.69,-6.23,-0.7
-414,269,855,-10.15,-5.95,-0.77
-403,275,856,-8.33,-5.74,-0.7
-401,286,862,-7.84,-5.53,-0.49
-399,281,863,-7.77,-5.46,-0.42
-395,275,862,-7.0,-5.53,-0.35
-398,268,861,-5.67,-5.32,-0.28
-408,266,861,-4.13,-4.97,-0.07
-418,271,864,-3.29,-4.62,0.21
-422,273,865,-2.94,-4.55,0.21
-417,273,867,-2.94,-4.34,0.14
-411,277,867,-3.15,-4.13,-0.07
-408,280,866,-3.36,-3.85,-0.07
-409,273,864,-3.43,-3.71,0.0
-411,275,866,-3.22,-3.43,0.07
-410,276,866,-2.8,-3.08,0.07
-407,270,869,-2.73,-2.73,0.14
-404,270,870,-2.31,-2.59,0.07
-403,271,871,-1.54,-2.31,0.0
-400,267,876,-1.12,-1.96,0.0
-395,265,876,-0.28,-1.47,0.0
-390,263,876,1.19,-0.91,0.07
-395,264,880,2.1,-0.21,0.28
-402,260,877,2.87,0.42,0.28
-404,257,873,4.27,1.05,0.21
-408,265,869,5.88,1.61,0.21
-409,279,869,6.79,1.96,0.35
-407,292,864,6.65,2.17,0.42
-402,300,863,5.95,2.24,0.35
-402,304,861,4.9,2.1,0.42
-406,304,858,3.57,1.89,0.49
-409,295,857,2.31,1.68,0.56
-414,284,856,1.4,1.47,0.63
-419,275,851,1.75,1.4,0.7
-420,272,849,2.8,1.33,0.77
-426,275,850,3.36,1.19,0.91
-427,276,851,3.57,0.91,1.12
-420,278,852,3.57,0.7,1.26
-415,279,853,3.5,0.42,1.4
-413,279,853,3.43,0.21,1.54
-412,279,854,3.78,0.07,1.68
-409,282,856,4.34,0.0,1.61
-413,288,855,4.62,0.0,1.68
-414,289,854,5.04,-0.07,1.82
-417,293,852,5.32,-0.21,1.89
-418,296,849,5.67,-0.28,1.96
-426,299,849,5.46,-0.35,2.1
-433,303,851,4.55,-0.63,2.1
-426,301,853,3.64,-0.77,2.1
-416,297,853,3.29,-0.84,2.1
-412,291,854,3.22,-0.77,2.1
-415,280,856,3.08,-0.7,2.24
-417,270,857,3.5,-0.77,2.24
-412,265,862,5.11,-0.63,2.1
-403,261,862,6.65,-0.14,2.24
-390,259,862,9.45,0.28,2.17
-391,262,860,12.67,0.98,2.38
-407,264,859,15.75,1.75,2.73
-413,272,858,18.76,2.52,2.94
-411,286,851,21.28,3.15,3.15
-411,306,850,23.24,3.57,3.22
-416,328,848,23.31,3.78,3.22
-421,340,845,21.84,3.5,3.08
-423,345,839,19.95,3.08,2.66
-421,349,835,18.76,2.87,2.17
-418,353,832,18.27,2.8,1.82
-411,362,827,18.27,2.73,1.68
-410,381,828,17.99,2.59,1.68
-408,396,830,16.17,2.38,1.61
-405,400,836,13.37,2.03,1.54
-404,397,832,10.36,1.75,1.26
-404,392,836,7.91,1.4,0.91
-416,384,836,5.53,1.33,0.77
-423,377,836,3.57,1.19,0.42
-426,376,833,1.89,1.19,0.0
-428,372,830,0.21,0.98,-0.21
-435,360,828,-1.47,0.77,-0.28
-440,347,829,-3.08,0.56,-0.35
-434,330,827,-3.08,0.56,-0.56
-422,321,828,-1.61,0.77,-0.7
-419,328,832,0.42,1.12,-0.63
-413,334,834,2.24,1.33,-0.49
-407,337,833,3.36,1.4,-0.28
-404,349,831,3.78,1.4,-0.14
-407,357,830,3.71,1.26,0.07
-412,360,828,2.59,0.98,0.14
-420,358,830,1.33,0.63,0.07
-427,350,825,0.7,0.35,0.0
-434,343,821,0.7,0.21,0.07
-438,341,821,1.12,0.21,0.07
-439,342,821,2.03,0.28,0.14
-436,341,819,2.45,0.35,0.28
-435,340,822,2.52,0.07,0.35
-433,338,819,2.87,-0.21,0.35
-425,339,822,3.78,-0.56,0.28
-421,348,826,3.78,-0.77,0.49
-415,349,835,3.29,-0.84,0.56
-408,341,833,2.87,-0.91,0.63
-408,334,829,3.92,-0.84,0.56
-412,333,834,5.53,-0.63,0.56
-424,334,822,7.14,-0.35,0.56
-428,347,825,9.03,-0.28,0.35
-437,357,819,9.24,0.0,0.42
-434,360,824,9.87,0.0,0.42
-431,370,820,9.45,0.14,0.49
-428,367,822,9.03,0.07,0.35
-428,367,823,8.82,-0.07,0.21
-428,370,824,8.26,-0.21,0.0
-422,372,827,7.7,-0.14,-0.21
-412,375,829,7.28,0.0,-0.28
-415,381,829,6.79,0.21,-0.35
-414,378,826,6.3,0.49,-0.35
-414,379,824,6.09,0.84,-0.35
-419,379,819,5.88,1.12,-0.28
-429,379,816,5.39,1.26,-0.28
-434,384,815,4.55,1.19,-0.28
-431,386,814,3.29,0.98,-0.21
-425,386,811,1.96,0.56,-0.14
-421,381,810,0.77,0.0,-0.35
-421,377,809,-0.07,-0.49,-0.42
-421,374,810,-0.14,-0.91,-0.28
-421,374,810,-0.07,-1.19,-0.14
-427,371,813,-0.07,-1.33,0.0
-434,361,816,-0.07,-1.4,0.14
-436,357,818,0.21,-1.33,0.14
-429,365,821,1.05,-1.19,0.07
-419,371,820,1.75,-0.91,0.07
-412,376,820,1.82,-0.84,0.14
-413,386,820,1.19,-0.77,0.28
-417,388,820,-0.14,-0.77,0.49
-422,385,817,-1.68,-1.05,0.49
-430,379,823,-3.15,-1.33,0.35
-435,360,817,-3.99,-1.47,0.21
-429,360,819,-3.01,-1.33,0.07
-421,359,820,-1.47,-0.98,0.07
-418,356,820,-0.21,-0.56,0.21
-421,356,829,0.7,-0.07,0.28
-415,356,828,1.82,0.42,0.21
-406,361,826,3.36,0.91,0.14
-406,369,830,4.13,1.4,0.28
-416,379,831,3.92,1.89,0.42
-424,384,828,3.01,2.17,0.35
-431,378,823,1.61,2.31,0.21
-439,373,819,0.91,2.45,-0.07
-444,372,817,0.49,2.66,-0.28
-443,375,816,0.28,2.8,-0.56
-434,373,816,0.0,2.87,-0.56
-427,366,817,-0.14,3.01,-0.63
-422,357,815,0.7,3.29,-0.63
-421,346,813,2.24,3.43,-0.49
-426,342,816,4.2,3.78,-0.28
-428,346,815,6.79,4.06,-0.07
-427,355,818,8.68,4.41,0.14
-428,371,819,9.52,4.69,0.14
-426,381,815,9.66,4.69,0.07
-425,393,807,9.38,4.55,0.07
-434,404,806,7.98,4.34,0.14
-445,400,802,5.6,3.78,0.14
-448,403,798,3.71,3.22,-0.14
-443,404,792,2.8,2.94,-0.49
-442,410,788,2.45,2.52,-0.49
-450,419,788,1.4,2.17,-0.56
-454,426,790,-0.35,1.75,-0.7
-452,427,792,-2.8,1.12,-0.91
-445,422,793,-5.32,0.49,-1.26
-440,412,789,-7.28,-0.14,-1.61
-443,398,789,-8.68,-1.05,-1.89
-454,393,790,-9.87,-1.82,-2.24
-455,387,792,-10.5,-2.52,-2.38
-446,381,792,-10.43,-3.01,-2.38
-439,376,794,-9.73,-3.29,-2.38
-437,376,798,-8.61,-3.57,-2.24
-432,383,802,-7.98,-3.78,-2.1
-426,393,805,-8.26,-4.13,-2.1
-423,398,810,-9.59,-4.41,-2.1
-428,397,810,-11.55,-4.97,-2.17
-437,388,809,-13.23,-5.53,-2.38
-449,383,810,-14.56,-5.88,-2.59
-451,377,813,-16.03,-6.09,-2.73
-449,374,816,-17.29,-6.23,-2.94
-443,367,818,-18.27,-6.23,-3.01
-435,359,821,-18.48,-6.16,-3.08
-429,359,822,-17.99,-5.95,-3.15
-423,355,826,-17.57,-5.74,-2.94
-421,352,829,-17.78,-5.67,-2.66
-422,344,833,-18.55,-5.67,-2.59
-423,328,834,-19.32,-5.74,-2.38
-420,310,838,-19.46,-5.67,-2.31
-419,291,840,-18.41,-5.32,-2.24
-419,282,843,-16.38,-4.9,-2.03
-419,283,844,-13.65,-4.34,-1.89
-418,287,849,-11.06,-3.78,-1.75
-428,290,848,-9.38,-3.15,-1.61
-434,299,844,-7.63,-2.73,-1.61
-436,310,843,-6.86,-2.38,-1.47
-430,316,842,-6.79,-2.24,-1.4
-421,323,840,-6.93,-2.24,-1.33
-415,325,840,-7.56,-2.38,-1.26
-415,327,840,-7.98,-2.45,-1.12
-419,320,838,-8.19,-2.52,-1.12
-427,311,839,-8.19,-2.66,-0.91
-437,301,840,-8.05,-2.59,-0.84
-444,296,838,-7.21,-2.45,-0.84
-446,299,835,-5.6,-2.38,-0.91
-451,305,835,-4.76,-2.52,-0.7
-450,313,839,-5.6,-2.8,-0.77
-441,313,840,-7.42,-3.22,-0.91
-429,295,841,-9.03,-3.71,-0.91
-428,274,841,-8.82,-3.92,-0.84
-425,257,846,-6.79,-3.64,-0.7
-415,255,851,-3.36,-3.08,-0.42
-405,259,857,0.14,-2.45,-0.07
-399,269,858,3.08,-1.82,0.21
-396,282,860,5.46,-1.19,0.49
-403,297,859,6.79,-0.7,0.77
-418,308,853,6.93,-0.49,0.98
-434,315,847,6.37,-0.49,0.98
-446,321,843,5.04,-0.63,0.91
-445,327,841,2.94,-0.91,0.77
-438,320,838,1.05,-1.33,0.63
-437,315,837,-0.28,-1.61,0.49
-429,309,839,-0.63,-2.03,0.35
-418,315,839,-0.14,-2.17,0.21
-406,322,842,0.49,-2.31,0.21
-403,324,850,0.63,-2.24,0.56
-405,322,854,0.49,-2.03,0.63
-401,317,854,0.63,-1.61,0.56
-403,314,857,0.98,-1.33,0.42
-412,318,859,0.98,-0.84,0.35
-413,325,863,0.7,-0.35,0.28
-411,326,861,-0.49,0.0,0.21
-414,317,858,-1.68,0.21,0.0
-420,310,854,-2.1,0.49,-0.21
-423,302,849,-1.96,0.77,-0.35
-427,300,845,-1.47,1.05,-0.49
-430,308,843,-0.42,1.47,-0.56
-425,317,843,0.21,1.75,-0.49
-423,322,841,0.14,1.82,-0.49
-422,326,840,-0.35,1.82,-0.63
-426,327,838,-0.91,1.61,-0.7
-428,323,836,-1.75,1.33,-0.7
-429,315,836,-2.66,1.05,-0.77
-434,312,835,-3.08,0.7,-0.77
-435,309,835,-3.29,0.35,-0.7
-439,306,835,-3.85,-0.07,-0.49
-439,300,836,-4.06,-0.42,-0.56
-439,297,837,-3.92,-0.7,-0.56
-435,298,838,-3.43,-0.91,-0.49
-432,301,843,-3.15,-0.98,-0.56
-428,304,845,-3.08,-1.12,-0.35
-422,307,849,-3.01,-1.12,-0.28
-419,308,851,-3.22,-1.12,-0.21
-417,309,849,-3.29,-1.12,-0.21
-422,312,851,-3.85,-1.12,-0.14
-426,312,848,-5.04,-1.33,-0.21
-428,310,851,-6.44,-1.47,-0.28
-431,306,849,-7.77,-1.54,-0.35
-432,303,848,-8.26,-1.61,-0.28
-433,298,851,-8.89,-1.54,-0.14
-436,294,855,-9.66,-1.47,-0.07
-432,284,854,-9.87,-1.4,0.0
-425,272,855,-9.8,-1.26,0.07
-428,262,852,-9.38,-1.05,0.14
-427,251,854,-7.7,-0.84,0.21
-425,238,856,-5.88,-0.56,0.35
-419,248,861,-3.22,-0.07,0.14
-402,264,862,-0.35,0.7,0.14
-389,272,865,1.4,1.12,0.35
-388,288,861,2.8,1.4,0.35
-397,294,855,4.06,1.68,0.49
-416,295,848,4.83,1.68,0.49
-437,296,847,5.25,1.75,0.35
-446,301,847,5.81,1.96,0.14
-439,299,843,6.37,2.17,-0.07
-437,303,838,7.14,2.24,-0.14
-443,307,836,7.07,2.17,-0.07
-445,307,835,6.44,1.75,-0.07
-445,307,836,5.11,1.05,-0.14
-444,305,834,3.5,0.21,-0.42
-441,308,838,1.96,-0.42,-0.49
-428,300,838,0.7,-0.91,-0.56
-421,294,837,0.35,-1.47,-0.56
-419,294,838,1.05,-1.68,-0.63
-418,300,838,2.24,-1.75,-0.42
-419,310,839,2.8,-1.89,-0.28
-422,317,841,2.73,-2.1,-0.07
-428,318,840,1.47,-2.45,0.14
-432,319,837,0.56,-3.01,0.0
-436,322,838,-0.7,-3.5,-0.14
-441,322,841,-2.52,-3.99,-0.35
-437,322,844,-4.34,-4.41,-0.49
-428,317,843,-5.67,-4.76,-0.49
-426,316,846,-6.86,-4.9,-0.42
-431,308,846,-8.4,-5.04,-0.21
-428,298,853,-9.66,-5.04,-0.21
-421,290,862,-10.85,-4.9,-0.35
-412,283,870,-11.2,-4.55,-0.49
-402,275,878,-10.92,-3.92,-0.49
-400,268,880,-10.08,-3.08,-0.49
-396,268,881,-8.12,-1.96,-0.63
-404,279,885,-6.79,-0.63,-0.56
-411,284,888,-6.51,0.56,-0.7
-420,296,883,-6.86,1.61,-1.05
-431,312,877,-7.63,2.66,-1.47
-437,330,868,-9.1,3.22,-1.96
-440,344,862,-12.04,3.36,-2.52
-444,353,861,-16.38,3.29,-3.29
-439,341,858,-20.86,3.08,-3.92
-434,315,848,-24.29,2.59,-4.48
-429,295,842,-25.69,2.1,-4.76
-431,281,844,-25.76,2.24,-4.69
-426,271,853,-24.78,2.24,-4.41
-423,265,858,-24.36,2.24,-4.27
-424,273,862,-23.8,2.17,-4.55
-415,278,863,-23.38,2.17,-4.62
-411,272,870,-24.99,2.03,-4.34
-413,251,866,-27.3,1.47,-4.34
-414,216,860,-28.56,0.84,-4.34
-420,187,857,-28.21,0.42,-4.13
-425,168,859,-26.53,0.21,-3.92
-427,157,857,-23.52,0.28,-3.64
-423,160,855,-19.46,0.28,-3.29
-426,163,858,-16.17,0.21,-2.59
-435,164,858,-13.51,0.0,-2.1
-436,165,860,-10.92,-0.28,-1.75
-434,157,857,-8.68,-0.56,-1.05
-437,145,858,-6.3,-0.7,-0.49
-441,146,859,-2.8,-0.63,-0.07
-440,151,861,0.28,-0.63,0.42
-436,156,866,2.52,-0.84,0.98
-437,159,870,3.92,-0.98,1.4
-440,173,875,5.39,-1.12,1.75
-439,189,878,6.58,-1.05,1.82
-438,201,880,7.0,-0.98,1.89
-443,218,876,6.44,-0.84,1.68
-447,230,870,5.18,-0.91,1.47
-450,230,866,3.64,-1.19,1.54
-455,225,862,2.59,-1.4,1.47
-460,217,862,2.03,-1.4,1.4
-458,208,861,2.38,-1.26,1.4
-448,198,865,3.01,-1.12,1.61
-439,188,867,4.27,-1.05,1.75
-437,182,859,6.51,-0.91,1.75
-439,192,864,8.61,-0.98,1.82
-443,210,869,8.96,-1.12,1.82
-435,216,864,8.26,-1.61,1.54
-430,225,863,7.21,-2.17,1.33
-432,231,861,6.16,-2.73,1.33
-424,229,862,5.39,-3.15,1.47
-415,230,863,5.67,-3.43,1.54
-413,222,865,7.14,-3.5,1.68
-420,208,861,9.31,-3.5,1.82
-432,213,860,12.04,-3.36,1.89
-443,226,860,14.21,-3.01,2.1
-443,243,867,14.7,-2.8,2.38
-437,257,873,13.37,-2.87,2.31
-425,260,879,11.27,-3.01,2.03
-411,257,879,9.24,-3.22,1.75
-404,262,884,7.98,-3.15,1.26
-409,269,888,6.58,-2.73,0.98
-413,264,888,4.97,-2.24,0.77
-416,253,884,4.34,-1.54,0.42
-415,247,873,5.04,-0.77,0.14
-414,253,868,6.16,-0.21,0.14
-419,264,866,6.16,0.07,0.28
-420,266,867,4.83,-0.07,0.42
-417,261,865,3.08,-0.21,0.42
-416,246,861,2.59,-0.56,0.28
-418,235,861,3.57,-0.77,0.35
-421,227,860,4.97,-0.84,0.7
-423,223,860,6.23,-0.84,1.05
-425,228,865,7.56,-0.63,1.12
-427,240,871,8.4,-0.35,1.19
-424,249,871,8.61,-0.14,0.98
-418,257,872,7.91,0.07,0.91
-420,262,870,6.86,0.14,0.84
-420,269,868,6.09,0.28,0.63
-421,277,866,5.39,0.35,0.42
-423,281,865,4.9,0.49,0.28
-425,281,861,4.62,0.63,0.14
-428,282,856,4.13,0.77,0.07
-431,277,853,3.99,0.7,0.0
-441,281,849,4.06,0.56,0.0
-450,288,850,3.57,0.42,-0.07
-451,293,853,2.17,0.0,-0.21
-445,291,850,0.0,-0.35,-0.42
-442,285,849,-2.1,-0.77,-0.56
-440,270,852,-3.5,-1.26,-0.56
-444,255,852,-3.99,-1.54,-0.56
-445,248,851,-3.57,-1.75,-0.63
-442,246,852,-3.01,-1.89,-0.63
-439,252,853,-2.94,-2.17,-0.7
-434,258,857,-3.29,-2.45,-0.77
-425,258,853,-3.36,-2.87,-0.84
-426,262,853,-3.01,-3.22,-0.7
-430,270,855,-3.08,-3.43,-0.63
-424,272,856,-3.01,-3.64,-0.49
-419,273,855,-3.5,-3.85,-0.28
-418,266,856,-3.85,-4.13,-0.14
-425,264,859,-4.55,-4.34,0.07
-427,260,864,-5.6,-4.62,0.07
-425,247,866,-6.37,-4.9,0.07
-421,236,865,-6.58,-5.11,0.07
-424,232,866,-6.44,-5.25,-0.07
-430,235,868,-6.16,-5.25,-0.07
-424,238,869,-6.02,-5.11,0.07
-414,236,871,-5.81,-5.04,0.14
-409,234,877,-5.32,-4.76,0.35
-407,230,879,-4.48,-4.34,0.49
-403,227,881,-3.08,-3.71,0.56
-401,226,877,-0.84,-3.08,0.63
-405,231,879,0.84,-2.52,0.77
-411,238,876,2.24,-2.03,0.77
-414,243,875,2.94,-1.75,0.77
-423,245,873,2.59,-1.61,0.77
-424,244,872,2.17,-1.47,0.7
-422,243,870,2.52,-1.26,0.63
-418,236,869,3.5,-0.98,0.63
-417,235,865,5.04,-0.7,0.63
-421,241,866,6.37,-0.42,0.7
-423,246,869,7.0,-0.28,0.84
-420,248,871,7.42,-0.14,0.84
-419,249,872,7.0,0.0,0.91
-406,254,875,7.42,-0.07,0.63
-400,264,874,7.35,0.07,0.63
-395,268,882,6.51,0.14,0.49
-394,270,881,5.67,0.42,0.21
-396,267,880,5.25,0.84,0.14
-402,266,875,5.46,1.4,0.14
-408,268,866,6.65,1.96,0.0
-428,286,864,7.35,2.24,-0.07
-442,312,865,6.09,2.59,-0.21
-443,324,863,2.73,2.45,-0.35
-438,330,861,-1.26,2.1,-0.77
-441,324,860,-5.81,1.68,-1.05
-439,304,858,-9.66,1.19,-1.26
-431,286,860,-12.18,0.7,-1.54
-418,258,860,-13.65,0.28,-1.75
-409,236,859,-12.88,0.14,-1.89
-407,221,862,-10.99,0.28,-1.68
-409,214,867,-8.89,0.56,-1.33
-403,205,869,-5.95,1.12,-0.98
-398,201,869,-2.31,1.68,-0.63
-408,209,868,1.26,2.17,-0.21
-422,220,868,3.43,2.45,0.14
-435,226,867,4.2,2.45,0.28
-440,229,863,4.27,2.38,0.14
-439,229,860,4.76,2.38,-0.07
-434,241,855,5.6,2.24,-0.07
-433,261,855,5.88,2.03,0.0
-427,273,853,4.83,1.47,0.07
-423,284,853,3.64,0.98,-0.07
-422,290,852,2.38,0.56,-0.21
-423,282,850,1.12,0.0,-0.14
-429,276,852,0.28,-0.49,-0.14
-424,271,856,0.0,-0.77,-0.28
-419,262,859,0.07,-0.91,-0.21
-418,258,860,0.35,-1.05,-0.28
-424,255,862,0.7,-1.05,-0.35
-430,253,863,0.77,-1.05,-0.35
-437,254,861,0.7,-1.12,-0.42
-439,257,862,0.49,-1.05,-0.56
-438,270,864,0.0,-0.98,-0.49
-433,273,867,-1.26,-0.91,-0.42
-426,274,866,-2.45,-0.98,-0.49
-425,267,861,-3.08,-0.98,-0.49
-431,261,861,-3.01,-0.91,-0.42
-439,253,863,-2.94,-0.77,-0.35
-440,249,860,-2.45,-0.63,-0.35
-443,243,857,-1.82,-0.49,-0.28
-440,240,859,-1.54,-0.42,-0.28
-432,237,860,-1.19,-0.49,-0.07
-426,229,859,-1.05,-0.63,0.28
-426,220,862,-0.7,-0.91,0.63
-429,218,867,0.07,-0.98,0.84
-423,210,867,1.12,-0.91,1.12
-417,215,867,2.94,-0.7,1.4
-410,230,869,4.9,-0.35,1.47
-408,249,871,6.09,0.0,1.68
-405,264,873,5.88,0.21,1.96
-403,268,872,5.11,0.28,2.03
-407,266,871,4.76,0.56,2.1
-416,260,866,4.9,0.91,2.03
-429,260,860,5.39,1.05,1.89
-439,262,853,5.81,1.19,1.89
-447,262,851,6.02,1.12,1.96
-453,261,847,5.32,0.91,2.03
-460,261,841,4.83,0.56,1.96
-454,261,843,4.62,0.07,1.96
-446,265,844,4.27,-0.42,1.96
-436,265,847,4.13,-0.91,1.89
-429,273,854,3.78,-1.33,1.96
-418,281,855,3.64,-1.68,1.82
-405,287,859,3.57,-1.82,1.82
-402,288,860,3.5,-1.89,1.89
-402,290,863,3.43,-2.03,1.75
-411,283,862,3.01,-2.1,1.68
-422,281,860,2.8,-2.1,1.47
-429,283,861,3.15,-1.89,1.26
-430,284,860,3.29,-1.61,1.19
-432,294,856,3.43,-1.4,0.91
-438,305,853,3.22,-1.4,0.7
-445,316,848,1.75,-1.61,0.56
-443,317,847,-0.7,-2.03,0.35
-438,312,848,-3.57,-2.52,0.21
-429,304,848,-5.74,-3.08,-0.07
-419,295,853,-7.07,-3.36,-0.21
-415,284,856,-7.84,-3.71,-0.14
-406,278,858,-7.7,-3.92,-0.21
-404,273,862,-7.77,-3.99,-0.07
-412,257,866,-8.05,-3.99,0.14
-426,233,868,-8.68,-3.99,0.35
-434,205,869,-8.05,-3.85,0.35
-428,191,865,-4.69,-3.22,0.28
-422,197,866,-0.35,-2.45,0.42
-425,216,866,2.87,-1.89,0.77
-425,239,870,4.41,-1.54,1.05
-419,243,876,3.71,-1.33,1.26
-405,240,871,3.78,-1.33,1.05
-396,256,871,5.81,-0.7,0.84
-397,269,871,7.7,-0.14,0.98
-402,288,873,8.33,0.21,1.05
-402,301,871,7.91,0.63,0.98
-408,307,868,7.07,0.91,0.63
-415,308,862,6.16,1.12,0.35
-426,306,856,5.04,1.12,0.21
-434,306,853,3.71,0.91,0.07
-434,304,852,1.89,0.63,-0.07
-432,299,850,0.07,0.28,-0.28
-434,285,851,-1.75,-0.28,-0.28
-437,267,852,-3.08,-0.77,-0.35
-434,248,853,-3.22,-1.05,-0.49
-432,236,854,-2.31,-1.12,-0.56
-432,235,855,-0.14,-1.05,-0.56
-427,243,857,2.59,-0.7,-0.56
-416,263,861,4.69,-0.35,-0.35
-406,280,865,5.67,-0.14,-0.21
-399,298,867,5.6,-0.07,-0.14
-398,307,867,4.76,0.07,0.0
-403,309,863,3.43,0.0,0.14
-419,304,860,1.68,-0.14,0.0
-433,303,859,-0.07,-0.21,-0.07
-434,298,857,-1.89,-0.35,-0.28
-430,290,853,-3.29,-0.63,-0.35
-425,287,851,-3.92,-0.84,-0.35
-428,286,850,-4.13,-0.98,-0.35
-430,292,848,-3.99,-1.19,-0.42
-431,297,849,-4.48,-1.54,-0.49
-433,296,852,-5.95,-2.03,-0.49
-436,288,848,-8.12,-2.59,-0.49
-434,280,849,-9.66,-3.22,-0.77
-430,260,856,-11.41,-3.64,-0.63
-424,239,863,-11.62,-3.92,-0.56
-416,219,866,-10.43,-3.78,-0.49
-414,203,868,-7.91,-3.5,-0.42
-418,203,867,-4.41,-3.08,-0.28
-416,213,868,-0.42,-2.38,0.0
-409,238,870,2.52,-1.75,0.21
-408,251,871,3.92,-1.26,0.56
-413,252,869,3.92,-1.12,0.84
-420,249,868,3.92,-0.91,0.84
-420,247,864,5.18,-0.7,0.77
-418,255,864,7.0,-0.35,0.91
-418,272,865,8.05,-0.07,0.91
-419,285,864,7.98,0.07,0.91
-418,290,865,6.79,0.0,1.05
-420,291,862,5.25,-0.07,0.98
-417,283,861,3.99,-0.14,0.77
-417,279,859,3.22,-0.21,0.56
-421,275,855,3.08,-0.42,0.42
-424,273,852,3.22,-0.63,0.35
-427,274,854,3.01,-0.84,0.49
-425,279,856,2.59,-1.05,0.56
-415,285,858,2.45,-1.19,0.49
-407,283,856,2.52,-1.26,0.49
-404,288,863,2.52,-1.47,0.56
-407,295,867,1.19,-1.47,0.63
-401,289,871,0.49,-1.54,0.49
-400,289,870,0.14,-1.12,0.49
-408,282,866,0.21,-0.77,0.49
-422,280,861,0.35,-0.63,0.42
-434,278,860,-0.14,-0.63,0.21
-441,286,859,-1.05,-0.63,-0.07
-433,293,859,-2.03,-0.77,-0.35
-422,292,858,-3.15,-0.84,-0.42
-411,292,855,-3.99,-0.98,-0.42
-410,280,856,-4.55,-1.26,-0.28
-413,266,862,-4.76,-1.4,-0.14
-411,253,866,-4.27,-1.33,-0.07
-406,243,868,-3.15,-1.05,0.0
-406,237,867,-0.84,-0.63,-0.07
-404,236,868,1.82,0.0,-0.07
-411,237,873,3.71,0.56,0.14
-414,248,872,5.53,1.12,-0.07
-417,261,868,7.0,1.61,-0.28
-420,273,866,7.63,1.89,-0.35
-425,282,863,7.56,2.17,-0.35
-431,285,858,7.14,2.17,-0.35
-433,287,852,6.44,2.1,-0.49
-441,290,848,6.23,1.96,-0.56
-439,297,846,6.09,1.96,-0.49
-432,301,844,5.32,1.61,-0.49
-425,306,844,4.13,1.19,-0.49
-421,304,845,2.8,0.56,-0.35
-420,298,848,1.05,0.0,-0.21
-417,291,850,-0.07,-0.49,-0.35
-410,279,850,-0.14,-0.7,-0.42
-406,274,854,0.28,-0.91,-0.28
-409,277,855,0.7,-1.12,-0.14
-416,281,854,1.05,-1.26,0.07
-426,289,854,0.91,-1.4,0.07
-434,297,854,0.21,-1.47,0.0
-439,306,855,-1.12,-1.61,-0.07
-435,306,855,-2.94,-1.82,-0.07
-431,297,853,-4.76,-2.1,-0.07
-428,287,854,-5.74,-2.31,-0.07
-426,277,856,-6.09,-2.31,-0.28
-423,272,859,-5.46,-2.24,-0.42
-422,273,858,-4.48,-2.03,-0.49
-419,277,857,-3.5,-1.89,-0.56
-421,284,857,-2.94,-1.82,-0.56
-422,287,856,-3.5,-1.96,-0.49
-424,282,855,-4.2,-2.24,-0.42
-423,275,856,-3.71,-2.38,-0.56
-423,270,857,-2.31,-2.45,-0.56
-419,264,861,-1.75,-2.38,-0.49
-410,243,860,-1.26,-2.45,-0.56
-402,234,860,0.0,-2.52,-0.56
-403,235,859,2.03,-2.31,-0.35
-407,236,864,4.34,-1.89,0.07
-412,240,865,6.44,-1.68,0.21
-412,255,864,8.82,-1.19,0.21
-410,280,865,10.5,-0.84,0.21
-413,295,864,9.66,-0.77,0.35
-422,302,865,7.7,-0.84,0.07
-429,296,861,6.37,-0.77,-0.28
-430,291,856,6.86,-0.42,-0.56
-431,298,857,7.0,0.07,-0.56
-429,306,860,6.3,0.49,-0.63
-420,314,859,4.97,0.7,-0.77
-408,315,861,3.36,0.7,-1.05
-405,311,858,1.82,0.56,-1.19
-408,306,853,0.49,0.28,-1.4
-413,299,849,-0.49,-0.14,-1.54
-418,297,845,-0.84,-0.42,-1.61
-427,298,846,-1.26,-0.63,-1.4
-432,298,845,-2.03,-0.91,-1.26
-422,299,846,-2.87,-1.26,-1.12
-412,305,846,-3.43,-1.61,-1.12
-411,311,847,-3.57,-1.96,-0.91
-419,321,851,-4.97,-2.38,-0.56
-425,322,857,-7.84,-2.8,-0.42
-424,313,863,-11.41,-3.22,-0.42
-422,288,865,-14.21,-3.5,-0.56
-421,260,870,-15.75,-3.57,-0.63
-420,234,871,-15.75,-3.22,-0.77
-412,216,875,-13.86,-2.66,-0.84
-409,207,869,-10.5,-1.96,-0.77
-408,210,865,-6.16,-1.12,-0.56
-417,223,865,-2.87,-0.42,-0.07
-426,238,861,-0.42,-0.07,0.28
-424,251,861,0.56,0.07,0.63
-421,254,860,0.7,0.07,0.91
-418,256,858,0.98,0.0,0.98
-417,256,859,1.82,-0.21,1.12
-417,245,859,2.38,-0.28,1.19
-420,242,861,3.57,-0.21,1.26
-414,247,863,5.46,-0.07,1.33
-410,259,862,7.14,0.28,1.47
-410,272,861,8.61,0.56,1.54
-416,287,860,8.89,0.63,1.75
-421,297,860,7.98,0.49,1.82
-420,301,860,6.3,0.21,1.61
-418,288,857,4.55,0.0,1.47
-418,279,862,3.15,-0.28,1.4
-423,275,858,2.66,-0.35,1.19
-423,276,860,3.5,-0.21,0.98
-426,276,867,3.64,0.14,1.05
-427,280,862,3.92,0.21,0.98
-428,286,860,4.34,0.42,0.91
-432,289,859,3.99,0.56,0.84
-430,298,855,3.99,0.63,0.7
-422,311,856,3.29,0.63,0.42
-414,322,852,1.89,0.35,0.28
-412,322,846,0.14,-0.14,0.21
-429,320,841,-1.75,-0.91,0.0
-447,313,839,-3.36,-1.54,-0.21
-456,308,842,-5.04,-2.17,-0.42
-455,310,846,-6.51,-2.73,-0.77
-429,313,845,-7.42,-3.08,-1.26
-405,323,846,-8.19,-3.5,-1.47
-392,332,849,-9.24,-3.92,-1.54
-388,338,856,-10.78,-4.41,-1.61
-391,336,862,-13.65,-4.9,-1.61
-394,314,868,-17.22,-5.39,-1.82
-402,287,875,-19.95,-5.53,-2.03
-408,255,882,-21.28,-5.18,-2.17
-410,228,888,-20.93,-4.34,-2.31
-409,211,891,-18.62,-3.15,-2.45
-409,205,888,-15.61,-1.75,-2.66
-409,206,889,-12.32,-0.63,-2.87
-399,218,889,-9.94,0.21,-2.94
-385,228,888,-8.47,0.91,-3.01
-382,228,884,-7.42,1.54,-2.87
