acc_x[mg],acc_y[mg],acc_z[mg],gyro_x[dps],gyro_y[dps],gyro_z[dps]
-261,-40,999,27.51,1.12,1.89
-269,-18,996,24.85,2.45,1.26
-278,1,985,21.7,3.71,1.05
-284,1,974,19.6,4.83,1.19
-291,15,962,19.81,5.81,1.33
-304,53,965,20.65,6.51,1.96
-320,91,971,18.97,7.0,2.1
-321,110,971,14.14,7.21,2.17
-327,103,961,7.7,7.49,2.45
-344,81,962,2.38,7.84,2.66
-355,56,961,-1.54,8.4,2.59
-348,37,950,-3.43,8.89,2.59
-355,44,950,-4.55,9.31,2.45
-360,43,951,-7.0,9.52,2.45
-360,39,947,-11.34,9.45,2.1
-361,39,944,-15.26,9.52,1.68
-365,24,938,-18.2,9.45,1.75
-379,10,936,-20.72,9.45,1.68
-380,-3,924,-21.77,9.38,1.12
-379,-3,915,-21.84,8.89,0.84
-376,1,929,-22.33,8.61,0.91
-369,0,919,-23.38,7.98,0.56
-371,6,924,-25.62,7.07,0.28
-370,-7,922,-28.28,6.51,0.21
-372,-36,915,-29.61,6.16,0.07
-381,-43,912,-29.33,5.53,-0.07
-378,-48,916,-28.56,4.97,-0.28
-371,-49,914,-28.63,4.13,-0.84
-371,-44,909,-29.61,3.29,-1.47
-375,-69,909,-30.87,2.45,-1.4
-379,-111,908,-30.8,2.17,-1.4
-379,-122,905,-28.21,1.61,-1.82
-377,-122,910,-25.2,1.12,-1.75
-382,-132,908,-23.24,0.91,-1.75
-394,-138,916,-21.91,0.63,-2.17
-390,-141,914,-20.37,0.42,-2.52
-389,-148,902,-18.62,0.21,-2.52
-401,-140,897,-16.73,-0.21,-2.66
-405,-147,895,-15.47,-0.77,-2.52
-406,-143,899,-14.91,-1.19,-2.8
-398,-138,906,-13.72,-1.75,-3.15
-382,-148,907,-12.32,-2.24,-3.15
-382,-146,906,-10.64,-2.73,-2.94
-386,-138,906,-9.03,-3.36,-2.73
-390,-140,905,-8.33,-3.85,-2.59
-393,-140,903,-8.75,-4.48,-2.8
-395,-146,912,-8.96,-4.76,-2.73
-391,-158,911,-8.4,-4.9,-2.87
-388,-157,913,-6.86,-4.97,-2.8
-387,-142,924,-5.46,-4.83,-2.52
-378,-127,930,-5.18,-4.69,-2.17
-373,-133,933,-6.16,-4.34,-1.61
-373,-150,926,-6.72,-3.92,-1.54
-373,-145,930,-5.95,-3.5,-1.82
-361,-150,926,-5.18,-3.15,-1.4
-361,-161,921,-4.41,-3.01,-0.91
-364,-161,923,-3.64,-2.87,-0.7
-358,-162,926,-2.73,-2.8,-0.56
-343,-172,920,-2.31,-2.87,-0.49
-345,-182,921,-1.19,-2.87,-0.56
-349,-182,914,1.19,-3.08,-0.98
-356,-166,917,3.22,-3.22,-0.84
-359,-156,920,4.27,-3.36,-0.63
-358,-167,925,4.69,-3.29,-0.21
-362,-170,925,6.02,-3.15,-0.21
-354,-158,931,8.19,-2.94,-0.07
-350,-147,932,9.45,-2.66,0.14
-360,-133,935,9.45,-2.45,0.14
-356,-127,934,8.33,-2.24,0.21
-355,-131,938,7.42,-1.75,0.42
-358,-130,940,7.63,-1.33,0.56
-354,-130,942,8.19,-0.84,0.98
-358,-127,943,8.75,0.0,1.26
-357,-118,941,9.31,0.63,1.19
-361,-114,939,9.17,1.26,1.4
-367,-99,935,8.54,1.68,1.33
-368,-88,934,7.28,1.89,1.33
-366,-87,934,5.11,2.03,1.4
-361,-92,926,3.29,2.03,1.33
-362,-88,928,2.59,1.89,0.98
-357,-77,927,2.31,1.33,0.63
-361,-75,925,1.19,1.05,0.63
-367,-80,926,-0.28,0.77,0.63
-367,-88,923,-1.47,0.28,0.63
-372,-98,927,-2.59,0.07,0.7
-375,-112,924,-3.22,-0.07,0.49
-372,-122,926,-2.59,-0.21,0.28
-375,-128,924,-1.82,-0.14,0.0
-370,-123,923,-0.56,-0.14,-0.42
-370,-112,927,0.21,-0.07,-0.35
-370,-110,926,-0.14,-0.07,-0.28
-371,-115,923,-1.05,0.0,-0.07
-376,-117,929,-1.33,0.07,-0.14
-370,-118,930,-1.26,0.14,-0.07
-364,-126,927,-1.19,0.28,0.07
-370,-129,924,-0.84,0.35,0.07
-371,-135,922,-0.14,0.35,-0.07
-368,-127,919,0.56,0.21,-0.28
-365,-124,913,1.12,-0.21,-0.14
-365,-128,913,1.33,-0.63,0.0
-367,-128,914,1.61,-1.19,-0.21
-365,-119,917,1.82,-1.82,-0.49
-363,-111,921,1.82,-2.24,-0.7
-363,-109,924,1.4,-2.66,-0.63
-367,-104,930,0.7,-2.8,-0.7
-367,-104,930,0.56,-2.8,-0.7
-365,-106,930,0.63,-2.73,-0.56
-371,-106,932,0.63,-2.59,-0.35
-375,-114,933,0.56,-2.31,-0.35
-374,-115,933,0.63,-1.96,-0.28
-365,-104,931,0.56,-1.82,-0.49
-363,-107,932,-0.14,-1.68,-0.28
-369,-119,927,-1.33,-1.54,-0.28
-372,-128,925,-1.05,-1.4,-0.14
-371,-131,925,0.56,-1.26,-0.07
-363,-126,929,2.03,-1.05,0.0
-363,-118,927,2.73,-1.05,-0.07
-369,-115,924,2.52,-1.12,-0.07
-373,-116,926,1.96,-1.12,-0.07
-368,-123,927,1.54,-1.05,-0.21
-358,-130,923,1.82,-0.98,-0.28
-364,-128,925,3.29,-0.7,-0.21
-368,-123,931,4.62,-0.63,-0.21
-365,-117,926,5.18,-0.63,-0.21
-370,-105,928,5.18,-0.56,-0.07
-368,-103,929,4.55,-0.56,0.14
-362,-103,930,3.57,-0.7,0.14
-356,-107,930,3.01,-0.77,0.0
-356,-110,927,3.36,-0.84,0.0
-360,-103,934,3.64,-0.91,-0.07
-358,-95,932,3.64,-0.91,-0.07
-361,-87,935,2.8,-0.91,0.07
-366,-87,933,1.47,-0.91,0.07
-365,-95,931,0.35,-0.84,0.35
-366,-104,930,0.07,-0.63,0.42
-362,-108,929,0.63,-0.49,0.35
-360,-104,929,1.4,-0.56,0.28
-366,-95,927,1.68,-0.7,0.07
-372,-94,933,1.05,-0.7,0.07
-369,-95,930,-0.21,-0.63,0.07
-367,-98,926,-1.26,-0.63,0.14
-369,-103,930,-1.68,-0.63,0.35
-369,-109,933,-1.68,-0.49,0.35
-366,-110,934,-1.26,-0.28,0.35
-365,-110,934,-0.77,0.07,0.42
-360,-107,936,-0.56,0.28,0.56
-356,-104,932,-0.63,0.42,0.7
-359,-100,934,-1.47,0.49,0.98
-358,-102,939,-2.66,0.63,1.12
-343,-115,931,-3.01,0.56,1.12
-340,-111,912,-2.17,0.0,0.98
-358,-102,914,-1.47,-0.56,0.84
-373,-103,916,-1.68,-1.12,0.14
-378,-105,921,-2.24,-1.4,-0.56
-372,-101,922,-1.89,-1.68,-1.12
-364,-98,926,-0.56,-1.68,-1.05
-370,-89,932,0.21,-1.68,-0.91
-377,-71,941,-0.21,-1.54,-0.98
-370,-66,943,-1.89,-1.26,-0.84
-369,-68,941,-4.06,-0.84,-0.42
-369,-77,934,-5.6,-0.56,0.14
-374,-92,930,-6.79,-0.35,0.56
-369,-105,928,-7.28,-0.21,0.56
-362,-120,924,-7.35,-0.21,0.49
-361,-137,923,-7.28,-0.21,0.42
-360,-152,918,-6.23,-0.42,0.28
-360,-162,918,-4.2,-0.56,0.14
-359,-161,918,-1.82,-0.7,-0.07
-359,-150,918,0.21,-0.98,-0.28
-361,-139,923,1.4,-1.26,-0.35
-360,-143,923,1.89,-1.33,-0.07
-362,-153,921,2.52,-1.33,0.14
-370,-151,919,4.2,-1.33,0.21
-374,-144,924,6.37,-1.26,0.28
-371,-133,930,7.7,-0.91,0.21
-364,-128,935,8.54,-0.49,0.21
-359,-129,935,9.73,0.0,0.42
-365,-120,935,10.99,0.42,0.7
-367,-107,932,11.69,0.77,0.91
-367,-90,930,10.99,0.77,1.05
-367,-80,922,9.31,0.56,0.91
-370,-92,919,7.77,0.21,0.98
-377,-106,921,7.42,0.0,0.84
-375,-98,927,8.19,0.0,0.56
-369,-80,934,8.96,0.0,0.35
-366,-61,937,8.26,-0.07,0.28
-367,-55,936,6.44,-0.07,0.49
-374,-60,936,4.27,0.07,0.7
-377,-71,920,2.73,-0.07,0.84
-382,-76,917,2.31,-0.21,1.19
-384,-83,918,2.31,-0.49,1.47
-375,-84,921,2.24,-0.84,1.33
-372,-83,925,2.03,-0.98,0.98
-367,-83,927,1.96,-1.26,0.7
-362,-84,928,1.96,-1.61,0.28
-363,-83,928,1.89,-1.75,0.07
-368,-85,924,2.24,-2.03,-0.07
-370,-81,922,2.24,-2.17,0.07
-368,-77,924,1.75,-2.45,-0.07
-368,-73,929,0.91,-2.59,-0.28
-365,-74,935,0.0,-2.73,-0.35
-360,-74,936,-0.56,-2.8,-0.56
-360,-73,934,-0.63,-2.73,-0.56
-362,-70,933,-0.42,-2.73,-0.7
-370,-60,928,-0.77,-2.8,-0.77
-368,-52,930,-1.89,-2.94,-0.56
-365,-60,933,-3.92,-3.15,-0.28
-359,-71,937,-5.81,-3.15,-0.35
-352,-81,939,-6.72,-3.15,-0.63
-353,-85,939,-6.58,-3.08,-0.91
-357,-81,940,-6.51,-2.87,-1.12
-360,-76,935,-7.07,-2.73,-1.05
-364,-74,942,-7.98,-2.45,-0.84
-358,-84,938,-9.1,-2.17,-0.63
-358,-92,933,-9.52,-1.89,-0.63
-360,-95,936,-9.31,-1.75,-0.56
-357,-103,933,-9.03,-1.61,-0.56
-357,-107,931,-8.96,-1.47,-0.42
-359,-114,933,-8.68,-1.26,-0.35
-355,-119,930,-8.26,-1.26,-0.28
-357,-120,925,-8.05,-1.33,-0.35
-358,-125,927,-7.84,-1.4,-0.28
-357,-136,927,-7.42,-1.33,-0.35
-350,-144,925,-6.09,-1.4,-0.63
-348,-142,926,-3.71,-1.4,-0.84
-352,-135,931,-1.75,-1.4,-0.77
-353,-133,929,-0.49,-1.33,-0.63
-360,-127,929,0.42,-1.33,-0.35
-359,-124,929,0.77,-1.19,-0.21
-358,-128,930,0.77,-1.05,-0.21
-359,-129,933,1.33,-0.91,-0.28
-354,-123,932,2.38,-0.7,-0.21
-354,-121,932,3.5,-0.56,-0.07
-360,-106,933,4.06,-0.42,-0.07
-359,-94,934,3.85,-0.28,0.28
-360,-96,932,2.94,-0.14,0.56
-365,-101,935,1.96,0.07,0.63
-362,-105,929,1.68,0.21,0.7
-366,-106,930,1.68,0.21,0.77
-366,-101,932,1.61,0.28,0.91
-362,-108,932,1.54,0.35,0.98
-363,-110,929,1.54,0.28,0.91
-359,-114,927,1.75,0.28,0.84
-358,-111,928,2.38,0.21,0.7
-358,-111,926,2.59,0.0,0.7
-358,-106,924,2.52,-0.14,0.63
-358,-99,924,2.52,-0.56,0.56
-363,-98,926,2.1,-0.91,0.42
-363,-104,928,1.89,-1.05,0.21
-362,-108,927,2.45,-1.12,0.14
-365,-103,932,3.57,-1.05,0.07
-364,-95,933,4.34,-0.98,0.21
-363,-85,934,4.13,-0.91,0.28
-362,-82,934,2.94,-0.91,0.21
-363,-82,931,1.75,-0.91,0.14
-365,-90,930,1.19,-0.91,0.21
-368,-97,927,1.19,-0.98,0.14
-365,-91,929,1.54,-0.98,0.07
-361,-82,930,1.54,-1.12,0.28
-359,-75,934,0.63,-1.26,0.28
-357,-82,936,-1.12,-1.4,0.21
-356,-93,931,-2.31,-1.47,0.07
-357,-94,927,-1.89,-1.68,-0.42
-361,-93,929,-1.19,-1.75,-0.42
-359,-81,929,-0.7,-1.96,-0.77
-360,-67,930,-1.33,-2.24,-0.77
-361,-66,931,-3.01,-2.52,-0.63
-362,-73,933,-4.97,-2.8,-0.7
-362,-84,934,-6.23,-2.87,-0.84
-361,-94,934,-6.51,-2.66,-0.98
-363,-90,937,-6.16,-2.52,-0.98
-356,-93,936,-6.09,-2.31,-0.77
-354,-96,936,-6.72,-2.17,-0.7
-358,-97,937,-7.63,-2.1,-0.7
-357,-101,937,-8.4,-2.03,-0.7
-352,-113,930,-8.96,-1.96,-0.77
-355,-125,928,-8.82,-1.89,-0.77
-358,-130,927,-7.84,-1.82,-0.98
-356,-130,926,-6.51,-1.82,-1.05
-353,-122,927,-5.39,-1.96,-1.05
-350,-120,928,-4.83,-2.1,-0.98
-348,-123,930,-5.18,-2.17,-0.77
-343,-130,930,-5.18,-2.24,-0.84
-346,-139,934,-4.13,-2.1,-0.77
-350,-146,932,-2.52,-1.82,-0.84
-355,-144,931,-0.77,-1.54,-0.91
-361,-133,932,0.77,-1.26,-0.91
-357,-119,937,1.12,-0.98,-0.7
-347,-115,936,0.14,-0.84,-0.42
-346,-118,938,-0.91,-0.63,-0.35
-347,-129,932,-0.84,-0.56,-0.28
-351,-136,930,0.0,-0.42,-0.21
-355,-127,928,1.61,-0.35,-0.28
-350,-116,930,2.87,-0.35,-0.14
-350,-110,932,2.8,-0.42,-0.07
-354,-112,930,2.17,-0.49,0.0
-357,-118,930,1.61,-0.63,0.07
-356,-122,932,1.54,-0.63,0.07
-355,-121,935,1.96,-0.49,0.0
-348,-120,939,2.31,-0.35,-0.07
-346,-126,937,2.8,-0.07,0.0
-351,-132,930,3.85,0.14,0.07
-360,-134,925,5.11,0.14,0.28
-366,-131,928,5.95,0.28,0.42
-359,-121,927,6.09,0.14,0.14
-354,-106,927,5.6,-0.14,-0.14
-354,-103,930,4.83,-0.49,-0.14
-355,-108,925,3.99,-0.7,-0.07
-361,-113,927,4.2,-0.84,0.0
-366,-111,932,5.32,-0.77,0.21
-361,-113,935,6.37,-0.49,0.35
-357,-109,937,7.07,-0.21,0.14
-354,-96,936,7.35,-0.14,-0.14
-351,-82,939,6.79,-0.07,-0.07
-351,-77,936,5.11,-0.07,0.0
-355,-85,935,3.71,0.07,0.07
-358,-95,928,3.36,-0.07,0.14
-358,-91,928,4.2,-0.28,-0.14
-357,-79,930,4.76,-0.42,-0.35
-354,-60,938,4.06,-0.7,-0.49
-347,-54,941,1.96,-0.98,-0.49
-345,-59,937,-0.42,-1.19,-0.49
-355,-62,939,-2.1,-1.26,-0.63
-357,-70,934,-3.36,-1.4,-0.63
-362,-79,935,-4.06,-1.4,-0.63
-362,-82,936,-4.34,-1.26,-0.56
-354,-83,937,-4.62,-1.19,-0.49
-356,-87,935,-5.39,-1.19,-0.56
-360,-92,933,-6.37,-1.26,-0.56
-360,-97,931,-7.35,-1.33,-0.7
-359,-104,930,-8.05,-1.4,-0.84
-358,-114,927,-8.19,-1.47,-0.91
-359,-115,927,-7.7,-1.68,-1.05
-355,-112,924,-7.0,-1.89,-1.05
-353,-113,927,-6.58,-2.1,-0.84
-353,-118,931,-6.65,-2.24,-0.77
-350,-126,929,-6.3,-2.24,-0.91
-351,-124,931,-5.46,-2.17,-0.91
-354,-124,932,-4.76,-2.17,-0.91
-356,-123,933,-4.48,-2.1,-0.91
-357,-122,931,-4.2,-1.96,-0.98
-353,-126,932,-3.71,-1.96,-0.84
-351,-128,933,-3.01,-1.82,-0.7
-348,-123,936,-2.31,-1.75,-0.77
-348,-122,933,-1.96,-1.61,-0.7
-351,-119,931,-1.82,-1.61,-0.7
-356,-118,931,-1.89,-1.54,-0.63
-350,-119,932,-1.89,-1.68,-0.77
-344,-117,929,-1.68,-1.75,-0.77
-344,-116,930,-1.4,-1.89,-0.7
-352,-119,930,-1.12,-1.96,-0.77
-351,-118,930,-0.91,-2.24,-0.77
-347,-120,930,-0.63,-2.31,-0.7
-348,-123,929,-0.7,-2.45,-0.77
-355,-127,929,-0.63,-2.52,-0.77
-353,-131,931,-0.42,-2.59,-0.7
-352,-133,932,0.0,-2.45,-0.77
-348,-135,932,0.49,-2.38,-0.84
-352,-132,931,1.26,-2.38,-0.7
-351,-128,934,1.61,-2.24,-0.63
-348,-123,938,1.61,-2.1,-0.56
-346,-119,936,1.54,-1.96,-0.49
-346,-120,937,1.33,-1.82,-0.28
-348,-116,936,1.4,-1.68,-0.14
-346,-111,941,1.4,-1.4,0.0
-342,-111,937,1.19,-1.19,0.0
-346,-115,935,1.19,-1.05,0.21
-350,-114,939,1.47,-0.84,0.21
-346,-112,940,1.61,-0.63,0.14
-341,-113,941,1.54,-0.49,0.14
-339,-118,940,1.54,-0.21,0.28
-341,-119,941,1.68,0.0,0.42
-341,-111,941,1.96,0.21,0.28
-342,-108,938,1.54,0.35,0.42
-346,-106,936,0.84,0.42,0.42
-348,-105,933,0.35,0.28,0.21
-345,-105,936,0.07,0.21,0.14
-342,-104,933,0.21,0.14,-0.07
-343,-94,934,0.42,-0.14,-0.07
-347,-93,935,0.07,-0.28,0.07
-350,-93,934,-1.05,-0.42,0.07
-352,-100,936,-2.24,-0.42,0.14
-353,-108,936,-2.94,-0.35,0.21
-349,-111,939,-3.22,-0.21,0.21
-343,-116,940,-3.22,0.07,0.28
-344,-117,937,-3.15,0.28,0.28
-348,-115,941,-3.01,0.42,0.28
-349,-119,940,-3.22,0.7,0.35
-346,-123,935,-3.15,0.91,0.35
-352,-126,932,-2.87,1.12,0.42
-356,-128,930,-2.45,1.19,0.56
-352,-125,932,-2.17,1.33,0.42
-344,-123,933,-2.1,1.26,0.28
-342,-129,931,-1.96,1.26,0.28
-352,-128,928,-1.33,1.19,0.21
-354,-121,930,-0.49,1.05,0.21
-353,-112,928,0.0,0.91,0.28
-351,-108,927,-0.35,0.7,0.28
-354,-114,926,-0.91,0.35,0.28
-354,-118,925,-1.05,0.07,0.07
-353,-120,928,-0.7,-0.21,-0.14
-350,-123,929,-0.21,-0.49,-0.14
-349,-125,932,0.14,-0.56,-0.28
-350,-124,927,0.49,-0.63,-0.49
-354,-121,926,1.05,-0.84,-0.63
-356,-118,927,1.33,-1.05,-0.63
-358,-114,925,1.12,-1.33,-0.77
-360,-110,930,0.63,-1.47,-0.7
-356,-110,934,-0.14,-1.54,-0.49
-349,-115,937,-0.77,-1.54,-0.49
-350,-120,933,-1.05,-1.54,-0.42
-354,-119,929,-0.91,-1.47,-0.35
-359,-124,928,-0.7,-1.4,-0.21
-363,-133,929,-0.49,-1.4,-0.28
-360,-137,932,0.49,-1.19,-0.21
-354,-135,933,1.61,-0.98,-0.14
-353,-132,933,2.45,-0.77,-0.21
-354,-122,936,2.87,-0.7,-0.21
-348,-116,934,2.59,-0.63,-0.28
-349,-118,927,2.03,-0.63,0.0
-360,-116,928,1.75,-0.77,0.07
-355,-117,927,2.03,-0.91,0.07
-349,-116,930,2.24,-0.98,0.14
-350,-112,933,2.31,-1.05,-0.07
-353,-107,937,2.45,-1.05,-0.14
-350,-107,942,2.31,-0.91,-0.14
-345,-105,941,2.1,-0.63,-0.07
-349,-100,937,2.03,-0.42,-0.07
-354,-95,939,1.47,-0.35,0.14
-347,-94,935,0.42,-0.35,0.28
-341,-94,936,-0.7,-0.42,0.21
-343,-104,935,-1.75,-0.49,0.35
-348,-120,932,-2.1,-0.56,0.28
-351,-128,934,-1.26,-0.35,0.14
-352,-127,929,0.14,-0.28,-0.07
-356,-115,935,1.12,-0.14,-0.21
-356,-107,936,0.91,0.0,-0.07
-349,-103,938,-0.07,0.0,-0.21
-349,-111,937,-1.33,0.07,-0.14
-349,-113,934,-1.68,0.21,-0.14
-350,-119,932,-1.54,0.21,-0.28
-349,-113,928,-1.05,0.07,-0.63
-346,-107,931,-0.49,-0.14,-0.63
-343,-106,933,-0.63,-0.28,-0.42
-343,-113,932,-0.91,-0.42,-0.35
-347,-113,930,-0.77,-0.63,-0.35
-351,-105,933,-0.42,-0.7,-0.35
-353,-106,930,-0.77,-0.91,-0.28
-362,-115,927,-1.75,-1.05,-0.21
-368,-121,929,-2.1,-1.12,-0.28
-364,-124,929,-1.89,-1.05,-0.21
-354,-122,934,-1.4,-0.98,-0.14
-348,-120,936,-0.91,-0.84,-0.21
-347,-117,935,-0.56,-0.77,-0.21
-347,-112,933,-0.63,-0.7,-0.21
-349,-117,933,-0.77,-0.7,-0.07
-352,-128,929,-0.77,-0.7,0.07
-355,-130,927,-0.14,-0.7,-0.07
-356,-131,926,0.84,-0.77,-0.07
-356,-127,927,1.47,-0.77,0.0
-354,-121,930,1.82,-0.91,-0.21
-347,-115,930,1.89,-1.12,-0.21
-348,-109,934,1.47,-1.26,-0.28
-345,-112,936,0.84,-1.26,-0.42
-345,-118,931,1.12,-1.26,-0.49
-351,-113,935,1.75,-1.12,-0.42
-351,-108,934,2.31,-1.12,-0.42
-353,-100,931,2.03,-1.12,-0.35
-354,-99,932,1.26,-1.19,-0.14
-353,-105,931,0.42,-1.4,-0.21
-350,-105,932,0.0,-1.54,-0.42
-346,-108,930,0.0,-1.75,-0.49
-350,-112,930,0.35,-1.82,-0.49
-356,-110,932,0.63,-1.89,-0.42
-356,-109,935,0.49,-1.89,-0.28
-356,-116,934,-0.14,-1.82,0.0
-357,-127,933,-0.56,-1.61,0.07
-359,-135,932,0.0,-1.4,0.0
-356,-130,934,0.7,-1.19,-0.28
-349,-126,935,1.26,-0.98,-0.35
-345,-126,934,1.75,-0.84,-0.42
-347,-123,932,2.52,-0.7,-0.28
-349,-116,934,3.22,-0.56,-0.14
-347,-111,931,3.64,-0.56,-0.14
-347,-103,931,3.5,-0.7,-0.14
-345,-102,932,3.22,-0.91,-0.28
-345,-104,931,3.01,-1.12,-0.35
-345,-103,936,2.94,-1.26,-0.42
-346,-104,933,3.15,-1.33,-0.49
-347,-101,937,3.29,-1.33,-0.49
-347,-97,935,3.01,-1.4,-0.56
-344,-93,935,2.45,-1.54,-0.7
-346,-94,936,2.03,-1.68,-0.56
-345,-99,933,1.75,-1.68,-0.56
-347,-102,935,1.61,-1.54,-0.49
-348,-103,934,1.54,-1.61,-0.56
-353,-103,936,1.89,-1.47,-0.56
-355,-105,936,2.03,-1.47,-0.7
-357,-109,937,1.82,-1.33,-0.56
-349,-107,937,1.61,-1.26,-0.63
-343,-109,936,1.4,-1.19,-0.63
-344,-113,934,1.19,-1.19,-0.49
-347,-118,932,1.68,-1.12,-0.42
-347,-118,934,2.8,-0.91,-0.49
-348,-114,933,3.85,-0.77,-0.56
-350,-105,933,4.62,-0.84,-0.49
-349,-84,941,4.55,-0.91,-0.56
-343,-78,941,3.01,-0.98,-0.42
-341,-86,938,0.7,-1.05,-0.28
-344,-95,937,-0.49,-1.12,-0.14
-346,-109,936,-0.42,-1.19,-0.07
-344,-115,934,0.63,-1.12,-0.07
-347,-118,932,2.17,-0.91,0.0
-353,-111,934,3.5,-0.84,-0.07
-349,-96,940,3.71,-0.84,-0.21
-342,-87,941,2.73,-0.84,-0.28
-343,-81,942,0.98,-0.77,-0.35
-346,-89,940,-0.77,-0.77,-0.21
-348,-102,939,-1.4,-0.63,-0.07
-344,-101,934,-0.42,-0.56,-0.21
-340,-93,934,1.19,-0.49,-0.21
-341,-86,935,1.68,-0.63,-0.14
-339,-87,937,1.12,-0.77,-0.14
-341,-91,939,0.42,-0.84,-0.28
-345,-98,939,0.07,-0.77,-0.42
-347,-111,937,0.35,-0.63,-0.35
-348,-116,940,1.26,-0.35,-0.28
-343,-107,941,2.31,-0.14,-0.42
-336,-111,940,2.73,0.07,-0.28
-339,-111,944,2.94,0.42,-0.28
-335,-103,942,3.71,0.56,-0.7
-337,-98,944,4.2,0.84,-0.77
-344,-98,945,4.34,1.12,-0.84
-346,-86,941,4.9,1.33,-0.91
-349,-69,946,5.04,1.61,-0.56
-346,-66,955,3.29,2.03,-0.07
-338,-73,951,1.05,2.38,0.07
-339,-80,947,-0.49,2.8,0.35
-348,-87,946,-0.98,3.22,0.7
-351,-90,941,-1.05,3.64,0.77
-354,-98,929,-0.98,3.85,0.7
-365,-105,921,-0.56,3.78,0.91
-369,-106,921,0.14,3.43,1.05
-353,-95,925,0.56,2.94,0.98
-349,-96,926,0.07,2.52,1.05
-358,-105,927,-0.49,2.1,0.91
-359,-104,928,-0.28,1.82,0.49
-354,-99,926,0.7,1.54,0.35
-357,-94,923,1.4,1.19,0.42
-367,-91,916,1.68,0.7,0.35
-373,-82,917,1.54,0.14,0.35
-364,-72,924,1.12,-0.49,0.28
-355,-72,924,0.35,-1.05,0.21
-362,-79,923,-0.63,-1.61,0.0
-370,-81,925,-0.98,-2.03,-0.35
-366,-80,924,-0.56,-2.38,-0.42
-366,-73,924,-0.35,-2.73,-0.49
-368,-73,926,-0.77,-3.01,-0.42
-369,-73,925,-1.4,-3.36,-0.49
-372,-70,929,-2.38,-3.57,-0.56
-366,-74,932,-3.5,-3.78,-0.7
-358,-80,935,-4.62,-3.85,-0.84
-356,-84,934,-5.04,-3.92,-1.19
-355,-85,933,-4.62,-3.99,-1.26
-355,-85,930,-4.34,-4.06,-1.26
-359,-86,927,-4.34,-4.27,-1.26
-359,-93,931,-4.55,-4.41,-1.05
-353,-105,933,-4.97,-4.48,-0.91
-348,-114,936,-5.04,-4.48,-1.12
-349,-113,938,-4.41,-4.34,-1.47
-348,-108,938,-3.92,-4.13,-1.54
-349,-106,939,-3.99,-3.92,-1.47
-346,-108,939,-3.92,-3.71,-1.33
-345,-109,940,-3.36,-3.36,-1.12
-344,-106,938,-2.87,-3.15,-0.84
-342,-103,936,-2.87,-3.15,-0.7
-342,-99,939,-3.64,-3.22,-0.77
-338,-102,941,-4.62,-3.22,-0.84
-330,-110,942,-5.25,-3.15,-0.84
-330,-117,944,-4.9,-2.94,-0.77
-330,-120,947,-3.57,-2.59,-0.77
-328,-120,945,-2.03,-2.17,-0.56
-336,-114,943,-0.98,-1.61,-0.35
-339,-107,945,-0.84,-1.26,-0.14
-334,-107,945,-1.19,-0.98,0.0
-330,-110,945,-1.82,-0.77,-0.14
-327,-116,942,-2.1,-0.63,-0.14
-327,-124,942,-1.75,-0.35,-0.07
-330,-125,941,-0.77,-0.21,-0.07
-332,-122,939,0.7,0.0,-0.07
-336,-113,938,1.82,0.14,0.0
-340,-107,941,2.03,0.21,-0.07
-340,-100,938,1.68,0.21,-0.07
-342,-95,939,0.98,0.21,-0.07
-342,-97,937,0.07,0.07,-0.07
-340,-95,937,-0.63,-0.07,-0.28
-341,-91,935,-0.77,-0.14,-0.49
-345,-96,934,-0.84,-0.21,-0.49
-351,-99,933,-0.77,-0.35,-0.42
-357,-96,934,-0.42,-0.35,-0.49
-353,-91,936,-0.63,-0.35,-0.42
-345,-88,938,-1.61,-0.42,-0.49
-345,-93,940,-3.01,-0.49,-0.56
-342,-97,938,-4.06,-0.56,-0.7
-345,-101,937,-4.48,-0.49,-0.49
-350,-108,935,-4.76,-0.42,-0.42
-353,-118,933,-4.62,-0.35,-0.49
-353,-125,931,-3.92,-0.21,-0.49
-352,-124,930,-2.87,-0.14,-0.63
-352,-115,929,-2.1,-0.21,-0.7
-349,-115,931,-2.31,-0.42,-0.49
-346,-120,930,-3.22,-0.63,-0.42
-344,-127,931,-3.36,-0.77,-0.56
-342,-137,932,-2.38,-0.84,-0.63
-342,-136,932,-0.63,-0.84,-0.77
-342,-127,934,0.84,-0.77,-0.77
-345,-116,936,1.4,-0.77,-0.77
-347,-109,936,1.19,-0.7,-0.63
-347,-109,938,0.49,-0.63,-0.35
-345,-111,937,0.0,-0.56,-0.28
-343,-112,935,0.07,-0.56,-0.35
-342,-110,936,0.28,-0.56,-0.42
-345,-107,935,0.42,-0.56,-0.35
-345,-108,936,0.35,-0.63,-0.14
-346,-106,938,0.07,-0.56,-0.07
-342,-108,935,-0.35,-0.63,0.0
-342,-110,934,-0.56,-0.77,0.07
-350,-108,935,-0.91,-0.77,0.07
-353,-106,931,-1.61,-0.98,0.14
-350,-110,932,-2.59,-1.26,0.14
-346,-113,928,-3.08,-1.47,0.0
-345,-114,930,-3.08,-1.68,-0.07
-347,-105,932,-2.94,-1.96,-0.21
-346,-101,930,-3.01,-2.24,-0.07
-349,-98,931,-3.57,-2.52,0.0
-353,-96,932,-4.55,-2.8,-0.07
-352,-98,929,-5.67,-3.15,-0.07
-353,-101,928,-6.58,-3.43,-0.07
-353,-110,927,-7.49,-3.64,0.07
-350,-121,931,-8.12,-3.92,0.14
-340,-122,932,-8.33,-4.2,-0.21
-334,-123,935,-8.26,-4.41,-0.49
-330,-127,938,-8.4,-4.48,-0.42
-332,-137,940,-8.26,-4.41,-0.56
-338,-144,939,-7.14,-4.13,-0.63
-339,-146,939,-5.67,-3.71,-0.63
-339,-139,940,-4.13,-3.29,-0.77
-338,-128,946,-3.57,-2.8,-0.63
-331,-127,948,-3.92,-2.45,-0.49
-324,-131,948,-4.62,-2.03,-0.21
-322,-137,945,-4.62,-1.61,-0.07
-323,-145,946,-3.99,-1.12,0.14
-324,-151,942,-3.15,-0.7,0.14
-328,-151,936,-1.82,-0.42,0.0
-332,-146,934,-0.28,-0.35,0.07
-337,-140,935,0.21,-0.28,0.14
-332,-132,935,-0.14,-0.35,0.14
-328,-135,938,-0.84,-0.42,0.21
-330,-141,939,-0.91,-0.35,0.21
-332,-137,940,-0.42,-0.35,0.07
-331,-131,939,0.28,-0.28,-0.07
-333,-122,939,0.35,-0.14,0.0
-333,-122,940,-0.14,-0.07,0.35
-334,-128,939,-0.63,0.0,0.42
-336,-132,936,-1.05,0.0,0.42
-337,-138,934,-0.84,0.07,0.49
-338,-142,930,-0.56,0.0,0.56
-343,-141,931,-0.42,-0.14,0.56
-341,-143,932,-0.14,-0.21,0.42
-337,-148,931,0.21,-0.28,0.49
-338,-147,930,0.91,-0.42,0.42
-339,-145,932,1.54,-0.42,0.35
-338,-142,932,2.1,-0.49,0.28
-338,-139,933,2.52,-0.63,0.42
-336,-139,933,2.66,-0.7,0.49
-335,-139,932,3.01,-0.84,0.35
-341,-137,931,3.57,-0.91,0.35
-344,-133,932,4.13,-0.98,0.42
-340,-131,937,4.2,-0.91,0.56
-339,-132,938,3.99,-0.77,0.56
-339,-131,940,4.13,-0.56,0.63
-338,-129,938,4.41,-0.42,0.56
-340,-122,939,4.76,-0.28,0.49
-342,-118,937,4.41,-0.21,0.49
-341,-117,935,3.92,-0.21,0.63
-341,-116,933,3.71,-0.28,0.7
-343,-112,936,3.71,-0.35,0.63
-339,-111,937,3.57,-0.49,0.63
-336,-115,941,2.94,-0.56,0.49
-334,-119,938,2.73,-0.56,0.42
-342,-121,937,3.29,-0.49,0.42
-347,-113,935,3.85,-0.49,0.28
-345,-100,936,3.57,-0.56,0.07
-343,-98,936,2.31,-0.77,0.07
-342,-104,932,1.05,-0.98,0.07
-345,-109,932,0.56,-1.19,0.14
-344,-110,935,0.35,-1.33,0.21
-342,-108,929,-0.14,-1.75,-0.07
-342,-103,933,-0.98,-2.03,-0.14
-335,-111,934,-2.31,-2.31,-0.21
-332,-122,933,-3.01,-2.52,-0.42
-336,-132,935,-2.52,-2.73,-0.42
-340,-132,937,-1.33,-2.66,-0.42
-335,-117,941,-0.35,-2.59,-0.63
-327,-106,943,-0.28,-2.52,-0.35
-327,-112,946,-1.47,-2.38,-0.14
-330,-113,945,-2.73,-2.31,-0.35
-327,-113,942,-3.29,-2.17,-0.49
-334,-113,941,-3.29,-2.1,-0.14
-338,-113,940,-3.29,-1.89,0.14
-338,-126,937,-3.29,-1.68,0.28
-339,-136,937,-2.52,-1.47,0.21
-336,-135,937,-1.19,-1.33,-0.21
-335,-121,936,-0.28,-1.33,-0.49
-336,-116,940,-0.42,-1.33,-0.35
-334,-117,937,-1.54,-1.4,-0.21
-336,-117,941,-2.52,-1.4,-0.07
-328,-128,942,-2.66,-1.33,-0.07
-322,-139,935,-1.82,-1.19,-0.14
-331,-142,935,-0.14,-0.98,-0.28
-341,-129,938,1.4,-0.91,-0.35
-334,-117,940,1.61,-0.91,-0.21
-328,-113,944,0.35,-0.91,-0.14
-328,-118,945,-1.26,-0.84,-0.07
-325,-133,941,-2.1,-0.77,-0.07
-328,-141,936,-1.75,-0.84,0.0
-332,-137,930,-0.21,-0.91,-0.21
-338,-131,929,1.05,-1.12,-0.07
-341,-121,939,1.26,-1.12,0.0
-334,-115,942,0.91,-1.12,-0.14
-331,-109,944,0.42,-1.05,-0.28
-334,-105,946,-0.63,-1.05,-0.14
-330,-108,944,-2.03,-0.98,0.21
-332,-107,941,-3.08,-0.91,0.28
-332,-115,943,-3.92,-0.84,0.56
-331,-127,939,-4.27,-0.7,0.35
-333,-134,938,-3.57,-0.49,0.28
-332,-143,935,-2.24,-0.35,0.21
-335,-136,933,-0.77,-0.28,-0.14
-332,-122,938,-0.28,-0.42,-0.28
-328,-120,936,-1.19,-0.63,-0.28
-329,-125,937,-2.24,-0.77,-0.56
-328,-132,938,-2.45,-0.91,-0.42
-319,-126,943,-1.89,-0.98,-0.56
-316,-126,942,-1.61,-0.91,-0.63
-322,-132,941,-1.33,-0.7,-0.42
-331,-138,939,-0.7,-0.49,-0.28
-334,-136,936,0.49,-0.42,-0.14
-335,-131,938,0.91,-0.35,-0.07
-334,-133,943,0.21,-0.14,-0.07
-329,-139,942,-0.28,0.07,-0.21
-329,-144,938,0.35,0.14,-0.28
-335,-143,936,1.61,0.35,-0.14
-344,-134,935,2.45,0.49,-0.21
-346,-123,935,2.45,0.63,-0.07
-341,-125,933,1.89,0.56,0.21
-339,-124,930,1.33,0.35,0.21
-338,-125,932,1.05,0.07,0.07
-339,-138,927,1.33,-0.14,0.0
-341,-135,929,2.17,-0.35,-0.14
-343,-126,931,3.29,-0.42,-0.14
-345,-120,935,3.5,-0.49,-0.07
-347,-118,938,3.08,-0.56,0.0
-339,-121,937,2.87,-0.49,0.07
-338,-120,937,2.66,-0.49,0.07
-336,-121,936,2.38,-0.49,0.0
-335,-124,934,2.24,-0.56,0.07
-338,-123,931,2.45,-0.77,-0.14
-338,-114,934,2.38,-0.98,-0.21
-333,-108,936,1.89,-1.26,-0.28
-331,-112,939,1.19,-1.47,-0.07
-334,-112,941,0.77,-1.47,0.0
-335,-102,941,0.63,-1.61,-0.21
-337,-92,942,-0.14,-1.82,-0.35
-337,-91,945,-1.96,-1.75,-0.35
-330,-100,944,-3.29,-1.68,-0.21
-328,-111,947,-4.2,-1.47,0.35
-331,-125,942,-4.06,-1.19,0.56
-336,-127,945,-3.5,-0.84,0.7
-337,-130,945,-3.5,-0.35,0.77
-330,-134,938,-3.5,-0.14,0.63
-333,-137,931,-3.29,-0.21,0.49
-338,-130,925,-2.87,-0.63,0.42
-336,-121,923,-2.94,-1.19,0.21
-333,-116,930,-3.64,-1.82,0.07
-324,-116,934,-4.2,-2.31,-0.21
-326,-123,935,-3.99,-2.66,-0.42
-334,-125,935,-3.15,-2.8,-0.28
-337,-119,938,-2.17,-2.8,-0.35
-339,-113,937,-2.03,-2.73,-0.28
-343,-118,936,-2.87,-2.66,-0.14
-341,-128,943,-3.92,-2.45,0.0
-331,-134,942,-3.99,-2.31,-0.35
-327,-134,948,-3.71,-1.96,-0.49
-320,-144,951,-3.57,-1.54,-0.14
-319,-144,948,-2.8,-0.91,-0.21
-322,-133,945,-1.75,-0.56,-0.21
-321,-132,947,-1.54,-0.35,0.07
-322,-129,945,-2.1,-0.07,0.0
-326,-131,945,-2.87,0.21,0.0
-331,-145,943,-3.15,0.56,0.35
-329,-143,940,-2.52,0.77,0.35
-327,-132,943,-1.89,0.84,0.28
-322,-130,943,-2.38,0.98,0.42
-321,-132,936,-3.22,0.98,0.28
-327,-143,935,-3.15,0.91,0.42
-332,-149,931,-2.31,0.84,0.42
-335,-144,931,-0.98,0.77,0.21
-337,-138,934,-0.28,0.7,0.28
-331,-135,934,-0.28,0.49,0.14
-331,-134,936,-0.84,0.42,0.21
-330,-138,935,-1.19,0.28,0.07
-335,-138,937,-1.12,0.14,0.07
-332,-135,936,-0.91,0.07,-0.07
-329,-133,930,-0.42,-0.07,-0.21
-335,-135,929,-0.07,-0.21,-0.07
-341,-132,927,0.56,-0.49,-0.42
-345,-125,930,0.84,-0.77,-0.56
-341,-129,932,0.63,-0.84,-0.63
-343,-135,935,0.56,-0.84,-0.63
-341,-138,938,0.84,-0.63,-0.63
-333,-136,939,1.68,-0.49,-0.56
-331,-128,939,1.96,-0.42,-0.56
-333,-129,940,1.33,-0.42,-0.56
-336,-137,935,0.42,-0.35,-0.49
-339,-147,930,0.49,-0.42,-0.49
-344,-152,930,1.47,-0.35,-0.35
-342,-146,934,2.52,-0.28,-0.28
-332,-135,940,2.59,-0.21,-0.35
-325,-138,938,1.96,-0.28,-0.28
-333,-140,936,1.61,-0.35,-0.28
-336,-139,937,1.61,-0.42,-0.21
-332,-132,928,1.89,-0.7,-0.28
-339,-127,927,1.89,-0.84,-0.14
-346,-126,932,1.54,-1.05,0.0
-336,-129,937,1.19,-1.12,-0.07
-333,-135,939,1.47,-1.05,-0.21
-336,-137,942,2.31,-0.84,-0.28
-339,-127,940,3.43,-0.63,-0.35
-342,-112,938,3.36,-0.42,-0.42
-343,-107,938,2.17,-0.42,-0.07
-342,-113,936,0.7,-0.42,0.21
-336,-122,937,-0.49,-0.42,0.14
-327,-134,936,-0.7,-0.56,0.14
-328,-137,940,-0.21,-0.49,-0.07
-330,-140,936,0.77,-0.42,-0.35
-332,-140,934,2.03,-0.42,-0.42
-336,-127,935,3.15,-0.42,-0.49
-336,-116,936,3.22,-0.49,-0.49
-336,-115,937,2.03,-0.63,-0.28
-335,-123,940,0.77,-0.7,-0.07
-331,-134,944,0.14,-0.63,-0.07
-323,-145,942,0.56,-0.42,-0.21
-321,-151,938,1.96,-0.14,-0.42
-328,-147,934,3.78,0.0,-0.49
-335,-137,932,5.6,-0.14,-0.42
-334,-118,932,6.09,-0.28,-0.14
-336,-109,933,5.04,-0.7,-0.14
-340,-111,937,3.15,-0.98,0.0
-341,-116,941,1.47,-1.05,-0.14
-334,-121,942,0.91,-1.12,-0.28
-332,-123,943,1.47,-0.91,-0.21
-336,-114,938,2.59,-0.7,-0.28
-343,-102,933,3.08,-0.77,-0.21
-347,-100,934,2.45,-0.77,0.0
-347,-108,935,1.47,-0.84,0.0
-343,-115,936,1.05,-0.91,-0.21
-341,-117,942,1.19,-0.77,-0.28
-334,-115,942,1.19,-0.7,-0.42
-331,-110,944,0.98,-0.49,-0.42
-328,-105,946,0.28,-0.42,-0.49
-327,-108,945,-0.77,-0.21,-0.35
-327,-115,941,-1.4,-0.07,-0.35
-331,-126,938,-0.91,0.0,-0.28
-338,-132,937,0.0,0.14,0.0
-340,-127,940,0.84,0.35,-0.07
-331,-118,940,1.12,0.42,-0.21
-326,-112,945,0.42,0.42,-0.14
-323,-118,945,-0.56,0.42,0.0
-321,-127,944,-0.98,0.49,0.07
-317,-131,937,-0.35,0.49,0.14
-323,-130,932,1.12,0.35,0.28
-334,-128,934,1.96,0.28,0.56
-337,-131,934,2.1,0.07,0.56
-340,-136,932,2.24,0.0,0.49
-345,-139,933,2.94,0.0,0.56
-346,-128,934,3.78,0.07,0.35
-345,-116,934,3.71,0.0,0.35
-347,-113,934,2.66,-0.14,0.56
-346,-114,930,1.75,-0.21,0.63
-345,-118,926,1.68,-0.42,0.7
-347,-113,930,2.24,-0.77,0.77
-345,-104,932,2.59,-1.05,0.77
-340,-102,933,2.24,-1.33,0.77
-342,-110,934,1.4,-1.54,0.91
-342,-117,935,1.19,-1.54,0.7
-340,-116,937,1.82,-1.68,0.49
-341,-114,937,2.52,-1.61,0.42
-341,-113,936,3.08,-1.61,0.28
-343,-111,938,3.43,-1.47,0.35
-338,-106,938,3.64,-1.4,0.35
-337,-99,936,3.5,-1.54,0.35
-338,-98,942,2.52,-1.54,0.35
-331,-105,941,1.47,-1.47,0.14
-333,-114,937,1.33,-1.54,0.0
-339,-112,938,2.17,-1.47,-0.14
-337,-101,941,3.15,-1.47,-0.28
-335,-88,939,3.01,-1.54,-0.21
-333,-77,942,1.61,-1.75,-0.21
-331,-76,945,-0.28,-1.89,-0.21
-330,-89,945,-2.03,-1.96,-0.21
-332,-103,941,-2.66,-2.03,-0.21
-337,-102,939,-2.24,-2.03,-0.28
-339,-93,943,-1.89,-1.96,-0.42
-339,-86,943,-2.52,-1.89,-0.28
-337,-86,945,-3.92,-1.82,-0.14
-329,-91,950,-5.6,-1.68,0.07
-322,-103,950,-6.72,-1.54,0.14
-318,-111,948,-6.79,-1.26,0.07
-324,-119,945,-6.37,-1.12,-0.07
-327,-122,938,-5.6,-0.91,-0.21
-332,-122,934,-4.62,-0.98,-0.28
-334,-118,939,-4.06,-0.91,-0.07
-327,-111,948,-4.27,-0.77,-0.14
-315,-115,949,-5.04,-0.7,-0.14
-319,-134,946,-5.39,-0.42,-0.07
-329,-135,946,-4.48,-0.14,-0.35
-332,-128,944,-3.01,0.21,-0.42
-335,-121,938,-2.31,0.49,-0.28
-340,-121,934,-2.45,0.63,-0.07
-345,-129,932,-2.52,0.63,0.21
-341,-133,932,-2.38,0.63,0.21
-334,-132,934,-1.82,0.56,0.14
-328,-138,938,-1.26,0.56,0.0
-327,-142,941,-0.56,0.7,-0.07
-326,-135,940,0.77,0.77,-0.35
-330,-129,938,1.96,0.84,-0.28
-336,-124,930,2.45,0.84,0.07
-344,-117,928,2.24,0.56,0.42
-346,-118,932,1.47,0.35,0.63
-336,-125,931,0.84,0.0,0.63
-332,-137,935,0.77,-0.21,0.56
-336,-143,937,1.54,-0.21,0.28
-335,-135,936,3.15,-0.14,0.0
-337,-127,934,4.69,-0.07,0.07
-343,-116,929,5.32,-0.21,0.07
-346,-109,933,5.11,-0.35,0.21
-341,-106,934,4.34,-0.56,0.21
-339,-111,933,3.71,-0.7,0.28
-343,-111,939,3.57,-0.91,0.21
-343,-106,945,3.5,-0.84,0.07
-339,-103,943,3.22,-0.77,-0.07
-339,-98,937,3.08,-0.7,-0.14
-342,-92,932,2.94,-0.84,0.0
-349,-94,932,2.17,-0.98,0.21
-347,-103,931,1.05,-1.26,0.28
-342,-108,937,0.49,-1.47,0.07
-335,-109,942,0.56,-1.47,-0.21
-335,-112,947,0.42,-1.33,-0.35
-336,-112,948,0.35,-1.05,-0.56
-332,-108,946,0.7,-0.7,-0.56
-332,-98,943,1.12,-0.42,-0.49
-332,-93,942,0.7,-0.35,-0.14
-331,-98,939,-0.21,-0.35,0.14
-333,-102,938,-1.12,-0.42,0.07
-329,-116,941,-1.4,-0.49,0.07
-330,-124,942,-0.84,-0.35,0.0
-331,-115,943,0.0,-0.21,-0.28
-329,-105,944,0.63,-0.07,-0.28
-330,-96,944,0.42,-0.07,-0.14
-333,-98,939,-0.7,-0.07,0.0
-337,-102,936,-1.61,-0.21,0.07
-339,-98,937,-1.82,-0.42,0.07
-334,-99,935,-2.45,-0.7,0.14
-332,-96,937,-3.29,-0.98,0.21
-338,-106,941,-4.2,-1.12,0.28
-343,-113,943,-4.41,-1.12,0.21
-345,-118,943,-4.2,-0.77,0.21
-344,-117,942,-3.64,-0.35,0.07
-344,-119,941,-3.01,0.0,-0.14
-348,-116,937,-2.52,0.21,-0.35
-348,-105,936,-2.52,0.35,-0.14
-346,-108,936,-3.36,0.42,0.21
-345,-120,937,-4.62,0.49,0.49
-339,-131,935,-4.97,0.49,0.35
-338,-137,934,-4.06,0.49,0.42
-337,-136,933,-2.94,0.49,0.28
-333,-134,932,-2.03,0.49,0.14
-335,-134,930,-1.33,0.42,0.07
-336,-136,928,-0.56,0.28,0.0
-335,-134,929,0.28,0.0,-0.14
-331,-124,931,1.05,-0.35,-0.56
-329,-117,930,1.47,-0.7,-0.7
-335,-117,932,1.75,-1.12,-0.7
-337,-111,937,1.96,-1.33,-0.84
-331,-105,939,2.1,-1.47,-0.98
-332,-101,941,2.24,-1.47,-1.05
-335,-96,943,1.96,-1.54,-0.98
-338,-91,945,1.19,-1.47,-0.84
-337,-92,946,0.14,-1.33,-0.84
-335,-99,945,-1.19,-1.12,-0.7
-336,-114,939,-1.82,-0.98,-0.63
-343,-117,940,-1.61,-0.84,-0.84
-338,-115,941,-1.12,-0.7,-0.84
-334,-115,937,-1.12,-0.63,-0.91
-334,-110,937,-1.54,-0.63,-1.05
-337,-110,939,-2.03,-0.7,-0.98
-333,-112,942,-2.8,-0.77,-0.98
-326,-126,939,-3.43,-0.7,-0.7
-333,-141,937,-2.87,-0.56,-0.56
-342,-138,942,-1.68,-0.28,-0.49
-335,-130,943,-1.12,-0.07,-0.49
-330,-123,941,-1.33,0.14,-0.49
-335,-126,940,-1.96,0.28,-0.21
-343,-138,939,-2.31,0.49,0.0
-344,-145,936,-1.61,0.77,0.14
-340,-143,930,-0.07,0.91,0.28
-345,-137,926,1.33,0.91,0.28
-353,-132,927,2.03,0.84,0.21
-350,-123,925,2.1,0.63,0.0
-349,-116,926,1.89,0.21,-0.21
-348,-111,929,1.47,-0.14,-0.42
-349,-110,931,1.33,-0.42,-0.56
-348,-107,932,1.47,-0.56,-0.49
-343,-103,934,1.61,-0.7,-0.42
-342,-106,930,1.75,-0.91,-0.56
-344,-101,932,1.68,-1.19,-0.63
-345,-96,934,1.19,-1.47,-0.7
-339,-96,935,0.14,-1.68,-0.77
-334,-103,935,-1.19,-1.96,-0.91
-335,-109,937,-2.1,-2.24,-1.19
-334,-119,935,-1.96,-2.38,-1.33
-335,-125,935,-1.12,-2.38,-1.26
-335,-122,934,-0.28,-2.45,-1.47
-338,-119,933,0.28,-2.52,-1.68
-342,-116,936,0.28,-2.59,-1.75
-336,-120,940,-0.21,-2.59,-1.68
-327,-128,940,-0.35,-2.52,-1.61
-326,-131,945,0.14,-2.31,-1.54
-327,-134,943,0.56,-2.03,-1.4
-327,-137,944,1.26,-1.75,-1.19
-330,-139,943,1.89,-1.47,-0.84
-334,-142,939,2.52,-1.12,-0.77
-338,-139,940,3.08,-0.84,-0.84
-334,-129,942,3.36,-0.63,-0.84
-323,-121,945,3.22,-0.49,-0.7
-317,-114,948,2.87,-0.28,-0.49
-317,-109,947,2.17,-0.21,-0.28
-323,-108,945,1.54,-0.14,-0.07
-327,-114,943,0.91,-0.07,0.21
-331,-119,937,1.05,0.0,0.28
-340,-113,935,1.75,-0.07,0.21
-345,-104,933,2.24,-0.21,0.0
-345,-91,934,1.82,-0.49,-0.21
-345,-79,935,0.77,-0.77,-0.28
-344,-70,938,-0.63,-1.12,-0.21
-339,-67,943,-2.52,-1.4,-0.28
-338,-71,944,-4.34,-1.47,-0.14
-338,-74,944,-6.09,-1.61,-0.21
-334,-78,942,-7.35,-1.68,-0.14
-335,-90,938,-8.54,-1.82,-0.14
-341,-103,936,-9.66,-2.03,-0.07
-347,-121,934,-10.57,-2.03,0.21
-348,-139,929,-10.71,-2.17,0.07
-347,-155,929,-9.87,-2.1,0.0
-346,-168,930,-8.54,-1.89,-0.07
-344,-170,933,-7.14,-1.75,-0.49
-338,-170,936,-6.02,-1.4,-0.77
-327,-164,938,-4.62,-1.19,-1.05
-319,-153,940,-3.15,-0.98,-1.05
-321,-144,939,-2.45,-0.84,-0.91
-328,-142,936,-2.17,-0.84,-0.7
-334,-147,930,-1.47,-0.77,-0.49
-338,-145,928,0.0,-0.84,-0.49
-338,-138,930,1.47,-0.91,-0.63
-334,-136,932,2.52,-0.98,-0.7
-332,-131,933,3.29,-1.12,-0.84
-332,-122,936,3.78,-1.26,-0.91
-333,-113,937,3.64,-1.47,-0.77
-331,-102,941,2.52,-1.75,-0.77
-324,-105,942,0.77,-2.03,-0.63
-322,-114,941,-0.7,-2.17,-0.77
-325,-127,938,-0.98,-2.31,-0.91
-334,-137,936,-0.14,-2.24,-0.77
-335,-131,939,0.98,-2.17,-0.77
-331,-117,943,1.19,-2.1,-0.7
-327,-106,947,0.0,-2.1,-0.77
-326,-105,948,-2.31,-2.17,-0.77
-325,-109,946,-4.27,-2.17,-0.91
-327,-117,942,-5.25,-2.17,-0.91
-335,-119,938,-5.53,-2.1,-0.77
-339,-119,933,-5.53,-2.17,-0.7
-342,-121,932,-5.88,-2.31,-0.35
-343,-134,928,-6.37,-2.59,-0.21
-346,-150,926,-6.86,-2.73,-0.14
-348,-161,929,-6.72,-2.8,-0.42
-336,-166,934,-5.81,-2.8,-0.7
-321,-167,937,-4.62,-2.59,-0.91
-318,-162,938,-2.73,-2.52,-1.19
-320,-157,941,-1.12,-2.38,-0.91
-323,-155,941,-0.28,-2.1,-0.7
-323,-156,945,0.21,-1.75,-0.63
-318,-164,945,1.26,-1.19,-0.49
-315,-166,945,3.08,-0.77,-0.49
-323,-154,944,4.69,-0.35,-0.49
-325,-141,945,5.53,0.07,-0.56
-321,-133,945,5.25,0.35,-0.21
-320,-132,940,4.69,0.49,-0.07
-324,-130,939,4.62,0.56,-0.07
-328,-129,939,4.83,0.56,-0.07
-327,-126,942,5.18,0.49,-0.14
-321,-124,944,5.32,0.49,-0.14
-317,-120,944,5.32,0.49,-0.21
-319,-108,945,4.83,0.49,-0.28
-322,-99,946,3.64,0.35,-0.28
-327,-100,942,1.82,0.14,-0.14
-332,-107,940,0.0,0.0,-0.14
-336,-119,936,-1.12,-0.07,-0.07
-336,-128,935,-0.91,-0.21,-0.07
-342,-129,933,-0.42,-0.21,-0.14
-340,-127,935,-0.14,-0.28,-0.21
-333,-121,938,-0.7,-0.42,-0.35
-325,-116,939,-2.03,-0.63,-0.42
-326,-121,941,-3.36,-0.84,-0.28
-327,-132,944,-4.27,-0.84,-0.28
-323,-141,941,-4.13,-0.7,-0.14
-324,-147,939,-2.87,-0.42,0.0
-330,-149,939,-1.4,-0.14,0.21
-334,-147,937,-0.14,0.07,0.21
-334,-145,936,0.63,0.21,0.14
-332,-148,931,1.12,0.21,0.07
-333,-144,929,1.4,0.07,-0.14
-335,-135,934,1.61,-0.14,-0.14
-329,-128,933,1.54,-0.42,-0.14
-324,-124,936,1.47,-0.7,0.0
-327,-124,935,1.47,-0.91,0.0
-334,-127,932,1.54,-1.19,-0.07
-340,-125,933,1.96,-1.26,-0.07
-335,-122,933,2.38,-1.47,-0.07
-338,-118,934,2.03,-1.68,-0.14
-340,-116,937,1.12,-1.89,-0.21
-334,-122,942,0.14,-1.89,-0.28
-330,-132,936,0.14,-1.82,-0.28
-337,-130,936,0.77,-1.75,-0.14
-333,-119,943,1.19,-1.68,-0.21
-325,-115,943,0.49,-1.68,-0.35
-323,-121,941,-0.21,-1.75,-0.35
-325,-126,942,-0.56,-1.68,-0.42
-327,-131,939,-0.21,-1.68,-0.42
-330,-128,941,0.35,-1.54,-0.42
-328,-123,941,0.42,-1.54,-0.28
-326,-122,942,0.0,-1.4,-0.14
-322,-124,944,-0.7,-1.4,-0.21
-320,-129,943,-1.19,-1.33,-0.14
-323,-135,944,-1.19,-1.26,-0.28
-323,-139,944,-0.77,-0.98,-0.42
-321,-141,942,0.21,-0.7,-0.35
-324,-139,942,1.47,-0.49,-0.35
-324,-130,943,2.38,-0.28,-0.28
-322,-124,945,2.52,-0.14,-0.21
-324,-121,942,1.96,-0.07,0.07
-330,-126,942,1.19,0.0,0.21
-327,-124,943,0.56,0.14,0.21
-319,-122,943,0.07,0.14,0.21
-320,-130,941,-0.28,0.21,0.28
-330,-137,937,0.28,0.21,0.28
-334,-127,934,1.33,0.14,0.21
-331,-114,936,1.68,0.0,0.21
-329,-108,930,0.91,-0.35,0.21
-335,-106,934,-0.49,-0.77,0.21
-340,-111,936,-1.68,-1.05,0.21
-334,-113,939,-2.31,-1.26,0.07
-328,-116,938,-2.59,-1.4,0.07
-330,-123,942,-2.8,-1.4,0.21
-331,-130,943,-2.59,-1.26,0.21
-329,-135,939,-1.96,-1.19,0.14
-333,-130,937,-1.54,-1.19,0.07
-329,-126,938,-1.68,-1.26,-0.14
-329,-134,935,-2.17,-1.33,-0.07
-331,-141,935,-2.31,-1.4,-0.14
-327,-141,935,-1.61,-1.47,-0.28
-327,-140,936,-0.49,-1.54,-0.35
-330,-134,938,0.14,-1.47,-0.42
-327,-127,941,0.7,-1.47,-0.49
-324,-117,942,0.77,-1.4,-0.56
-325,-116,944,0.0,-1.4,-0.42
-324,-124,946,-0.56,-1.26,-0.28
-324,-130,942,-0.49,-1.05,-0.21
-326,-130,942,-0.07,-0.91,-0.14
-322,-125,947,0.0,-0.77,-0.21
-317,-122,944,-0.35,-0.7,-0.42
-318,-124,943,-0.7,-0.63,-0.42
-326,-126,940,-0.91,-0.63,-0.21
-329,-122,941,-0.91,-0.77,-0.21
-325,-123,941,-1.19,-0.7,-0.14
-324,-127,940,-1.33,-0.7,-0.07
-325,-129,938,-0.98,-0.77,-0.35
-326,-128,938,-0.7,-0.77,-0.35
-327,-125,938,-0.63,-0.84,-0.35
-323,-115,941,-1.19,-0.98,-0.35
-320,-119,942,-2.38,-1.19,-0.14
-324,-131,940,-3.5,-1.26,-0.07
-327,-141,939,-3.5,-1.19,0.07
-327,-147,936,-2.66,-1.19,0.21
-324,-149,936,-1.82,-1.12,0.28
-325,-150,938,-1.05,-1.12,0.21
-329,-152,937,-0.42,-1.05,0.07
-328,-150,938,0.35,-0.91,-0.07
-326,-147,937,1.26,-0.77,0.0
-327,-137,938,1.68,-0.7,0.21
-326,-129,940,1.4,-0.77,0.35
-326,-126,940,0.63,-0.77,0.42
-323,-130,939,0.14,-0.84,0.49
-323,-136,938,0.49,-0.98,0.56
-324,-134,937,1.33,-1.05,0.42
-327,-128,937,2.24,-1.05,0.42
-328,-125,936,2.59,-1.05,0.49
-332,-125,938,2.45,-1.12,0.42
-332,-126,939,2.17,-1.19,0.35
-333,-125,937,2.03,-1.26,0.21
-338,-124,937,1.82,-1.26,0.21
-337,-124,941,1.47,-1.19,0.07
-331,-123,940,1.12,-1.05,0.0
-325,-122,940,1.47,-1.12,-0.14
-325,-121,941,1.68,-1.12,-0.14
-322,-113,943,1.47,-1.12,-0.21
-319,-109,942,0.84,-1.26,-0.21
-320,-118,941,-0.28,-1.4,0.07
-322,-123,940,-0.98,-1.61,0.0
-322,-126,942,-1.26,-1.75,-0.21
-323,-135,940,-1.19,-1.75,-0.35
-322,-138,941,-0.42,-1.61,-0.56
-321,-139,944,0.98,-1.4,-0.7
-322,-126,943,2.1,-1.26,-0.63
-326,-113,943,2.24,-1.12,-0.49
-325,-108,947,0.98,-1.12,-0.35
-321,-116,943,-0.63,-1.12,-0.21
-320,-127,941,-1.4,-1.19,-0.28
-319,-131,938,-1.12,-1.33,-0.49
-317,-133,939,-0.7,-1.4,-0.56
-312,-131,938,0.0,-1.54,-0.7
-317,-130,944,0.56,-1.54,-0.7
-320,-127,944,0.98,-1.54,-0.84
-316,-119,944,1.19,-1.54,-0.91
-319,-114,945,1.05,-1.61,-0.84
-322,-111,943,0.63,-1.61,-0.84
-326,-110,943,0.07,-1.54,-0.7
-328,-116,943,-0.56,-1.54,-0.56
-328,-124,942,-0.84,-1.54,-0.49
-326,-120,946,-1.19,-1.26,-0.49
-321,-120,945,-1.47,-1.12,-0.49
-322,-126,945,-2.03,-0.91,-0.35
-327,-133,944,-2.8,-0.77,-0.42
-329,-122,941,-2.8,-0.49,-0.49
-330,-117,941,-2.87,-0.56,-0.14
-330,-123,938,-3.64,-0.56,0.07
-331,-136,940,-4.27,-0.56,0.0
-326,-145,941,-3.71,-0.42,-0.28
-317,-148,939,-2.1,-0.35,-0.42
-317,-140,938,-0.28,-0.42,-0.28
-319,-124,940,0.14,-0.56,-0.35
-319,-116,940,-1.4,-0.77,-0.42
-318,-129,938,-3.29,-1.12,-0.35
-321,-151,935,-3.64,-1.26,-0.56
-324,-159,937,-2.03,-1.26,-0.56
-319,-150,939,0.49,-1.26,-0.63
-315,-127,939,2.31,-1.33,-0.84
-318,-111,943,1.89,-1.47,-0.84
-322,-108,944,0.14,-1.68,-0.77
-323,-108,945,-1.61,-1.82,-0.77
-320,-115,946,-2.73,-1.75,-0.63
-319,-124,946,-3.22,-1.61,-0.49
-317,-133,944,-3.15,-1.47,-0.49
-317,-137,943,-2.59,-1.4,-0.42
-317,-140,941,-1.75,-1.33,-0.42
-316,-139,943,-1.33,-1.19,-0.56
-315,-138,940,-1.26,-1.19,-0.56
-319,-138,940,-1.47,-1.19,-0.42
-320,-142,942,-1.68,-1.26,-0.35
-319,-150,942,-1.4,-1.12,-0.21
-320,-150,942,-0.77,-0.91,-0.21
-324,-147,942,0.14,-0.7,-0.28
-319,-144,943,0.7,-0.56,-0.21
-314,-144,941,1.12,-0.49,-0.14
-318,-141,940,1.47,-0.49,-0.07
-319,-139,940,1.68,-0.49,-0.07
-311,-138,938,1.54,-0.63,0.0
-310,-142,938,1.54,-0.77,0.07
-317,-152,935,2.1,-0.84,0.21
-322,-155,938,3.22,-0.91,0.07
-320,-148,941,4.41,-0.84,-0.07
-319,-137,942,5.53,-0.77,-0.07
-325,-128,943,5.67,-0.63,0.0
-328,-122,944,5.25,-0.56,0.0
-324,-115,944,4.76,-0.49,0.07
-323,-115,940,4.13,-0.49,0.21
-326,-117,942,3.43,-0.49,0.42
-324,-119,939,3.01,-0.56,0.42
-324,-122,940,2.94,-0.49,0.49
-322,-127,941,3.08,-0.49,0.42
-320,-132,944,3.43,-0.49,0.35
-321,-131,944,3.99,-0.42,0.28
-318,-123,944,4.48,-0.28,0.35
-318,-125,946,4.34,-0.28,0.49
-318,-123,944,3.92,-0.21,0.35
-314,-118,946,3.92,-0.28,0.21
-312,-113,947,3.64,-0.21,0.35
-309,-108,948,3.08,-0.21,0.42
-314,-111,946,2.31,-0.21,0.63
-320,-109,942,1.75,-0.42,0.49
-326,-102,941,1.19,-0.63,0.49
-328,-102,939,0.35,-0.77,0.42
-333,-108,937,-0.42,-0.91,0.35
-332,-110,945,-0.49,-0.91,0.21
-325,-104,947,0.07,-0.84,0.07
-318,-97,949,0.21,-0.63,0.07
-320,-95,950,-0.42,-0.56,0.07
-324,-100,945,-1.47,-0.42,0.14
-326,-100,947,-2.66,-0.42,0.14
-320,-108,945,-3.71,-0.42,0.21
-314,-120,942,-4.34,-0.42,0.21
-315,-132,939,-4.27,-0.56,0.14
-320,-138,938,-3.22,-0.63,-0.07
-321,-139,935,-1.75,-0.77,-0.28
-322,-135,935,-0.42,-0.91,-0.35
-320,-125,939,0.28,-1.05,-0.42
-319,-118,942,0.28,-1.19,-0.49
-319,-115,944,-0.49,-1.33,-0.35
-320,-119,946,-1.33,-1.33,-0.21
-322,-130,947,-1.89,-1.19,-0.07
-319,-136,945,-1.68,-0.98,-0.14
-315,-135,942,-0.63,-0.84,-0.14
-318,-128,944,0.49,-0.7,0.07
-320,-121,944,0.56,-0.63,0.07
-322,-120,944,0.14,-0.63,0.21
-318,-125,943,-0.14,-0.63,0.35
-318,-126,940,0.07,-0.63,0.28
-322,-126,942,0.28,-0.56,0.28
-322,-126,940,0.49,-0.56,0.21
-323,-125,938,0.91,-0.63,0.14
-323,-115,938,1.12,-0.84,0.07
-320,-109,938,0.63,-1.12,-0.07
-321,-109,940,-0.49,-1.47,0.0
-322,-113,941,-1.4,-1.68,-0.14
-320,-117,942,-1.61,-1.75,-0.35
-324,-123,944,-1.12,-1.75,-0.28
-328,-121,944,-0.49,-1.61,-0.28
-327,-113,945,-0.21,-1.47,-0.28
-328,-112,945,-0.56,-1.19,-0.07
-324,-119,946,-1.26,-1.05,0.07
-321,-124,947,-1.82,-0.84,-0.14
-316,-131,944,-1.61,-0.7,-0.35
-311,-131,942,-0.63,-0.63,-0.28
-313,-129,942,0.14,-0.63,-0.35
-316,-130,942,0.56,-0.7,-0.28
-315,-124,941,0.91,-0.77,-0.35
-317,-116,945,0.84,-0.84,-0.42
-313,-117,947,0.14,-0.84,-0.28
-310,-116,947,-0.56,-0.84,-0.35
-313,-114,946,-1.05,-0.91,-0.42
-313,-122,945,-1.05,-0.84,-0.21
-315,-126,945,-0.63,-0.84,-0.14
-314,-124,943,-0.07,-0.77,-0.21
-317,-126,938,0.56,-0.84,-0.14
-327,-129,936,1.05,-0.84,-0.14
-331,-123,939,0.91,-0.91,-0.28
-330,-121,940,0.49,-0.98,-0.28
-328,-123,943,-0.07,-1.05,-0.35
-322,-125,944,-0.14,-0.98,-0.49
-319,-122,946,0.21,-0.77,-0.35
-317,-118,951,0.42,-0.49,-0.14
-311,-119,950,0.42,-0.35,-0.07
-308,-119,947,0.63,-0.14,0.07
-313,-120,950,0.35,0.0,0.14
-312,-127,948,0.21,0.14,0.21
-311,-127,943,0.42,0.21,0.28
-316,-126,942,0.63,0.21,0.21
-317,-129,943,0.56,0.21,0.21
-315,-131,940,0.98,0.07,0.0
-318,-130,938,1.68,0.0,0.07
-326,-128,940,2.45,0.0,0.0
-327,-117,940,2.66,-0.14,-0.28
-327,-109,943,2.38,-0.28,-0.28
-327,-111,945,1.68,-0.21,-0.14
-324,-108,945,1.19,-0.07,-0.14
-324,-105,943,0.91,-0.14,0.0
-324,-106,941,0.14,-0.21,0.28
-326,-109,940,-0.7,-0.28,0.14
-325,-122,937,-1.05,-0.35,0.14
-325,-128,936,-0.42,-0.49,0.14
-321,-121,938,0.49,-0.77,-0.07
-320,-113,937,0.7,-1.05,-0.14
-322,-106,939,0.0,-1.47,-0.21
-323,-109,936,-1.12,-1.82,-0.28
-326,-115,939,-1.75,-2.1,-0.28
-324,-116,944,-1.82,-2.24,-0.42
-320,-116,944,-1.4,-2.17,-0.49
-320,-118,942,-0.98,-2.17,-0.42
-326,-115,943,-0.63,-2.1,-0.49
-327,-105,942,-0.84,-2.17,-0.56
-322,-105,943,-2.03,-2.24,-0.42
-319,-111,944,-3.36,-2.17,-0.42
-320,-123,945,-3.71,-2.24,-0.35
-317,-131,946,-3.29,-2.03,-0.28
-317,-144,948,-2.66,-1.75,-0.35
-309,-130,950,-1.19,-1.47,-0.77
-306,-118,952,-0.14,-1.19,-0.49
-309,-119,952,-0.28,-0.91,-0.21
-310,-118,952,-0.98,-0.63,-0.35
-313,-131,951,-1.54,-0.28,-0.28
-311,-139,947,-1.12,0.0,-0.14
-308,-138,947,0.0,0.28,0.07
-306,-134,946,0.84,0.35,0.21
-310,-133,945,1.05,0.42,0.07
-314,-137,938,1.19,0.42,0.0
-318,-136,939,1.96,0.35,0.0
-317,-127,940,2.66,0.21,0.0
-316,-123,937,2.8,0.0,0.14
-320,-120,935,2.52,-0.35,0.28
-330,-121,934,2.03,-0.7,0.28
-334,-125,935,1.68,-0.98,0.21
-327,-128,932,1.68,-1.26,0.07
-327,-123,933,2.17,-1.54,-0.07
-326,-112,941,2.73,-1.82,-0.14
-320,-101,947,2.31,-1.82,-0.21
-311,-105,953,1.33,-1.68,-0.14
-313,-117,953,1.05,-1.4,-0.07
-318,-122,955,1.75,-0.91,0.07
-321,-113,957,2.52,-0.35,0.28
-316,-107,956,2.17,0.21,0.42
-317,-119,953,0.84,0.63,0.63
-315,-126,946,0.21,0.91,0.42
-314,-126,944,0.77,0.98,0.35
-315,-119,940,1.54,0.91,0.28
-314,-109,937,1.96,0.77,0.14
-322,-104,938,1.68,0.42,0.21
-321,-101,937,1.4,0.0,0.07
-316,-101,934,1.4,-0.42,0.0
-325,-96,936,1.4,-0.84,0.0
-331,-91,939,0.77,-1.33,-0.28
-328,-92,941,-0.56,-1.68,-0.49
-320,-106,945,-1.75,-1.75,-0.49
-315,-120,947,-1.89,-1.68,-0.35
-314,-120,947,-0.98,-1.54,-0.42
-320,-113,949,-0.42,-1.4,-0.28
-321,-113,946,-0.7,-1.26,-0.14
-323,-121,945,-1.61,-1.05,-0.07
-322,-127,944,-1.96,-0.91,-0.07
-317,-127,941,-1.47,-0.91,0.0
-314,-120,943,-0.84,-0.91,-0.07
-314,-120,944,-0.98,-1.05,-0.07
-311,-125,943,-1.33,-1.19,0.0
-310,-126,943,-0.98,-1.19,-0.21
-311,-128,945,0.14,-1.12,-0.14
-312,-129,948,1.26,-0.98,-0.07
-312,-123,948,1.96,-0.91,-0.28
-315,-117,944,2.45,-0.84,-0.21
-321,-112,947,2.45,-0.7,0.0
-318,-115,949,1.96,-0.63,0.07
-316,-120,948,1.54,-0.35,0.07
-316,-123,948,1.75,-0.14,-0.07
-316,-123,943,2.73,0.07,-0.07
-323,-114,942,3.36,0.21,-0.07
-325,-110,941,3.29,0.21,-0.14
-326,-110,943,3.22,0.21,-0.07
-322,-110,945,3.15,0.28,-0.07
-321,-107,941,3.22,0.21,-0.07
-326,-102,941,3.29,0.14,-0.14
-325,-90,946,2.52,-0.07,-0.21
-314,-89,948,1.05,-0.21,-0.14
-311,-95,946,-0.28,-0.35,-0.14
-310,-99,949,-0.98,-0.49,-0.14
-310,-109,945,-1.05,-0.63,0.0
-315,-111,941,-0.63,-0.7,-0.07
-327,-109,940,-0.28,-0.7,-0.14
-329,-104,944,-0.35,-0.77,-0.35
-324,-102,943,-0.7,-0.98,-0.56
-326,-105,943,-1.05,-1.05,-0.56
-325,-104,944,-1.33,-1.05,-0.56
-321,-106,944,-1.4,-1.05,-0.49
-322,-109,942,-1.4,-1.05,-0.35
-324,-114,944,-1.4,-0.98,-0.28
-323,-120,943,-1.19,-0.91,-0.35
-322,-123,941,-0.84,-0.91,-0.42
-326,-125,940,-0.7,-0.84,-0.35
-324,-123,946,-0.84,-0.77,-0.28
-314,-122,948,-1.05,-0.63,-0.35
-307,-124,950,-1.12,-0.49,-0.35
-310,-130,951,-0.77,-0.21,-0.35
-309,-127,951,0.35,0.07,-0.28
-310,-119,951,1.75,0.42,0.0
-314,-108,948,2.52,0.7,0.07
-320,-98,945,2.31,0.77,0.21
-321,-91,945,1.26,0.63,0.14
-317,-92,941,0.14,0.35,-0.07
-318,-95,940,-0.35,0.07,-0.21
-315,-93,947,-0.63,-0.07,-0.14
-309,-96,947,-0.7,-0.21,-0.28
-313,-102,944,-0.7,-0.28,-0.28
-325,-106,944,-0.42,-0.35,-0.21
-332,-106,942,-0.14,-0.28,-0.21
-330,-103,942,-0.49,-0.35,-0.28
-326,-105,941,-1.47,-0.42,-0.28
-326,-108,937,-2.03,-0.63,-0.56
-326,-107,940,-2.38,-0.91,-0.63
-327,-116,938,-2.8,-1.05,-0.49
-327,-126,940,-2.52,-1.05,-0.42
-325,-128,940,-1.61,-0.98,-0.49
-324,-126,942,-0.63,-0.91,-0.49
-319,-124,946,-0.14,-0.84,-0.56
-315,-120,946,0.0,-0.7,-0.49
-316,-120,944,-0.07,-0.7,-0.42
-320,-119,944,-0.07,-0.63,-0.35
-319,-115,944,0.0,-0.63,-0.21
-317,-111,945,-0.21,-0.7,-0.21
-318,-113,944,-0.63,-0.63,-0.28
-322,-118,941,-0.49,-0.63,-0.28
-328,-110,943,-0.14,-0.63,-0.14
-328,-103,946,-0.21,-0.56,-0.14
-324,-105,946,-0.84,-0.42,-0.14
-323,-110,945,-1.47,-0.28,-0.14
-324,-116,944,-1.26,-0.14,-0.21
-320,-109,947,-0.56,0.0,-0.28
-314,-100,946,-0.21,0.07,-0.21
-315,-94,947,-0.84,0.07,-0.21
-315,-95,945,-1.96,0.0,-0.14
-314,-101,943,-2.73,-0.21,0.0
-313,-106,945,-3.36,-0.42,0.14
-315,-115,941,-3.36,-0.49,0.0
-321,-121,942,-3.15,-0.63,0.0
-320,-123,941,-2.87,-0.7,-0.14
-319,-127,942,-2.38,-0.7,-0.14
-319,-130,938,-1.75,-0.7,-0.21
-321,-132,940,-1.19,-0.77,-0.14
-326,-133,938,-0.7,-0.84,-0.14
-325,-133,939,-0.21,-0.91,-0.14
-325,-130,941,0.14,-0.84,-0.21
-320,-127,942,0.63,-0.84,-0.28
-319,-118,945,0.7,-0.84,-0.14
-316,-112,946,0.56,-0.84,-0.14
-315,-118,945,0.28,-0.77,0.0
-323,-121,942,0.42,-0.63,0.14
-329,-115,942,1.05,-0.49,0.14
-326,-110,941,1.4,-0.49,0.28
-325,-102,939,1.4,-0.56,0.35
-329,-95,941,0.77,-0.7,0.28
-326,-97,942,-0.42,-0.98,0.28
-317,-104,940,-1.33,-1.33,0.21
-316,-111,937,-1.89,-1.68,0.0
-325,-111,937,-1.68,-1.96,-0.21
-329,-109,937,-1.47,-2.31,-0.35
-327,-110,940,-1.68,-2.45,-0.35
-321,-116,944,-1.96,-2.52,-0.42
-319,-120,948,-1.89,-2.45,-0.42
-319,-118,950,-1.61,-2.24,-0.35
-316,-117,950,-1.75,-1.96,-0.35
-318,-113,950,-2.1,-1.82,-0.28
-316,-113,949,-2.8,-1.61,-0.14
-315,-121,946,-3.43,-1.47,0.14
-315,-129,941,-3.43,-1.4,0.21
-314,-135,938,-2.59,-1.54,0.28
-315,-137,935,-1.54,-1.75,0.21
-318,-133,937,-0.7,-1.96,0.14
-317,-127,937,-0.28,-2.24,0.07
-313,-120,940,-0.28,-2.52,0.0
-314,-118,945,-0.91,-2.73,0.0
-311,-123,945,-1.19,-2.87,0.07
-313,-126,949,-1.33,-2.73,0.28
-311,-129,951,-0.91,-2.52,0.35
-312,-133,948,-0.14,-2.24,0.56
-318,-132,944,0.77,-1.96,0.56
-321,-129,946,1.54,-1.75,0.77
-320,-126,945,1.61,-1.61,0.7
-318,-124,944,1.4,-1.54,0.63
-319,-127,942,1.4,-1.54,0.63
-318,-125,943,1.68,-1.54,0.56
-320,-122,942,1.89,-1.54,0.63
-320,-127,939,1.96,-1.61,0.84
-327,-132,937,2.31,-1.54,0.91
-329,-138,939,2.94,-1.47,0.77
-322,-146,943,4.13,-1.19,0.7
-314,-144,943,5.95,-0.91,0.49
-311,-129,945,7.77,-0.77,0.21
-312,-108,948,8.26,-0.77,0.0
-314,-88,950,7.14,-0.91,-0.28
-310,-82,949,5.18,-0.98,-0.49
-311,-84,948,3.57,-0.98,-0.56
-314,-79,950,2.87,-1.05,-0.56
-312,-71,952,2.59,-1.19,-0.56
-309,-64,952,1.89,-1.19,-0.35
-310,-57,955,0.42,-1.19,-0.14
-310,-59,957,-1.75,-1.19,0.0
-307,-68,956,-4.2,-1.26,-0.07
-305,-80,954,-6.02,-1.33,-0.28
-307,-93,952,-7.14,-1.26,-0.28
-308,-100,950,-7.91,-1.19,-0.21
-310,-116,948,-8.4,-1.12,-0.14
-313,-127,946,-8.05,-1.05,-0.07
-308,-131,945,-7.21,-0.98,-0.21
-306,-137,942,-6.51,-0.98,-0.42
-314,-140,938,-5.95,-1.12,-0.63
-321,-141,936,-5.32,-1.26,-0.7
-319,-144,937,-4.41,-1.4,-0.63
-317,-149,936,-3.5,-1.47,-0.49
-315,-153,940,-2.03,-1.47,-0.49
-316,-146,939,-0.21,-1.4,-0.77
-319,-135,944,1.19,-1.4,-0.98
-312,-127,945,1.89,-1.33,-0.98
-311,-119,946,2.03,-1.26,-0.84
-312,-118,950,1.61,-1.19,-0.7
-312,-119,947,1.54,-1.12,-0.7
-309,-112,948,1.75,-1.05,-0.84
-308,-107,949,1.54,-0.98,-0.77
