acc_x[g],acc_y[g],acc_z[g]
-0.318,0.038,0.996
-0.287,0.059,0.993
-0.259,0.102,0.921
-0.241,-0.005,0.976
-0.332,0.021,0.93
-0.339,0.077,0.936
-0.301,0.104,0.927
-0.21,0.012,1.039
-0.237,-0.016,1.031
-0.329,0.044,0.899
-0.361,0.134,0.861
-0.265,0.03,0.967
-0.221,-0.022,1.096
-0.277,0.043,0.979
-0.316,0.087,0.899
-0.287,0.054,0.873
-0.285,-0.004,0.959
-0.263,0.027,1.037
-0.293,0.082,0.965
-0.276,0.092,0.883
-0.272,-0.023,0.976
-0.289,0.021,0.971
-0.294,0.107,1.02
-0.277,0.062,0.919
-0.223,-0.008,1.003
-0.284,0.012,0.954
-0.324,0.082,0.93
-0.298,0.125,0.936
-0.227,-0.015,1.015
-0.246,-0.004,1.016
-0.31,0.05,0.92
-0.349,0.106,0.86
-0.283,0.051,0.926
-0.238,-0.013,1.066
-0.268,0.032,1.004
-0.326,0.103,0.892
-0.292,0.047,0.88
-0.246,-0.019,1.029
-0.291,0.057,0.988
-0.288,0.065,1.009
-0.29,0.061,0.871
-0.249,-0.003,1.025
-0.285,0.049,0.98
-0.288,0.076,0.95
-0.287,-0.026,0.985
-0.255,0.037,0.972
-0.34,0.079,0.909
-0.333,0.075,0.9
-0.227,0.012,1.006
-0.236,0,1.046
-0.311,0.046,0.919
-0.365,0.108,0.842
-0.274,0.024,0.929
-0.239,0.017,1.059
-0.251,0.051,1.044
-0.305,0.059,0.942
-0.307,0.075,0.816
-0.258,-0.014,1.003
-0.265,0.055,1.034
-0.303,0.08,0.987
-0.283,0.062,0.905
-0.221,-0.008,1.005
-0.296,0.051,0.955
-0.317,0.063,0.97
-0.295,0.053,0.904
-0.224,0.023,1.011
-0.266,0.025,0.973
-0.313,0.055,0.941
-0.338,0.106,0.901
-0.239,0.001,0.984
-0.207,0.027,1.082
-0.276,0.034,0.983
-0.344,0.085,0.882
-0.282,0.058,0.894
-0.248,0.003,1.063
-0.26,0.041,1.046
-0.301,0.057,0.954
-0.273,0.062,0.862
-0.277,0.015,0.943
-0.316,0.032,0.976
-0.304,0.034,0.995
-0.283,0.081,0.881
-0.219,0.013,1.019
-0.285,0.045,0.985
-0.334,0.036,0.953
-0.311,0.092,0.92
-0.208,0.019,1.001
-0.239,0.024,1.034
-0.319,0.045,0.926
-0.333,0.076,0.886
-0.238,0.048,0.996
-0.226,0.005,1.065
-0.278,0.029,0.971
-0.336,0.077,0.875
-0.302,0.062,0.867
-0.257,0.006,1.053
-0.267,0.023,1.037
-0.312,0.054,0.913
-0.289,0.082,0.838
-0.255,0.003,0.975
-0.319,0.038,0.984
-0.315,0.07,0.996
-0.269,0.081,0.936
-0.219,0.002,0.974
-0.295,0.017,0.968
-0.31,0.049,0.991
-0.315,0.108,0.895
-0.221,0.035,1.034
-0.246,0.001,1.004
-0.311,0.023,0.934
-0.338,0.116,0.87
-0.25,0.035,0.959
-0.237,0.004,1.066
-0.274,0.016,0.97
-0.323,0.092,0.897
-0.27,0.072,0.882
-0.279,-0.002,1.014
-0.274,0.028,1.031
-0.285,0.081,1.012
-0.278,0.082,0.855
-0.267,-0.005,0.957
-0.315,0.018,0.984
-0.303,0.064,0.993
-0.258,0.105,0.955
-0.223,0.011,0.988
-0.304,-0.009,0.93
-0.352,0.053,0.894
-0.324,0.107,0.912
-0.222,0.023,1.007
-0.241,-0.002,1.042
-0.298,0.041,0.942
-0.331,0.11,0.877
-0.259,0.061,0.95
-0.234,-0.021,1.077
-0.256,0.043,1.012
-0.327,0.106,0.911
-0.297,0.06,0.85
-0.263,-0.017,1.035
-0.298,0.035,1.001
-0.283,0.081,0.988
-0.263,0.078,0.888
-0.258,-0.02,0.969
-0.308,0.026,0.957
-0.304,0.089,0.992
-0.286,0.082,0.901
-0.228,-0.009,0.989
-0.277,0.005,0.91
-0.339,0.131,0.9
-0.334,0.002,0.986
-0.191,-0.019,1.073
-0.306,0.057,0.931
-0.332,0.114,0.902
-0.271,0.018,0.928
-0.262,-0.001,1.024
-0.252,0.037,1.017
-0.295,0.088,0.923
-0.293,0.061,0.874
-0.288,-0.022,1.001
-0.284,0.052,0.984
-0.282,0.083,1.015
-0.268,0.058,0.894
-0.232,-0.017,0.987
-0.32,0.039,0.943
-0.327,0.085,0.966
-0.295,0.103,0.951
-0.216,-0.021,1.016
-0.267,0.014,0.966
-0.334,0.073,0.899
-0.345,0.09,0.896
-0.235,0.025,0.998
-0.221,0.006,1.067
-0.274,0.03,0.972
-0.339,0.092,0.859
-0.294,0.039,0.892
-0.222,-0.009,1.082
-0.261,0.07,1.011
-0.312,0.077,0.952
-0.289,0.037,0.855
-0.26,0.002,0.99
-0.299,0.066,0.994
-0.29,0.078,0.981
-0.28,0.067,0.917
-0.241,-0.015,0.977
-0.294,0.048,0.96
-0.33,0.083,0.969
-0.299,0.06,0.92
-0.202,0.015,1.043
-0.242,0.01,1.01
-0.327,0.058,0.904
-0.357,0.098,0.883
-0.237,0.01,0.998
-0.203,0.012,1.074
-0.286,0.038,0.97
-0.346,0.064,0.869
-0.31,0.053,0.834
-0.257,0.004,1.008
-0.253,0.048,1.04
-0.296,0.063,0.978
-0.284,0.072,0.883
-0.249,0.007,1
-0.288,0.04,0.972
-0.306,0.071,0.987
-0.283,0.047,0.892
-0.222,0.021,1.011
-0.288,0.031,0.97
-0.321,0.047,0.955
-0.293,0.095,0.963
-0.198,0.004,0.998
-0.255,0.032,0.997
-0.347,0.023,0.892
-0.354,0.091,0.869
-0.257,0.074,0.958
-0.214,0.011,1.072
-0.288,0.021,0.961
-0.362,0.078,0.855
-0.294,0.071,0.878
-0.247,0.01,1.039
-0.268,0.036,1.047
-0.266,0.039,1.027
-0.265,0.075,0.887
-0.234,0.009,1.001
-0.301,0.044,0.986
-0.317,0.051,0.977
-0.28,0.091,0.919
-0.217,0.009,1.001
-0.283,0.024,0.994
-0.337,0.067,0.932
-0.314,0.074,0.895
-0.205,0.041,1.015
-0.245,-0.005,1.009
-0.328,0.041,0.915
-0.349,0.106,0.887
-0.266,0.04,0.936
-0.231,0.005,1.083
-0.246,0.004,1.038
-0.316,0.079,0.898
-0.297,0.085,0.83
-0.259,-0.003,1.033
-0.262,0.021,1.064
-0.29,0.085,0.984
-0.261,0.075,0.885
-0.265,-0.004,0.946
-0.322,0.021,0.943
-0.301,0.057,0.994
-0.294,0.098,0.898
-0.226,0.019,1.013
-0.293,0,0.961
-0.318,0.037,0.937
-0.313,0.132,0.921
-0.225,0,1.001
-0.235,-0.001,0.93
-0.303,0.029,0.894
-0.325,0.07,0.955
-0.247,-0.022,1.086
-0.279,0.028,0.986
-0.316,0.083,0.919
-0.283,0.068,0.863
-0.279,-0.003,0.964
-0.298,0.026,1.021
-0.296,0.055,0.99
-0.274,0.096,0.882
-0.25,-0.013,0.982
-0.308,0.016,0.955
-0.33,0.084,0.953
-0.277,0.086,0.963
-0.217,-0.002,1.014
-0.257,0.019,1.021
-0.304,0.067,0.951
-0.31,0.102,0.9
-0.242,0.038,1.003
-0.247,-0.02,1.03
-0.288,0.056,0.983
-0.333,0.114,0.886
-0.285,0.03,0.894
-0.241,-0.021,1.061
-0.271,0.029,1.005
-0.327,0.1,0.906
-0.3,0.074,0.849
-0.27,-0.031,1.018
-0.29,0.049,0.991
-0.278,0.097,1.03
-0.263,0.066,0.911
-0.26,-0.005,0.931
-0.314,0.02,0.945
-0.312,0.081,1.002
-0.281,0.105,0.962
-0.211,-0.005,1.022
-0.254,-0.001,0.976
-0.329,0.064,0.898
-0.335,0.096,0.89
-0.265,0.012,0.95
-0.242,0.015,1.037
-0.304,0.04,0.927
-0.327,0.106,0.898
-0.282,0.052,0.907
-0.268,-0.022,1.025
-0.255,0.064,1.028
-0.296,0.078,0.975
-0.287,0.064,0.869
-0.248,-0.012,1.009
-0.289,0.054,1.027
-0.291,0.067,0.986
-0.274,0.066,0.915
-0.232,-0.017,0.978
-0.312,0.044,0.914
-0.345,0.074,0.94
-0.31,0.059,0.937
-0.214,0.01,1.012
-0.237,0.015,1.006
-0.313,0.064,0.927
-0.368,0.097,0.858
-0.257,0.018,0.974
-0.212,0.01,1.083
-0.266,0.073,1.004
-0.327,0.079,0.924
-0.276,0.033,0.892
-0.258,0.007,1.036
-0.273,0.051,1.019
-0.299,0.074,0.947
-0.276,0.049,0.886
-0.267,-0.002,0.956
-0.298,0.047,0.98
-0.309,0.064,1.016
-0.288,0.069,0.89
-0.226,0.001,0.983
-0.282,0.028,0.97
-0.318,0.057,0.95
-0.324,0.101,0.929
-0.214,0.021,1.029
-0.229,0.015,1.034
-0.322,0.04,0.895
-0.352,0.083,0.887
-0.263,0.045,0.954
-0.234,0.026,1.073
-0.251,0.043,1.011
-0.32,0.06,0.915
-0.277,0.066,0.881
-0.249,0,0.999
-0.289,0.052,0.988
-0.318,0.058,0.974
-0.279,0.067,0.877
-0.233,0.009,1.015
-0.31,0.052,0.977
-0.315,0.056,0.976
-0.28,0.089,0.958
-0.214,0.011,0.995
-0.277,0.021,0.975
-0.35,0.052,0.914
-0.329,0.079,0.905
-0.202,0.041,1.029
-0.228,0.015,1.044
-0.307,0.012,0.932
-0.357,0.078,0.835
-0.275,0.06,0.915
-0.232,-0.001,1.005
-0.261,0.029,0.94
-0.306,0.07,0.829
-0.301,0.016,0.998
-0.301,0.033,1.001
-0.299,0.071,0.997
-0.278,0.097,0.895
-0.246,-0.003,0.981
-0.307,0.019,0.984
-0.307,0.067,0.988
-0.281,0.087,0.904
-0.209,0.03,1.022
-0.279,-0.009,0.98
-0.325,0.043,0.927
-0.335,0.122,0.91
-0.232,0.021,1.003
-0.221,-0.011,1.06
-0.289,0.029,0.959
-0.337,0.094,0.862
-0.299,0.075,0.875
-0.269,-0.001,1.04
-0.25,0.014,1.06
-0.293,0.08,0.936
-0.295,0.093,0.861
-0.279,-0.012,0.978
-0.308,0.029,0.99
-0.273,0.067,1.012
-0.268,0.092,0.915
-0.222,0.007,1.024
-0.305,-0.003,0.949
-0.319,0.073,0.942
-0.309,0.115,0.928
-0.208,-0.013,0.995
-0.257,0.016,1.04
-0.336,0.042,0.9
-0.333,0.113,0.884
-0.252,0.061,0.972
-0.237,-0.031,1.072
-0.274,0.031,0.965
-0.338,0.113,0.864
-0.286,0.053,0.894
-0.247,-0.01,1.046
-0.261,0.034,1.037
-0.281,0.063,0.976
-0.28,0.071,0.855
-0.264,-0.01,0.983
-0.285,0.032,1.006
-0.287,0.092,1.016
-0.269,0.079,0.911
-0.241,-0.024,0.985
-0.288,0.019,0.972
-0.311,0.081,0.945
-0.314,0.098,0.883
-0.245,0.015,1.017
-0.269,-0.021,1.001
-0.311,0.075,0.935
-0.337,0.121,0.881
-0.249,0.005,0.969
-0.234,0,1.068
-0.267,0.022,0.984
-0.318,0.103,0.899
-0.307,0.064,0.85
-0.264,-0.032,1.037
-0.255,0.047,1.037
-0.284,0.088,0.986
-0.283,0.051,0.873
-0.28,-0.013,0.923
-0.315,0.036,0.953
-0.284,0.077,1.021
-0.275,0.084,0.953
-0.217,-0.005,1.007
-0.295,0.022,0.937
-0.344,0.072,0.895
-0.32,0.096,0.923
-0.228,-0.012,1.01
-0.231,0.029,1.075
-0.289,0.044,0.945
-0.335,0.104,0.884
-0.279,0.033,0.942
-0.221,-0.022,1.072
-0.272,0.074,0.973
-0.338,0.071,0.899
-0.303,0.048,0.85
-0.256,0,0.97
-0.298,0.052,1.02
-0.28,0.06,0.984
-0.294,0.067,0.864
-0.249,-0.006,0.977
-0.314,0.055,0.955
-0.328,0.073,0.967
-0.296,0.053,0.943
-0.216,0.013,1.006
-0.239,0.034,1.012
-0.326,0.074,0.931
-0.353,0.087,0.884
-0.225,0.012,1.006
-0.216,0.011,1.061
-0.284,0.051,0.956
-0.336,0.085,0.882
-0.283,0.029,0.878
-0.259,0.013,1.051
-0.27,0.031,0.999
-0.324,0.077,0.906
-0.281,0.06,0.88
-0.252,-0.005,1.007
-0.287,0.049,1.029
-0.3,0.064,0.874
-0.284,0.004,0.976
-0.231,0.04,0.966
-0.299,0.055,1.005
-0.285,0.089,0.939
-0.218,0.017,1.004
-0.266,0.015,0.976
-0.34,0.033,0.903
-0.333,0.083,0.898
-0.256,0.046,0.981
-0.225,0.015,1.08
-0.298,0.028,0.922
-0.344,0.07,0.877
-0.263,0.059,0.916
-0.243,0.006,1.026
-0.281,0.044,1.007
-0.319,0.064,0.964
-0.272,0.071,0.861
-0.244,0.011,1.005
-0.291,0.042,1.036
-0.311,0.054,0.959
-0.282,0.085,0.901
-0.244,0.003,0.957
-0.308,0.014,0.939
-0.335,0.051,0.938
-0.316,0.082,0.917
-0.212,0.028,1.017
-0.259,0.01,0.979
-0.333,0.029,0.919
-0.36,0.098,0.852
-0.253,0.047,0.985
-0.213,0,1.093
-0.258,0.032,1.007
-0.325,0.092,0.89
-0.296,0.064,0.845
-0.265,-0.002,1.043
-0.287,0.016,0.992
-0.285,0.089,0.983
-0.273,0.089,0.899
-0.264,-0.013,0.969
-0.297,0.007,0.989
-0.291,0.073,1.005
-0.272,0.088,0.893
-0.226,0.013,1.003
-0.304,0,0.97
-0.319,0.051,0.936
-0.296,0.127,0.939
-0.225,0.015,0.992
-0.255,-0.006,0.994
-0.33,0.038,0.887
-0.348,0.111,0.894
-0.259,0.055,0.974
-0.229,-0.012,1.075
-0.251,0.015,1.013
-0.317,0.097,0.903
-0.292,0.075,0.854
-0.273,-0.016,1.019
-0.276,0.036,1.029
-0.282,0.065,0.966
-0.277,0.087,0.856
-0.253,-0.008,1.019
-0.312,0.015,0.959
-0.3,0.089,0.982
-0.292,0.102,0.919
-0.234,-0.021,0.981
-0.268,0.003,1.005
-0.329,0.082,0.949
-0.312,0.096,0.912
-0.22,0.022,1.012
-0.245,-0.021,1.015
-0.304,0.041,0.941
-0.335,0.109,0.868
-0.292,0.035,0.91
-0.24,-0.007,1.057
-0.26,0.033,0.997
-0.307,0.096,0.918
-0.309,0.057,0.833
-0.281,-0.018,0.993
-0.277,0.047,1.023
-0.286,0.101,1.024
-0.268,0.063,0.904
-0.246,-0.027,0.968
-0.308,0.038,0.981
-0.302,0.071,0.972
-0.288,0.104,0.902
-0.239,0.004,1.02
-0.264,-0.017,0.979
-0.302,0.075,0.939
-0.33,0.112,0.901
-0.241,-0.001,0.983
-0.224,0.004,1.055
-0.304,0.042,0.936
-0.329,0.099,0.905
-0.275,0.047,0.914
-0.249,-0.004,1.057
-0.265,0.057,1.016
-0.307,0.076,0.948
-0.289,0.051,0.852
-0.274,0,0.982
-0.286,0.053,1.014
-0.264,0.08,1.03
-0.27,0.052,0.916
-0.225,-0.001,0.985
-0.305,0.039,0.944
-0.332,0.091,0.922
-0.297,0.063,1.011
-0.197,0.04,1.019
-0.265,0.06,0.921
-0.322,0.084,0.878
-0.263,0.039,0.973
-0.233,0.003,1.053
-0.284,0.054,0.974
-0.354,0.089,0.873
-0.297,0.036,0.898
-0.233,0.004,1.04
-0.262,0.05,1.014
-0.305,0.062,0.967
-0.289,0.046,0.859
-0.252,0.001,0.971
-0.295,0.059,1.003
-0.285,0.061,1.021
-0.26,0.051,0.923
-0.236,-0.002,0.962
-0.302,0.044,0.952
-0.33,0.076,0.936
-0.314,0.082,0.929
-0.212,0.022,1.027
-0.234,0,1.017
-0.325,0.065,0.912
-0.336,0.084,0.907
-0.238,0.018,0.951
-0.235,0.025,1.048
-0.289,0.017,0.964
-0.333,0.074,0.91
-0.274,0.066,0.891
-0.249,0.005,1.055
-0.262,0.033,1.01
-0.299,0.057,0.961
-0.291,0.065,0.861
-0.249,0.022,0.979
-0.292,0.045,0.986
-0.298,0.05,1.027
-0.272,0.072,0.921
-0.214,0.022,0.99
-0.313,0.026,0.923
-0.357,0.052,0.922
-0.3,0.092,0.951
-0.205,0.025,1.028
-0.224,0.021,1.073
-0.321,0.027,0.915
-0.341,0.092,0.872
-0.263,0.059,0.967
-0.225,-0.017,1.065
-0.283,0.049,0.995
-0.337,0.074,0.901
-0.266,0.063,0.889
-0.247,0.019,1.006
-0.291,0.02,1.024
-0.302,0.063,0.969
-0.27,0.087,0.876
-0.261,0.006,0.986
-0.288,0.011,0.988
-0.293,0.076,1.008
-0.283,0.071,0.921
-0.214,0.022,1.005
-0.276,0.006,0.965
-0.324,0.054,0.952
-0.319,0.118,0.908
-0.21,0.021,1.013
-0.248,-0.007,1.015
-0.316,0.035,0.924
-0.328,0.107,0.885
-0.278,0.059,0.905
-0.248,0,1.076
-0.278,0.004,0.993
-0.298,0.101,0.934
-0.275,0.086,0.89
-0.25,-0.025,1.019
-0.284,0.022,0.995
-0.309,0.07,0.98
-0.283,0.088,0.875
-0.243,0.004,0.982
-0.314,0.011,0.967
-0.305,0.063,0.982
-0.272,0.109,0.94
-0.221,0.006,1.006
-0.272,0.004,0.981
-0.328,0.051,0.913
-0.327,0.11,0.907
-0.254,0.038,0.978
-0.231,-0.017,1.071
-0.308,0.029,0.924
-0.345,0.121,0.866
-0.267,0.053,0.927
-0.249,-0.019,1.057
-0.264,0.052,1.034
-0.281,0.077,0.968
-0.286,0.086,0.856
-0.256,-0.021,1.028
-0.276,0.015,1.015
-0.29,0.101,0.96
-0.308,0.085,0.878
-0.264,-0.016,0.953
-0.287,0.012,0.985
-0.32,0.079,0.974
-0.289,0.083,0.917
-0.216,0.006,0.996
-0.269,-0.011,0.988
-0.303,0.071,0.926
-0.321,0.121,0.998
-0.246,0.003,1.064
-0.235,0.038,0.999
-0.321,0.107,0.888
-0.314,0.056,0.87
-0.261,-0.021,1.065
-0.254,0.042,1.033
-0.278,0.093,0.975
-0.278,0.059,0.868
-0.276,-0.03,0.935
-0.333,0.041,0.949
-0.303,0.073,0.983
-0.284,0.081,0.878
-0.221,-0.012,1.039
-0.29,0.016,0.971
-0.313,0.084,0.958
-0.312,0.101,0.931
-0.235,0.002,0.989
-0.227,0.015,1.048
-0.308,0.054,0.937
-0.333,0.102,0.897
-0.259,0.031,0.961
-0.234,-0.002,1.058
-0.279,0.052,0.965
-0.328,0.073,0.894
-0.286,0.036,0.879
-0.272,-0.001,1.013
-0.272,0.057,1.036
-0.288,0.066,0.957
-0.289,0.044,0.861
-0.256,0,0.998
-0.301,0.051,0.966
-0.323,0.092,0.976
-0.306,0.063,0.913
-0.214,-0.02,0.994
-0.264,0.038,1.009
-0.324,0.079,0.955
-0.321,0.073,0.893
-0.227,0.023,1.007
-0.245,0.006,1.003
-0.301,0.042,0.945
-0.344,0.082,0.865
-0.277,0.038,0.935
-0.224,0.011,1.072
-0.252,0.035,1
-0.326,0.082,0.93
-0.292,0.032,0.837
-0.268,0.018,0.99
-0.292,0.054,1
-0.289,0.064,1.013
-0.284,0.059,0.876
-0.269,0.002,0.952
-0.313,0.062,0.988
-0.306,0.057,0.997
-0.271,0.085,0.955
-0.208,0.02,1.019
-0.273,0.006,0.955
-0.334,0.05,0.922
-0.339,0.093,0.904
-0.216,0.011,0.992
-0.224,0.03,1.048
-0.311,0.027,0.938
-0.338,0.08,0.891
-0.269,0.068,0.917
-0.247,0.009,1.053
-0.264,0.031,1.012
-0.306,0.056,0.92
-0.294,0.077,0.858
-0.265,0.018,0.994
-0.29,0.036,1.007
-0.297,0.053,0.99
-0.276,0.067,0.891
-0.223,0.003,0.991
-0.313,0.037,0.951
-0.337,0.064,0.957
-0.278,0.069,0.942
-0.201,0.008,1.007
-0.259,0.029,1
-0.338,0.031,0.895
-0.35,0.101,0.851
-0.268,0.046,0.961
-0.227,-0.013,1.058
-0.284,0.032,0.984
-0.328,0.099,0.897
-0.269,0.056,0.899
-0.244,0.016,1.023
-0.296,0.005,0.997
-0.314,0.064,0.936
-0.273,0.083,0.87
-0.271,0.006,0.977
-0.297,0.022,0.998
-0.289,0.06,1.014
-0.272,0.079,0.885
-0.252,0.01,0.962
-0.313,0.007,0.944
-0.319,0.056,0.953
-0.315,0.12,0.915
-0.22,0.016,1.03
-0.259,-0.022,0.998
-0.329,0.058,0.904
-0.329,0.108,0.907
-0.234,0.051,0.977
-0.236,-0.003,1.082
-0.278,-0.001,0.976
-0.316,0.101,0.877
-0.275,0.081,1.061
-0.24,0.002,1.011
-0.264,0.085,0.957
-0.249,0.081,0.881
-0.253,0.003,0.995
-0.301,0.019,0.996
-0.29,0.075,0.987
-0.268,0.09,0.919
-0.233,-0.005,0.988
-0.305,0.015,0.962
-0.334,0.067,0.938
-0.296,0.09,0.935
-0.227,0.028,1.035
-0.23,-0.01,1.042
-0.311,0.049,0.915
-0.366,0.119,0.847
-0.264,0.034,0.965
-0.207,-0.028,1.104
-0.26,0.056,1.002
-0.309,0.09,0.91
-0.297,0.062,0.833
-0.281,-0.017,1.001
-0.283,0.019,1.002
-0.281,0.094,0.99
-0.284,0.092,0.878
-0.268,-0.025,0.971
-0.289,0.025,0.976
-0.315,0.09,0.982
-0.291,0.075,0.911
-0.227,0.007,1.017
-0.264,0,0.98
-0.321,0.081,0.946
-0.323,0.11,0.908
-0.228,-0.006,1.008
-0.251,0.003,1.019
-0.29,0.037,0.94
-0.331,0.116,0.876
-0.313,0.044,0.885
-0.256,-0.015,1.057
-0.249,0.029,1.025
-0.305,0.109,0.924
-0.281,0.057,0.896
-0.252,-0.024,0.995
-0.3,0.053,1
-0.284,0.075,1.005
-0.278,0.08,0.89
-0.221,-0.001,1.02
-0.296,0.029,0.977
-0.298,0.074,0.973
-0.308,0.093,0.907
-0.243,-0.009,0.98
-0.254,0.024,1.014
-0.321,0.066,0.894
-0.338,0.087,0.899
-0.26,0.019,0.977
-0.224,-0.005,1.057
-0.311,0.06,0.923
-0.35,0.081,0.862
-0.276,0.023,0.919
-0.256,0.015,1.031
-0.258,0.061,1.041
-0.286,0.063,0.962
-0.294,0.049,0.844
-0.25,0,1.006
-0.278,0.056,1.029
-0.292,0.094,1.005
-0.291,0.065,0.918
-0.217,-0.024,0.991
-0.279,0.039,0.987
-0.319,0.068,0.959
-0.313,0.069,0.889
-0.214,0.012,1.009
-0.266,0.009,0.974
-0.301,0.049,0.965
-0.337,0.083,0.878
-0.26,0.026,0.94
-0.231,0.028,1.062
-0.264,0.034,0.979
-0.337,0.083,0.911
-0.296,0.061,0.863
-0.234,-0.002,1.08
-0.272,0.044,0.998
-0.302,0.058,0.963
-0.273,0.054,0.869
-0.274,0.005,0.945
-0.323,0.054,0.97
-0.292,0.054,1.007
-0.258,0.068,0.929
-0.21,0.017,1.003
-0.302,0.02,0.953
-0.345,0.055,0.926
-0.328,0.09,0.916
-0.22,0.019,0.997
-0.231,0.036,1.055
-0.324,0.035,0.926
-0.351,0.083,0.883
-0.26,0.05,0.946
-0.243,0.007,1.051
-0.277,0.033,0.986
-0.317,0.05,0.896
-0.302,0.074,0.854
-0.26,0.015,1.023
-0.279,0.039,1.025
-0.306,0.04,0.962
-0.284,0.069,1.015
-0.247,0.007,0.948
-0.31,0.073,0.968
-0.331,0.068,0.929
-0.215,0.003,0.995
-0.271,0.029,1.008
-0.329,0.047,0.954
-0.315,0.107,0.89
-0.228,0.038,1.01
-0.231,-0.009,1.043
-0.285,0.028,0.98
-0.332,0.103,0.894
-0.265,0.057,0.921
-0.243,0.015,1.058
-0.276,-0.009,0.996
-0.307,0.099,0.948
-0.269,0.075,0.885
-0.265,0.002,1.01
-0.299,0.038,0.985
-0.288,0.064,1.011
-0.274,0.079,0.883
-0.261,0.006,0.967
-0.319,0.024,0.97
-0.298,0.055,0.981
-0.281,0.108,0.939
-0.213,0.008,1.009
-0.277,-0.017,0.955
-0.337,0.055,0.898
-0.323,0.11,0.916
-0.229,0.039,0.997
-0.221,-0.009,1.087
-0.312,0.023,0.931
-0.327,0.105,0.881
-0.271,0.066,0.915
-0.257,-0.022,1.043
-0.264,0.037,1.016
-0.325,0.081,0.906
-0.29,0.086,0.855
-0.269,-0.009,1.002
-0.287,0.02,1.011
-0.288,0.089,0.978
-0.277,0.074,0.914
-0.247,-0.009,0.964
-0.31,0.024,0.955
-0.318,0.077,0.979
-0.279,0.082,0.925
-0.215,-0.005,1.005
-0.261,0.002,1.01
-0.329,0.058,0.908
-0.345,0.126,0.88
-0.253,0.018,0.981
-0.216,-0.025,1.065
-0.289,0.055,0.961
-0.339,0.115,0.877
-0.294,0.049,0.873
-0.261,-0.019,1.042
-0.282,0.032,0.992
-0.293,0.092,0.974
-0.281,0.068,0.888
-0.269,-0.014,0.988
-0.286,0.037,0.975
-0.296,0.076,0.996
-0.285,0.085,0.893
-0.24,-0.016,1.025
-0.303,0.033,0.944
-0.334,0.087,0.939
-0.311,0.1,0.928
-0.217,-0.015,1.013
-0.266,0.004,0.986
-0.323,0.08,0.917
-0.319,0.098,0.904
-0.256,0.021,0.977
-0.24,0.002,1.056
-0.257,0.028,0.981
-0.317,0.087,0.9
-0.286,0.05,0.898
-0.253,-0.014,1.028
-0.265,0.058,1.027
-0.3,0.077,0.972
-0.289,0.056,0.866
-0.246,0.001,0.993
-0.309,0.051,0.974
-0.3,0.071,0.985
-0.285,0.074,0.905
-0.233,-0.007,0.974
-0.284,0.034,0.965
-0.33,0.083,0.931
-0.324,0.075,0.922
-0.233,0.011,1.013
-0.228,0.02,1.039
-0.3,0.055,0.926
-0.352,0.094,0.863
-0.262,0.013,0.956
-0.218,0.009,1.069
-0.264,0.063,1.004
-0.325,0.069,0.888
-0.297,0.05,0.833
-0.264,0.019,1.009
-0.269,0.038,1.037
-0.28,0.07,1.014
-0.289,0.079,0.865
-0.25,-0.009,0.96
-0.285,0.039,0.978
-0.318,0.065,0.98
-0.301,0.07,1.01
-0.224,0.025,0.978
-0.268,0.051,0.934
-0.32,0.082,0.903
-0.206,0.018,0.997
-0.256,0.042,1.031
-0.315,0.026,0.918
-0.344,0.077,0.89
-0.281,0.058,0.908
-0.237,0.004,1.072
-0.27,0.021,0.985
-0.328,0.078,0.888
-0.286,0.069,0.889
-0.247,0.008,1.006
-0.289,0.055,1.032
-0.284,0.033,1.002
-0.262,0.084,0.899
-0.227,0.025,0.994
-0.302,0.02,0.955
-0.318,0.056,0.967
-0.31,0.088,0.889
-0.216,0.015,1.006
-0.253,0.029,1.016
-0.338,0.037,0.894
-0.34,0.09,0.874
-0.241,0.038,0.969
-0.242,-0.007,1.023
-0.326,0.042,0.908
-0.349,0.082,0.861
-0.269,0.055,0.923
-0.254,0.011,1.04
-0.275,0.03,1.015
-0.299,0.069,0.954
-0.286,0.094,0.849
-0.255,-0.01,1.018
-0.285,0.027,1.016
-0.284,0.081,1.013
-0.268,0.078,0.894
-0.247,0,0.963
-0.314,0.013,0.976
-0.314,0.048,0.989
-0.275,0.109,0.93
-0.228,0.026,1
-0.292,-0.019,0.954
-0.312,0.038,0.94
-0.32,0.109,0.904
-0.244,0.039,0.972
-0.24,0.007,1.056
-0.278,0.01,0.963
-0.325,0.112,0.891
-0.288,0.065,0.882
-0.257,-0.016,1.07
-0.289,0.042,0.965
-0.305,0.072,0.956
-0.268,0.069,0.861
-0.282,-0.009,0.953
-0.325,0.026,0.984
-0.291,0.068,1.001
-0.267,0.101,0.901
-0.228,-0.012,0.983
-0.303,0.004,0.949
-0.339,0.076,0.945
-0.298,0.112,0.926
-0.2,0.01,1.029
-0.23,-0.001,1.057
-0.321,0.049,0.913
-0.337,0.118,0.886
-0.256,0.03,0.972
-0.249,-0.011,1.04
-0.272,0.053,0.989
-0.325,0.086,0.883
-0.304,0.061,0.874
-0.283,-0.024,1.008
-0.267,0.031,1.032
-0.304,0.096,0.947
-0.291,0.064,0.852
-0.26,-0.022,1.003
-0.312,0.045,0.961
-0.3,0.096,1.013
-0.274,0.08,0.907
-0.237,-0.03,0.99
-0.288,0.025,0.972
-0.314,0.078,0.961
-0.312,0.118,0.915
-0.228,0,1.023
-0.246,-0.005,1.02
-0.291,0.054,0.947
-0.341,0.108,0.877
-0.275,0.035,0.935
-0.235,-0.002,1.063
-0.289,0.04,0.944
-0.319,0.095,0.916
-0.271,0.034,0.892
-0.27,0,1.002
-0.275,0.057,1.007
-0.286,0.079,1.003
-0.291,0.055,0.895
-0.249,-0.019,0.991
-0.3,0.066,1.007
-0.308,0.065,0.951
-0.29,0.08,0.94
-0.208,-0.013,1.017
-0.271,0.022,0.971
-0.328,0.086,0.94
-0.326,0.077,1.006
-0.207,0.012,1.049
-0.22,0.047,0.936
-0.297,0.089,0.857
-0.296,0.044,0.93
-0.225,0.002,1.075
-0.236,0.071,1.052
-0.329,0.065,0.917
-0.307,0.048,0.854
-0.254,-0.002,1.021
-0.294,0.047,0.994
-0.302,0.078,0.984
-0.272,0.051,0.898
-0.24,0.003,0.988
-0.295,0.045,0.969
-0.311,0.078,0.988
-0.289,0.055,0.904
-0.217,-0.001,1.017
-0.266,0.034,1.002
-0.322,0.05,0.942
-0.332,0.113,0.92
-0.233,0.022,0.998
-0.219,0.009,1.053
-0.297,0.049,0.952
-0.352,0.077,0.886
-0.268,0.064,0.924
-0.235,0.019,1.075
-0.258,0.026,1.017
-0.296,0.062,0.972
-0.281,0.068,0.855
-0.261,0.005,0.975
-0.299,0.058,0.986
-0.315,0.026,0.985
-0.282,0.083,0.883
-0.219,0.014,1.029
-0.302,0.032,0.948
-0.332,0.064,0.944
-0.301,0.082,0.937
-0.2,0.014,1.018
-0.266,0.019,1.015
-0.334,0.058,0.907
-0.334,0.067,0.891
-0.226,0.053,0.995
-0.223,0.009,1.077
-0.287,0.009,0.951
-0.348,0.088,0.856
-0.274,0.063,0.897
-0.228,0.012,1.064
-0.274,0.042,1.044
-0.312,0.05,0.938
-0.283,0.083,0.854
-0.252,0.01,0.989
-0.308,0.038,0.981
-0.305,0.071,0.991
-0.297,0.091,0.889
-0.23,0.001,0.994
-0.296,0.031,0.976
-0.312,0.042,0.963
-0.294,0.107,0.905
-0.221,0.018,1.026
-0.254,-0.006,0.997
-0.328,0.041,0.917
-0.336,0.106,0.896
-0.231,0.03,0.987
-0.238,-0.005,1.055
-0.291,0.024,0.961
-0.331,0.096,0.893
-0.287,0.083,0.843
-0.265,-0.01,1.034
-0.264,0.02,1.021
-0.289,0.085,0.988
-0.271,0.09,0.87
-0.275,0.002,0.946
-0.316,0.014,0.978
-0.287,0.055,1.013
-0.248,0.105,0.967
-0.218,0.012,1.016
-0.31,0.003,0.932
-0.334,0.056,0.929
-0.315,0.095,0.916
-0.207,0.024,1.022
-0.252,0.014,1.047
-0.31,0.019,0.899
-0.336,0.119,0.869
-0.282,0.038,0.919
-0.249,-0.022,1.057
-0.286,0.036,0.969
-0.332,0.1,0.879
-0.292,0.068,0.875
-0.275,-0.022,1.019
-0.284,0.036,1.034
-0.27,0.07,1.008
-0.271,0.086,0.872
-0.246,-0.01,0.984
-0.304,0.025,0.963
-0.31,0.093,1.011
-0.28,0.087,0.93
-0.206,-0.009,1.007
-0.269,0.007,0.98
-0.337,0.06,0.895
-0.337,0.113,0.893
-0.255,0.011,1.002
-0.238,-0.014,1.042
-0.291,0.057,0.952
-0.328,0.1,0.915
-0.269,0.04,1.025
-0.269,0.02,1.023
-0.26,0.098,0.925
-0.306,0.063,0.833
-0.268,-0.025,1.02
-0.302,0.041,0.981
-0.282,0.097,1.012
-0.27,0.07,0.891
-0.255,-0.033,0.974
-0.306,0.036,0.935
-0.304,0.07,0.989
-0.296,0.107,0.946
-0.224,0.007,1.017
-0.285,-0.007,0.937
-0.324,0.067,0.929
-0.347,0.1,0.881
-0.245,0.024,0.988
-0.226,0.021,1.08
-0.286,0.047,0.961
-0.316,0.086,0.914
-0.267,0.037,0.921
-0.239,-0.007,1.058
-0.275,0.075,0.984
-0.3,0.068,0.958
-0.292,0.047,0.879
-0.272,-0.012,0.958
-0.293,0.057,1
-0.297,0.072,0.986
-0.277,0.069,0.898
-0.225,-0.013,0.986
-0.303,0.031,0.953
-0.333,0.091,0.966
-0.307,0.08,0.932
-0.204,0.008,1.054
-0.221,0.025,1.034
-0.318,0.045,0.905
-0.365,0.099,0.875
-0.249,0.023,0.982
-0.218,0.005,1.068
-0.248,0.06,0.998
-0.338,0.056,0.892
-0.301,0.04,0.846
-0.258,0.008,1.022
-0.275,0.045,1.01
-0.309,0.069,0.955
-0.282,0.062,0.863
-0.262,-0.005,1.002
-0.303,0.051,0.95
-0.298,0.079,1.021
-0.271,0.057,0.923
-0.221,0,1.003
-0.288,0.031,0.953
-0.332,0.054,0.943
-0.326,0.104,0.911
-0.208,0.012,1.016
-0.226,0.01,1.036
-0.312,0.041,0.942
-0.349,0.079,0.885
-0.256,0.07,0.94
-0.236,0.017,1.082
-0.279,0.009,0.949
-0.321,0.067,0.9
-0.294,0.067,0.873
-0.26,0.019,1.007
-0.297,0.063,0.998
-0.299,0.029,0.997
-0.277,0.076,0.873
-0.23,0.004,1.008
-0.304,0.048,0.978
-0.327,0.054,0.937
-0.304,0.077,0.905
-0.22,0.008,0.985
-0.289,0.021,0.963
-0.331,0.055,0.931
-0.317,0.077,0.901
-0.215,0.037,1.012
-0.237,0.007,1.032
-0.313,0.024,0.923
-0.352,0.096,0.868
-0.247,0.056,0.954
-0.231,0.021,1.086
-0.261,0.025,1.036
-0.326,0.06,0.902
-0.292,0.081,0.829
-0.27,0,1.018
-0.288,0.02,1.001
-0.268,0.081,1.037
-0.278,0.073,0.89
-0.247,0.001,0.967
-0.309,0.025,0.941
-0.307,0.048,0.988
-0.294,0.101,0.883
-0.209,0.01,1.016
-0.291,0.003,0.967
-0.332,0.042,0.91
-0.337,0.119,0.892
-0.235,0.025,0.997
-0.243,-0.002,1.045
-0.32,0.024,0.924
-0.335,0.11,0.889
-0.269,0.081,0.918
-0.241,-0.021,1.057
-0.268,0.02,1.011
-0.308,0.082,0.867
-0.269,0.082,0.972
-0.271,0,1.019
-0.295,0.044,0.995
-0.258,0.099,0.894
-0.242,0,1.002
-0.32,0.011,0.921
-0.33,0.063,0.94
-0.308,0.101,0.901
-0.22,0.007,1.015
-0.266,0.005,1.008
-0.317,0.065,0.939
-0.333,0.103,0.891
-0.251,0.034,0.968
-0.236,-0.022,1.057
-0.283,0.046,0.977
-0.32,0.106,0.899
-0.284,0.067,0.884
-0.264,-0.023,1.042
-0.264,0.031,1.027
-0.29,0.094,0.958
-0.283,0.067,0.857
-0.264,-0.006,0.977
-0.308,0.035,0.963
-0.289,0.101,1.026
-0.274,0.078,0.916
-0.232,-0.026,0.956
-0.298,0.024,0.961
-0.328,0.064,0.94
-0.296,0.116,0.944
-0.228,-0.001,1.025
-0.238,-0.003,1.033
-0.284,0.053,0.958
-0.328,0.11,0.879
-0.256,0.017,0.969
-0.245,-0.006,1.051
-0.281,0.045,0.971
-0.326,0.102,0.901
-0.284,0.051,0.86
-0.256,-0.016,1.043
-0.287,0.048,1.006
-0.287,0.089,0.989
-0.28,0.073,0.85
-0.269,-0.027,0.968
-0.305,0.049,0.988
-0.284,0.073,1.006
-0.276,0.087,0.962
-0.224,-0.001,1.016
-0.291,0.009,0.921
-0.337,0.08,0.916
-0.324,0.084,0.919
-0.213,0.008,1.026
-0.223,0.019,1.05
-0.308,0.036,0.908
-0.344,0.077,0.863
-0.274,0.033,0.899
-0.254,-0.005,1.048
-0.271,0.068,1.008
-0.313,0.088,0.913
-0.292,0.034,0.891
-0.256,-0.019,0.975
-0.281,0.058,1.027
-0.287,0.067,0.99
-0.284,0.062,0.885
-0.23,-0.008,0.997
-0.301,0.048,0.958
-0.303,0.094,1.007
-0.296,0.069,0.902
-0.213,-0.003,1.013
-0.271,0.035,0.991
-0.332,0.05,0.893
-0.356,0.085,0.868
-0.254,0.022,0.975
-0.211,-0.013,1.047
-0.295,0.072,0.943
-0.358,0.073,0.894
-0.279,0.044,0.902
-0.265,0.018,1.035
-0.272,0.042,1.016
-0.291,0.073,0.969
-0.264,0.062,0.885
-0.255,0,1.015
-0.287,0.069,0.996
-0.298,0.063,0.988
-0.273,0.061,0.913
-0.242,-0.004,0.98
-0.316,0.047,0.946
-0.339,0.046,0.956
-0.304,0.101,0.947
-0.193,0.012,1.033
-0.26,0.015,0.975
-0.327,0.056,0.921
-0.339,0.076,0.887
-0.235,0.049,0.987
-0.22,0.036,1.089
-0.275,0.013,0.964
-0.338,0.073,0.888
-0.29,0.063,0.876
-0.234,0.014,1.067
-0.277,0.062,1.011
-0.315,0.039,0.98
-0.273,0.064,0.871
-0.236,0.007,0.996
-0.298,0.048,1
-0.307,0.066,0.89
-0.286,0.074,0.985
-0.236,0,0.977
-0.287,0.066,0.947
-0.303,0.081,0.933
-0.222,0.034,1.031
-0.224,0.001,1.027
-0.323,0.025,0.904
-0.356,0.108,0.874
-0.247,0.042,0.97
-0.228,0.013,1.061
-0.265,0.03,1.016
-0.334,0.052,0.876
-0.286,0.078,0.835
-0.271,0.002,1.009
-0.275,0.017,1.025
-0.273,0.064,1.002
-0.275,0.086,0.873
-0.256,-0.002,0.984
-0.312,0.033,0.954
-0.305,0.056,1.002
-0.276,0.099,0.921
-0.213,0.011,1.022
-0.301,0.004,0.961
-0.333,0.06,0.935
-0.313,0.117,0.922
-0.205,0.019,1.02
-0.257,0.008,1.02
-0.31,0.018,0.931
-0.332,0.1,0.876
-0.273,0.079,0.919
-0.23,-0.023,1.076
-0.264,0.011,0.974
-0.322,0.096,0.913
-0.286,0.07,0.875
-0.278,0.007,0.983
-0.295,0.034,1.026
-0.281,0.045,0.993
-0.26,0.088,0.884
-0.25,-0.005,0.991
-0.32,0.034,0.952
-0.317,0.074,0.971
-0.278,0.094,0.943
-0.198,0.009,1.037
-0.277,0.001,0.991
-0.332,0.058,0.912
-0.338,0.113,0.881
-0.239,0.023,0.993
-0.228,-0.03,1.048
-0.302,0.058,0.955
-0.339,0.118,0.866
-0.269,0.058,0.929
-0.26,-0.013,1.057
-0.254,0.038,1.054
-0.297,0.081,0.921
-0.297,0.086,0.832
-0.278,-0.013,1.01
-0.283,0.023,0.989
-0.272,0.092,1.032
-0.275,0.07,0.905
-0.246,-0.024,0.961
-0.294,0.019,0.962
-0.321,0.078,0.969
-0.297,0.107,0.948
-0.218,-0.006,1.026
-0.269,0.008,0.996
-0.298,0.057,0.943
-0.327,0.116,0.876
-0.267,0.013,0.955
-0.24,-0.001,1.059
-0.279,0.047,0.97
-0.34,0.108,0.883
-0.287,0.043,0.883
-0.247,-0.021,1.049
-0.281,0.048,0.987
-0.292,0.082,0.969
-0.279,0.06,0.855
-0.267,-0.019,0.97
-0.291,0.05,1.022
-0.279,0.055,1.015
-0.271,0.084,0.919
-0.238,-0.004,0.991
-0.321,0.018,0.894
-0.33,0.088,0.946
-0.31,0.08,0.94
-0.203,-0.001,1.035
-0.244,0.024,1.028
-0.327,0.073,0.89
-0.351,0.083,0.866
-0.259,0.017,0.966
-0.248,0.01,1.04
-0.26,0.066,1.024
-0.31,0.083,0.917
-0.288,0.047,0.893
-0.253,-0.02,1.028
-0.266,0.051,1.028
-0.301,0.088,0.967
-0.285,0.057,0.872
-0.247,-0.008,0.996
-0.309,0.05,0.943
-0.297,0.086,1.022
-0.291,0.054,0.899
-0.22,-0.01,0.983
-0.289,0.042,0.976
-0.326,0.041,0.945
-0.313,0.104,1.04
-0.228,-0.014,1.038
-0.208,0.061,0.949
-0.352,0.083,0.876
-0.258,0.032,0.955
-0.217,0.014,1.071
-0.28,0.048,0.958
-0.327,0.075,0.921
-0.266,0.042,0.875
-0.265,0.008,1.004
-0.301,0.063,0.986
-0.3,0.051,0.987
-0.276,0.067,0.873
-0.252,-0.003,0.979
-0.311,0.053,0.976
-0.318,0.046,0.96
-0.287,0.086,0.947
-0.194,0.006,1.027
-0.273,0.029,0.937
-0.348,0.061,0.93
-0.321,0.067,0.917
-0.182,0.033,1.06
-0.221,0.038,1.057
-0.304,0,0.907
-0.356,0.081,0.837
-0.293,0.058,0.888
-0.24,0.015,1.07
-0.256,0.05,1.028
-0.334,0.053,0.901
-0.291,0.063,0.854
-0.242,-0.001,1.028
-0.292,0.048,0.995
-0.303,0.069,0.992
-0.272,0.071,0.92
-0.223,0.007,0.988
-0.301,0.032,0.951
-0.319,0.068,1.007
-0.285,0.085,0.896
-0.229,0.022,0.997
-0.269,0.002,0.974
-0.336,0.026,0.899
-0.349,0.111,0.886
-0.249,0.035,0.977
-0.218,0,1.065
-0.295,0.031,0.978
-0.339,0.073,0.876
-0.281,0.088,0.883
-0.261,0.009,1.04
-0.262,0.025,1.039
-0.269,0.065,0.992
-0.281,0.091,0.858
-0.26,-0.001,0.991
-0.304,0.038,0.992
-0.293,0.054,0.994
-0.267,0.098,0.907
-0.222,-0.005,1.01
-0.313,0.008,0.938
-0.358,0.055,0.894
-0.309,0.106,0.924
-0.199,0.015,1.028
-0.261,0.001,1.01
-0.341,0.038,0.905
-0.331,0.091,0.878
-0.249,0.072,0.99
-0.218,-0.005,1.096
-0.256,0.007,0.987
-0.338,0.1,0.894
-0.292,0.075,0.874
-0.247,0,1.057
-0.267,0.03,1.039
-0.281,0.052,0.975
-0.274,0.081,0.867
-0.268,-0.001,0.972
-0.317,0.037,0.969
-0.29,0.076,0.998
-0.283,0.089,0.895
-0.224,0,1.015
-0.281,0.005,0.986
-0.316,0.071,0.952
-0.314,0.113,0.887
-0.249,0.019,1.014
-0.232,-0.028,1.033
-0.304,0.05,0.939
-0.343,0.133,0.891
-0.249,0.036,0.951
-0.253,-0.019,1.045
-0.256,0.025,1.016
-0.307,0.08,0.911
-0.309,0.082,0.827
-0.286,-0.012,1.013
-0.265,0.02,1.022
-0.274,0.093,1.019
-0.273,0.08,0.879
-0.254,-0.022,0.973
-0.306,0.029,0.964
-0.313,0.08,0.976
-0.282,0.103,0.943
-0.217,-0.013,1.04
-0.29,0.014,0.942
-0.33,0.071,0.913
-0.318,0.108,0.887
-0.239,0.012,1.004
-0.252,0.002,1.057
-0.272,0.032,0.874
-0.32,0.108,0.902
-0.278,-0.044,1.086
-0.225,0.053,0.992
-0.304,0.099,0.935
-0.287,0.059,0.859
-0.277,-0.012,0.977
-0.305,0.06,1
-0.273,0.061,1.015
-0.274,0.079,0.903
-0.236,-0.01,0.992
-0.31,0.038,0.929
-0.311,0.082,0.976
-0.305,0.085,0.94
-0.212,-0.003,1.026
-0.239,0.024,1.025
-0.316,0.055,0.917
-0.346,0.095,0.859
-0.257,0.004,0.959
-0.233,-0.007,1.049
-0.28,0.072,0.993
-0.32,0.088,0.887
-0.289,0.036,0.888
-0.278,-0.007,1
-0.261,0.056,1.055
-0.284,0.07,0.983
-0.288,0.072,0.844
-0.254,-0.012,0.994
-0.295,0.043,0.986
-0.273,0.091,1.046
-0.269,0.06,0.925
-0.209,-0.021,0.993
-0.285,0.042,0.955
-0.327,0.056,0.946
-0.308,0.092,0.943
-0.211,0.014,1.03
-0.241,0.014,1.011
-0.303,0.062,0.926
-0.355,0.079,0.877
-0.274,0.04,0.95
-0.226,0.019,1.083
-0.269,0.034,0.982
-0.333,0.087,0.878
-0.294,0.04,0.868
-0.26,0,1.029
-0.292,0.073,0.994
-0.293,0.048,1
-0.251,0.048,0.913
-0.249,0,0.976
-0.298,0.061,1.004
-0.314,0.06,0.976
-0.287,0.074,0.925
-0.209,0.008,1.006
-0.286,0.028,0.925
-0.35,0.076,0.925
-0.339,0.069,0.907
-0.197,0.027,1.035
-0.223,0.03,1.051
-0.33,0.034,0.877
-0.37,0.085,0.841
-0.264,0.039,0.949
-0.224,0.021,1.093
-0.237,0.057,1.033
-0.323,0.043,0.919
-0.298,0.062,0.817
-0.266,-0.002,1.002
-0.274,0.036,1.027
-0.306,0.084,0.975
-0.276,0.055,0.889
-0.247,0.003,0.982
-0.311,0.045,0.945
-0.318,0.063,1.001
-0.277,0.074,0.935
-0.22,0.015,1.006
-0.303,0.024,0.938
-0.342,0.021,0.91
-0.323,0.126,0.919
-0.215,0.025,1.03
-0.212,0.018,1.059
-0.285,0.035,0.974
-0.349,0.077,0.87
-0.266,0.083,0.937
-0.232,0.018,1.08
-0.253,0.019,1.02
-0.298,0.06,0.942
-0.298,0.076,0.848
-0.289,0.012,0.952
-0.321,0.047,0.981
-0.292,0.028,1.009
-0.275,0.1,0.885
-0.23,-0.002,1.013
-0.318,0.021,0.952
-0.344,0.067,0.935
-0.289,0.1,0.937
-0.191,0.013,1.037
-0.266,0.011,1.007
-0.359,0.06,0.903
-0.331,0.098,0.901
-0.216,0.049,1.046
-0.209,-0.002,1.072
-0.282,0.006,0.944
-0.364,0.104,0.839
-0.295,0.074,0.881
-0.248,0.004,1.059
-0.259,0.023,0.932
-0.313,0.061,0.814
-0.303,-0.009,1
-0.274,0.039,0.98
-0.254,0.084,1.05
-0.263,0.091,0.928
-0.223,-0.007,0.995
-0.304,0.013,0.957
-0.318,0.071,0.974
-0.3,0.111,0.885
-0.238,0.005,1.009
-0.251,-0.026,1
-0.322,0.049,0.917
-0.341,0.135,0.877
-0.25,0.034,0.973
-0.252,-0.026,1.048
-0.29,0.025,0.955
-0.329,0.1,0.878
-0.277,0.073,0.898
-0.27,-0.005,1.037
-0.256,0.026,1.037
-0.275,0.088,0.996
-0.275,0.087,0.859
-0.282,-0.01,0.961
-0.308,0.042,1
-0.293,0.066,0.997
-0.256,0.083,0.922
-0.233,-0.016,1.006
-0.306,0.01,0.916
-0.34,0.08,0.903
-0.319,0.096,0.906
-0.225,-0.002,1.016
-0.257,0,1.023
-0.307,0.056,0.924
-0.343,0.104,0.863
-0.269,0.034,0.962
-0.216,-0.01,1.091
-0.269,0.053,1.003
-0.325,0.115,0.904
-0.285,0.047,0.877
-0.261,-0.012,1.031
-0.263,0.052,1.034
-0.282,0.065,0.983
-0.291,0.074,0.856
-0.269,-0.011,0.96
-0.311,0.043,0.97
-0.285,0.09,1.026
-0.282,0.067,0.929
-0.218,-0.025,0.988
-0.29,0.034,0.955
-0.344,0.072,0.909
-0.322,0.104,0.912
-0.222,0,1.036
-0.225,0.004,1.053
-0.288,0.063,0.962
-0.352,0.11,0.874
-0.266,0.014,0.943
-0.252,0.002,1.041
-0.247,0.035,1.031
-0.307,0.082,0.941
-0.297,0.069,0.852
-0.264,-0.002,1.012
-0.285,0.047,0.987
-0.287,0.072,1.002
-0.277,0.066,0.885
-0.252,-0.003,0.986
-0.304,0.059,0.984
-0.304,0.065,1.009
-0.266,0.071,0.958
-0.213,0.013,1.016
-0.28,0.021,0.935
-0.347,0.084,0.907
-0.346,0.065,0.905
-0.208,0.021,1.026
-0.209,0.027,1.078
-0.298,0.033,0.93
-0.353,0.085,0.851
-0.278,0.037,0.911
-0.236,0,1.081
-0.266,0.058,1.014
-0.31,0.062,0.934
-0.273,0.043,0.876
-0.273,0.012,0.963
-0.289,0.056,1.027
-0.295,0.046,0.996
-0.287,0.075,0.875
-0.236,0.005,0.976
-0.319,0.055,0.938
-0.326,0.069,1.003
-0.29,0.064,0.94
-0.189,0.011,1.041
-0.242,0.038,1.014
-0.326,0.032,0.897
-0.341,0.099,0.884
-0.239,0.015,1.012
-0.207,0.005,1.079
-0.282,0.041,0.963
-0.349,0.067,0.85
-0.3,0.063,0.85
-0.272,0.009,1.015
-0.267,0.024,1.043
-0.303,0.079,0.958
-0.266,0.07,0.866
-0.259,0.007,1.005
-0.326,0.038,1.002
-0.301,0.056,0.926
-0.251,0.014,0.979
-0.23,0.021,0.969
-0.329,0.036,0.941
-0.303,0.095,0.948
-0.189,0.018,1.033
-0.271,0.024,0.968
-0.355,0.037,0.892
-0.357,0.085,0.869
-0.238,0.061,1.008
-0.214,0.016,1.115
-0.275,0.005,0.959
-0.335,0.099,0.86
-0.284,0.056,0.884
-0.249,0,1.057
-0.271,0.043,1.034
-0.282,0.052,1.007
-0.269,0.084,0.874
-0.261,-0.01,0.975
-0.309,0.024,1
-0.308,0.072,0.978
-0.268,0.096,0.928
-0.219,0.01,0.986
-0.301,0.005,0.955
-0.336,0.075,0.941
-0.314,0.1,0.9
-0.213,0.029,1.028
-0.244,-0.004,1.022
-0.315,0.031,0.903
-0.353,0.116,0.882
-0.256,0.048,0.98
-0.221,0.001,1.088
-0.235,0.023,1.049
-0.32,0.074,0.89
-0.31,0.087,0.838
-0.286,-0.024,1.01
-0.278,0.025,1.029
-0.266,0.089,1.003
-0.266,0.082,0.866
-0.276,-0.013,0.957
-0.334,0.022,0.932
-0.304,0.076,0.988
-0.288,0.105,0.916
-0.215,-0.015,1.004
-0.297,0,0.948
-0.344,0.048,0.914
-0.318,0.143,0.946
-0.212,0.015,1.021
-0.24,-0.003,1.042
-0.301,0.039,0.934
-0.342,0.102,0.865
-0.267,0.062,0.953
-0.227,-0.01,1.099
-0.248,0.032,1.015
-0.301,0.089,0.923
-0.298,0.057,0.852
-0.295,-0.007,0.957
-0.289,0.045,1.01
-0.295,0.068,0.998
-0.265,0.071,0.877
-0.239,-0.027,0.996
-0.311,0.035,0.948
-0.311,0.096,0.967
-0.292,0.098,0.946
-0.208,-0.013,1.056
-0.245,0,1.01
-0.317,0.08,0.923
-0.335,0.096,0.877
-0.241,0.016,1.005
-0.222,-0.006,1.048
-0.293,0.047,0.955
-0.343,0.119,0.883
-0.293,0.031,0.883
-0.251,-0.009,1.045
-0.245,0.042,1.038
-0.31,0.07,0.919
-0.31,0.06,0.83
-0.287,-0.013,0.973
-0.298,0.046,0.985
-0.266,0.102,1.044
-0.267,0.055,0.936
-0.227,-0.019,0.976
-0.301,0.037,0.958
-0.317,0.086,0.976
-0.281,0.089,0.936
-0.207,-0.003,1.037
-0.252,0.015,1.002
-0.314,0.057,0.917
-0.354,0.099,0.875
-0.257,0.012,0.963
-0.235,0.008,1.063
-0.286,0.03,0.953
-0.338,0.084,0.9
-0.279,0.057,0.893
-0.242,-0.003,1.061
-0.274,0.068,1.002
-0.295,0.068,0.987
-0.279,0.049,0.865
-0.257,0.007,0.967
-0.313,0.07,0.983
-0.304,0.043,0.988
-0.263,0.058,0.925
-0.228,0.004,1.005
-0.302,0.036,0.917
-0.342,0.078,0.914
-0.333,0.029,1.02
-0.196,0.02,1.017
-0.32,0.054,0.894
-0.371,0.101,0.851
-0.265,0.032,0.958
-0.226,0.017,1.094
-0.265,0.041,1.02
-0.334,0.081,0.88
-0.291,0.054,0.855
-0.27,0.014,1.017
-0.266,0.038,1.036
-0.29,0.06,0.972
-0.291,0.064,0.85
-0.252,0.01,0.965
-0.303,0.05,0.957
-0.306,0.06,1.015
-0.292,0.056,0.912
-0.209,0.007,0.991
-0.291,0.035,0.946
-0.352,0.042,0.893
-0.321,0.098,0.924
-0.237,0.025,1.032
-0.215,0.007,1.041
-0.31,0.046,0.931
-0.348,0.079,0.859
-0.258,0.057,0.938
-0.249,0.016,1.047
-0.262,0.024,1.038
-0.308,0.076,0.955
-0.266,0.063,0.87
-0.25,0.012,0.994
-0.31,0.039,0.992
-0.298,0.04,1.006
-0.255,0.089,0.893
-0.24,0.016,0.996
-0.315,0.031,0.962
-0.316,0.035,0.961
-0.289,0.101,0.951
-0.199,0.026,1.035
-0.271,0.012,0.957
-0.344,0.056,0.927
-0.342,0.075,0.88
-0.208,0.033,1.023
-0.224,0.02,1.069
-0.289,-0.001,0.95
-0.337,0.095,0.854
-0.303,0.06,0.868
-0.245,0.001,1.084
-0.251,0.019,1.034
-0.295,0.081,0.952
-0.28,0.075,0.857
-0.269,-0.006,0.976
-0.308,0.027,1.006
-0.301,0.07,0.988
-0.264,0.092,0.907
-0.239,0.006,0.965
-0.326,0.01,0.942
-0.32,0.072,0.979
-0.279,0.098,0.929
-0.207,0.018,1.032
-0.237,-0.005,1.014
-0.319,0.024,0.892
-0.351,0.124,0.878
-0.246,0.035,0.999
-0.217,-0.023,1.05
-0.279,0.035,0.976
-0.339,0.081,0.849
-0.301,0.07,0.869
-0.285,-0.014,1.013
-0.276,0.027,1.028
-0.294,0.076,0.945
-0.277,0.088,0.853
-0.283,-0.009,0.973
-0.326,0.018,0.95
-0.295,0.088,1.013
-0.263,0.093,0.933
-0.217,-0.016,1.013
-0.289,0,0.954
-0.345,0.071,0.915
-0.3,0.113,0.964
-0.182,0,1.034
-0.254,0.005,1.026
-0.325,0.052,0.905
-0.342,0.102,0.855
-0.271,0.046,0.971
-0.237,0.005,1.079
-0.269,0.011,0.975
-0.33,0.119,0.88
-0.3,0.05,0.874
-0.264,-0.018,1.031
-0.252,0.053,1.052
-0.283,0.068,0.982
-0.279,0.063,0.854
-0.278,-0.026,0.959
-0.31,0.041,0.994
-0.279,0.108,1.022
-0.261,0.087,0.935
-0.222,-0.025,1.015
-0.283,0.007,0.955
-0.331,0.089,0.914
-0.33,0.093,0.875
-0.238,0.011,1.018
-0.217,-0.017,0.911
-0.313,0.058,0.873
-0.356,0.004,0.944
-0.27,-0.001,1.049
-0.27,0.044,1.019
-0.312,0.07,0.914
-0.304,0.069,0.857
-0.272,-0.01,1.021
-0.248,0.044,1.049
-0.263,0.096,0.99
-0.287,0.044,0.878
-0.266,-0.022,0.948
-0.307,0.049,0.946
-0.316,0.076,0.987
-0.276,0.069,0.944
-0.198,-0.007,1.02
-0.299,0.023,0.943
-0.343,0.064,0.921
-0.326,0.104,0.916
-0.225,0.005,1.019
-0.215,0.018,1.068
-0.283,0.041,0.954
-0.357,0.079,0.842
-0.287,0.059,0.916
-0.202,-0.011,1.111
-0.252,0.073,1.013
-0.331,0.064,0.916
-0.298,0.03,0.855
-0.273,0.024,0.969
-0.285,0.064,1.03
-0.278,0.031,1.003
-0.273,0.065,0.884
-0.27,0.004,0.949
-0.313,0.053,0.968
-0.307,0.09,1.004
-0.291,0.057,0.95
-0.201,0.008,1.014
-0.244,0.021,1.001
-0.34,0.063,0.9
-0.347,0.11,0.887
-0.22,0.019,1.017
-0.216,0.011,1.067
-0.284,0.033,0.974
-0.351,0.081,0.856
-0.288,0.049,0.889
-0.259,0.022,1.046
-0.249,0.019,1.045
-0.306,0.057,0.931
-0.288,0.079,0.866
-0.253,0.012,1
-0.296,0.054,0.985
-0.282,0.056,1.043
-0.262,0.056,0.91
-0.23,0.016,0.953
-0.324,0.042,0.951
-0.331,0.051,0.984
-0.257,0.094,0.982
-0.2,0.008,1.037
-0.264,0.015,0.96
-0.351,0.043,0.877
-0.346,0.089,0.882
-0.235,0.045,1.008
-0.21,0.005,1.089
-0.304,0.013,0.942
-0.345,0.082,0.861
-0.265,0.069,0.899
-0.254,0.01,1.033
-0.284,0.035,1.033
-0.294,0.046,0.977
-0.261,0.086,0.862
-0.265,0.015,0.975
-0.295,0.036,1.034
-0.284,0.048,0.998
-0.274,0.085,0.914
-0.231,0.012,0.989
-0.304,0.017,0.911
-0.336,0.066,0.96
-0.314,0.078,0.918
-0.203,0.019,1.008
-0.264,0,1.011
-0.33,0.031,0.903
-0.336,0.123,0.893
-0.244,0.047,0.979
-0.212,-0.001,1.109
-0.259,0.018,0.997
-0.334,0.1,0.885
-0.298,0.082,0.838
-0.272,-0.013,1.025
-0.269,0.015,1.04
-0.293,0.085,0.976
-0.269,0.077,0.865
-0.285,0.002,0.939
-0.323,0.01,0.966
-0.28,0.07,1.036
-0.252,0.076,0.914
-0.249,0.01,0.983
-0.305,0.017,0.967
-0.319,0.056,0.935
-0.288,0.119,0.949
-0.221,0.011,1.037
-0.24,-0.018,1.014
-0.324,0.064,0.93
-0.345,0.114,0.875
-0.233,0.033,1.001
-0.233,-0.024,0.998
-0.269,0.03,0.866
-0.327,0.076,0.854
-0.295,-0.014,1.034
-0.278,0.039,1.03
-0.277,0.076,0.988
-0.269,0.075,0.878
-0.253,-0.025,0.981
-0.304,0.035,0.963
-0.312,0.085,0.974
-0.27,0.088,0.962
-0.216,-0.022,0.993
-0.277,0.017,0.962
-0.342,0.103,0.952
-0.324,0.075,0.885
-0.226,0.002,1.016
-0.245,0.011,1.007
-0.306,0.029,0.909
-0.341,0.132,0.856
-0.292,0.015,0.916
-0.222,-0.018,1.084
-0.249,0.043,1.004
-0.317,0.087,0.888
-0.31,0.058,0.829
-0.281,-0.018,0.991
-0.282,0.049,1.029
-0.279,0.083,1.01
-0.269,0.06,0.905
-0.247,-0.018,0.965
-0.319,0.043,0.938
-0.31,0.08,0.993
-0.291,0.073,0.917
-0.229,0.005,1.023
-0.259,0.017,0.97
-0.314,0.06,0.929
-0.317,0.108,0.957
-0.214,-0.008,1.022
-0.214,0.021,1.044
-0.306,0.057,0.94
-0.347,0.068,0.854
-0.268,0.045,0.938
-0.25,0.006,1.058
-0.256,0.035,1.034
-0.318,0.089,0.902
-0.295,0.037,0.849
-0.256,0.008,1.025
-0.274,0.048,1.023
-0.289,0.063,1.007
-0.282,0.055,0.88
-0.231,-0.005,0.979
-0.298,0.04,0.945
-0.339,0.076,0.96
-0.308,0.07,0.924
-0.187,-0.009,1.016
-0.256,0.046,1.007
-0.325,0.052,0.918
-0.345,0.063,0.848
-0.261,0.038,0.984
-0.203,0.014,1.081
-0.276,0.046,0.959
-0.361,0.097,0.869
-0.296,0.027,0.89
-0.245,0.018,1.039
-0.248,0.055,1.041
-0.3,0.041,0.952
-0.278,0.066,0.857
-0.29,0.004,0.949
-0.298,0.06,1.021
-0.281,0.058,1.015
-0.259,0.061,0.899
-0.241,0.018,0.948
-0.319,0.027,0.954
-0.339,0.052,0.958
-0.301,0.1,0.942
-0.192,0.024,1.049
-0.236,0.019,1.01
-0.346,0.035,0.907
-0.35,0.096,0.886
-0.237,0.033,0.973
-0.237,0.037,1.063
-0.254,0.007,1.007
-0.313,0.06,0.905
-0.296,0.088,0.879
-0.247,0.011,1.065
-0.267,0.043,1.028
-0.299,0.061,0.97
-0.27,0.054,0.86
-0.269,0.023,0.962
-0.333,0.043,0.951
-0.312,0.056,0.995
-0.262,0.079,0.922
-0.206,0.008,1.002
-0.31,0.027,0.933
-0.35,0.048,0.927
-0.303,0.093,0.94
-0.203,0.029,1.025
-0.222,0.003,1.046
-0.307,0.011,0.931
-0.367,0.107,0.845
-0.255,0.06,0.956
-0.225,0.006,1.08
-0.276,0.034,1.024
-0.316,0.061,0.917
-0.271,0.066,0.87
-0.272,0.016,1.039
-0.277,0.03,0.992
-0.272,0.117,0.873
-0.278,-0.005,0.97
-0.327,0.022,0.955
-0.299,0.079,1.013
-0.272,0.082,0.949
-0.208,0.004,1.002
-0.278,-0.003,0.972
-0.331,0.065,0.932
-0.301,0.12,0.938
-0.204,0.033,1.026
-0.244,-0.009,1.038
-0.323,0.01,0.924
-0.343,0.112,0.867
-0.28,0.068,0.91
-0.255,-0.013,1.047
-0.261,0.003,1.029
-0.319,0.095,0.899
-0.295,0.078,0.844
-0.278,-0.005,0.99
-0.305,0.02,0.968
-0.282,0.079,1.037
-0.254,0.079,0.905
-0.253,0.009,0.967
-0.329,0.033,0.97
-0.306,0.064,0.987
-0.26,0.108,0.96
-0.216,-0.005,1.032
-0.271,-0.004,0.958
-0.33,0.075,0.919
-0.35,0.104,0.87
-0.244,0.027,0.993
-0.21,-0.026,1.076
-0.307,0.03,0.905
-0.35,0.122,0.867
-0.281,0.052,0.899
-0.253,-0.016,1.059
-0.257,0.041,1.048
-0.283,0.082,0.979
-0.289,0.069,0.82
-0.286,-0.009,0.964
-0.289,0.04,1.027
-0.298,0.094,0.978
-0.268,0.077,0.94
-0.228,-0.029,0.981
-0.292,0.025,0.939
-0.331,0.099,0.968
-0.296,0.076,0.928
-0.216,-0.003,1.006
-0.264,0.005,0.98
-0.309,0.06,0.941
-0.322,0.134,0.908
-0.269,0.01,0.984
-0.221,-0.001,1.074
-0.254,0.047,1.013
-0.318,0.101,0.891
-0.284,0.062,0.888
-0.251,-0.019,1.057
-0.265,0.039,1.02
-0.294,0.079,0.967
-0.27,0.053,0.871
-0.263,-0.016,0.963
-0.323,0.056,0.951
-0.306,0.074,1.013
-0.28,0.062,0.905
-0.224,-0.002,1.003
-0.281,0.036,0.98
-0.319,0.067,0.921
-0.313,0.104,0.968
-0.217,-0.007,1.033
-0.219,0.023,1.031
-0.336,0.069,0.905
-0.363,0.076,0.849
-0.25,0.027,0.978
-0.233,0.004,1.062
-0.259,0.039,0.989
-0.34,0.092,0.877
-0.301,0.034,0.854
-0.26,0.005,1.026
-0.257,0.047,1.037
-0.308,0.045,0.953
-0.302,0.066,0.832
-0.251,-0.013,0.981
-0.298,0.062,0.972
-0.318,0.079,0.992
-0.285,0.064,0.955
-0.203,0,1.007
-0.277,0.038,0.958
-0.33,0.072,0.947
-0.323,0.067,0.885
-0.24,0.029,1.018
-0.229,0.019,1.029
-0.302,0.034,0.922
-0.359,0.104,0.872
-0.283,0.028,0.912
-0.228,0.013,1.063
-0.277,0.031,0.978
-0.334,0.075,0.903
-0.288,0.062,0.865
-0.28,0.01,0.999
-0.276,0.053,1.048
-0.285,0.055,1.005
-0.267,0.07,0.881
-0.257,0.017,0.979
-0.318,0.036,0.978
-0.31,0.069,0.93
-0.28,0.02,1.037
-0.255,0.015,0.976
-0.34,0.038,0.894
-0.345,0.1,0.906
-0.208,0.02,1.008
-0.234,0.022,1.042
-0.309,0.027,0.936
-0.337,0.069,0.862
-0.272,0.08,0.937
-0.24,0.013,1.07
-0.262,0.034,1.011
-0.322,0.067,0.911
-0.297,0.071,0.836
-0.257,0.015,1.021
-0.289,0.027,1.005
-0.297,0.063,1.002
-0.259,0.074,0.92
-0.215,0.008,0.98
-0.319,0.035,0.937
-0.342,0.054,0.96
-0.286,0.09,0.954
-0.201,0.012,1.008
-0.264,0.003,1
-0.329,0.031,0.906
-0.355,0.112,0.852
-0.262,0.055,0.973
-0.219,0.001,1.079
-0.283,0.015,0.976
-0.341,0.111,0.86
-0.277,0.046,0.9
-0.262,0.005,1.034
-0.258,0.022,1.051
-0.286,0.067,0.953
-0.271,0.089,0.865
-0.283,-0.008,0.957
-0.308,0.028,1.003
-0.278,0.069,1.025
-0.266,0.084,0.904
-0.24,0.003,0.978
-0.305,0.001,0.956
-0.333,0.076,0.932
-0.296,0.112,0.933
-0.209,0.027,1.016
-0.253,-0.023,0.987
-0.349,0.048,0.879
-0.335,0.105,0.877
-0.242,0.042,0.976
-0.232,-0.004,1.08
-0.249,0.011,1.013
-0.332,0.096,0.876
-0.292,0.088,0.874
-0.259,-0.018,1.048
-0.249,0.033,1.039
-0.285,0.082,0.96
-0.282,0.058,0.854
-0.263,0,0.976
-0.31,0.035,0.985
-0.293,0.074,1
-0.266,0.09,0.911
-0.236,-0.02,0.979
-0.319,0.021,0.935
-0.33,0.072,0.948
-0.303,0.109,0.935
-0.209,0.004,1.027
-0.218,-0.015,1.049
-0.312,0.037,0.912
-0.353,0.132,0.858
-0.289,0.042,0.924
-0.221,-0.03,1.101
-0.26,0.042,0.993
-0.308,0.08,0.909
-0.307,0.051,0.826
-0.293,0.004,0.97
-0.277,0.035,1.027
-0.281,0.085,1.009
-0.268,0.077,0.882
-0.271,-0.023,0.949
-0.304,0.023,0.953
-0.293,0.102,1.028
-0.263,0.067,0.943
-0.217,-0.007,1.02
-0.27,0.008,0.979
-0.33,0.077,0.912
-0.323,0.128,0.93
-0.219,-0.011,1.025
-0.224,0.005,1.044
-0.303,0.044,0.939
-0.342,0.108,0.867
-0.296,0.047,0.903
-0.237,-0.016,1.059
-0.257,0.027,1.019
-0.322,0.09,0.88
-0.309,0.051,0.845
-0.264,-0.008,1.007
-0.289,0.068,1.016
-0.272,0.074,1.053
-0.273,0.053,0.902
-0.24,0.007,0.984
-0.29,0.047,0.98
-0.319,0.086,0.949
-0.297,0.083,0.944
-0.224,-0.026,0.997
-0.263,0.039,0.923
-0.334,0.077,0.877
-0.339,0.008,0.971
-0.246,-0.004,1.049
-0.304,0.046,0.908
-0.359,0.105,0.875
-0.281,0.022,0.895
-0.245,0.018,1.056
-0.255,0.045,1.049
-0.296,0.06,0.959
-0.297,0.075,0.846
-0.265,-0.005,0.99
-0.276,0.055,1.038
-0.29,0.075,0.996
-0.282,0.054,0.914
-0.235,-0.006,0.973
-0.302,0.037,0.932
-0.332,0.076,0.959
-0.306,0.057,0.91
-0.219,0.019,1.024
-0.261,0.019,0.98
-0.318,0.047,0.928
-0.337,0.097,0.916
-0.241,0.018,0.985
-0.213,0.033,1.078
-0.28,0.032,0.979
-0.342,0.075,0.877
-0.288,0.072,0.889
-0.247,-0.002,1.066
-0.265,0.036,1.022
-0.31,0.06,0.951
-0.287,0.056,0.841
-0.273,0.029,0.946
-0.318,0.032,0.981
-0.308,0.044,0.996
-0.287,0.078,0.876
-0.215,0.008,1.002
-0.287,0.03,0.954
-0.366,0.049,0.899
-0.327,0.098,0.921
-0.215,0.026,1.032
-0.227,0.02,1.057
-0.324,0.041,0.918
-0.353,0.074,0.869
-0.254,0.058,0.986
-0.224,0.011,1.085
-0.263,0.033,0.988
-0.337,0.076,0.886
-0.304,0.057,0.825
-0.267,0.015,1.029
-0.277,0.027,1.037
-0.3,0.051,0.966
-0.279,0.087,0.852
-0.247,0.003,0.987
-0.316,0.038,0.958
-0.328,0.062,0.985
-0.273,0.081,0.941
-0.215,0.013,0.991
-0.286,0.004,0.959
-0.338,0.048,0.928
-0.347,0.11,0.874
-0.227,0.052,1.034
-0.211,0.002,1.072
-0.282,0.015,0.961
-0.334,0.111,0.859
-0.274,0.052,0.907
-0.25,0.001,1.058
-0.263,0.013,1.01
-0.299,0.083,0.927
-0.276,0.087,0.884
-0.273,-0.001,1.008
-0.298,0.033,1.007
-0.288,0.066,1.003
-0.27,0.077,0.877
-0.258,0.003,0.954
-0.317,0.015,0.97
-0.323,0.063,0.956
-0.273,0.102,0.935
-0.211,0.019,1.002
-0.27,-0.013,0.965
-0.345,0.053,0.888
-0.334,0.111,0.904
-0.223,0.026,1.012
-0.222,-0.009,1.064
-0.286,0.026,0.954
-0.348,0.102,0.843
-0.291,0.076,0.892
-0.271,-0.015,1.031
-0.253,0.034,1.034
-0.297,0.092,0.942
-0.289,0.056,0.844
-0.27,-0.011,1.008
-0.294,0.038,1.012
-0.269,0.079,1.003
-0.263,0.082,0.913
-0.252,-0.023,0.969
-0.31,0.016,0.944
-0.317,0.091,0.986
-0.282,0.085,0.946
-0.204,-0.001,0.999
-0.261,-0.007,0.996
-0.332,0.053,0.904
-0.34,0.128,0.891
-0.255,0.029,1.072
-0.208,-0.024,0.94
-0.289,0.105,0.876
-0.329,0.044,0.864
-0.273,-0.011,1.027
-0.259,0.045,1.042
-0.276,0.078,0.981
-0.275,0.078,0.867
-0.291,-0.031,0.959
-0.305,0.048,0.976
-0.276,0.075,1.035
-0.26,0.065,0.929
-0.22,-0.005,1.011
-0.31,0.027,0.948
-0.333,0.083,0.933
-0.31,0.107,0.934
-0.226,-0.01,1.017
-0.241,0.001,1.005
-0.316,0.074,0.924
-0.357,0.097,0.877
-0.267,0.017,0.959
-0.235,0.001,1.051
-0.261,0.034,0.998
-0.33,0.094,0.894
-0.294,0.042,0.867
-0.245,-0.008,1.065
-0.263,0.06,1.036
-0.286,0.072,0.998
-0.265,0.035,0.887
-0.253,0.003,0.964
-0.306,0.059,0.973
-0.306,0.088,0.983
-0.286,0.06,0.929
-0.229,-0.024,0.984
-0.276,0.042,0.972
-0.327,0.086,0.959
-0.317,0.074,0.906
-0.223,0.007,1.017
-0.237,0.007,1.045
-0.317,0.052,0.907
-0.353,0.106,0.885
-0.252,0.014,0.965
-0.192,0.008,1.096
-0.274,0.055,0.986
-0.337,0.049,0.881
-0.31,0.067,0.834
-0.269,-0.002,0.996
-0.26,0.05,1.055
-0.296,0.057,0.988
-0.278,0.061,0.868
-0.255,-0.002,0.962
-0.326,0.047,0.927
-0.32,0.08,0.998
-0.283,0.055,0.933
-0.211,0.016,1.033
-0.27,0.033,0.971
-0.341,0.053,0.896
-0.319,0.085,0.941
-0.207,0.011,1.001
-0.242,0.033,1.034
-0.32,0.028,0.937
-0.349,0.082,0.865
-0.265,0.055,0.928
-0.233,0.009,1.069
-0.255,0.023,1.013
-0.336,0.076,0.887
-0.289,0.056,0.855
-0.263,0.02,1.007
-0.285,0.037,1.021
-0.276,0.043,1.03
-0.274,0.064,0.878
-0.222,0.014,0.978
-0.298,0.055,0.954
-0.33,0.053,0.979
-0.289,0.088,0.944
-0.206,0.009,1.024
-0.263,0.026,0.995
-0.338,0.054,0.903
-0.347,0.074,0.865
-0.249,0.037,0.994
-0.218,-0.006,1.066
-0.306,0.035,0.94
-0.34,0.102,0.894
-0.282,0.05,0.894
-0.258,0.013,1.04
-0.266,0.021,1.04
-0.296,0.053,0.945
-0.289,0.105,0.838
-0.263,0,0.988
-0.28,0.037,1.051
-0.289,0.059,1.008
-0.262,0.08,0.896
-0.236,0.006,0.955
-0.315,0.007,0.929
-0.333,0.055,0.944
-0.312,0.092,0.926
-0.202,0.029,1.038
-0.258,0.003,0.982
-0.328,0.021,0.901
-0.336,0.12,0.877
-0.245,0.029,0.967
-0.237,0.02,1.087
-0.272,0.013,0.994
-0.316,0.087,0.894
-0.276,0.095,1.072
-0.253,-0.016,1.016
-0.269,0.09,0.969
-0.294,0.078,0.842
-0.251,-0.001,0.956
-0.298,0.016,0.996
-0.29,0.063,1.015
-0.266,0.1,0.906
-0.24,0.005,0.965
-0.307,0.005,0.961
-0.33,0.058,0.948
-0.29,0.114,0.944
-0.209,0.007,1.016
-0.237,0.001,1.048
-0.309,0.039,0.917
-0.361,0.116,0.833
-0.266,0.054,0.965
-0.244,-0.023,1.05
-0.261,0.041,1.016
-0.326,0.103,0.892
-0.303,0.041,0.847
-0.27,-0.008,1.027
-0.261,0.026,1.053
-0.275,0.075,0.98
-0.279,0.097,0.871
-0.268,-0.035,0.966
-0.321,0.035,0.96
-0.292,0.095,1.01
-0.271,0.084,0.943
-0.214,-0.005,0.986
-0.295,0.008,0.962
-0.349,0.076,0.932
-0.319,0.115,0.921
-0.224,0.013,1.024
-0.227,-0.014,1.047
-0.312,0.042,0.914
-0.339,0.102,0.867
-0.29,0.047,0.909
-0.243,0.003,1.08
-0.238,0.028,1.014
-0.302,0.096,0.919
-0.298,0.055,0.852
-0.298,-0.014,0.969
-0.3,0.052,1.008
-0.278,0.08,1.035
-0.267,0.054,0.887
-0.235,-0.005,0.994
-0.317,0.037,0.962
-0.312,0.077,0.967
-0.272,0.092,0.947
-0.214,-0.025,1.016
-0.266,0.005,0.95
-0.333,0.072,0.899
-0.338,0.096,0.9
-0.241,0.015,0.989
-0.217,-0.007,1.059
-0.297,0.037,0.936
-0.361,0.104,0.854
-0.297,0.043,0.894
-0.24,-0.001,1.072
-0.258,0.062,1.04
-0.291,0.062,0.955
-0.296,0.047,0.825
-0.267,-0.001,0.986
-0.284,0.055,0.993
-0.29,0.089,0.989
-0.277,0.052,0.931
-0.228,-0.025,0.972
-0.291,0.049,0.954
-0.307,0.079,1.008
-0.283,0.063,0.944
-0.199,0,1.016
-0.267,0.014,0.984
-0.329,0.058,0.891
-0.349,0.105,0.891
-0.256,0.012,0.973
-0.22,0.023,1.067
-0.292,0.036,0.96
-0.364,0.082,0.859
-0.296,0.053,0.885
-0.236,-0.003,1.052
-0.251,0.058,1.039
-0.305,0.054,0.968
-0.273,0.051,0.876
-0.255,0.009,0.965
-0.314,0.055,0.97
-0.293,0.049,1.036
-0.264,0.061,0.92
-0.223,0.013,1.014
-0.297,0.035,0.943
-0.351,0.068,0.896
-0.314,0.079,0.962
-0.197,0.009,1.024
-0.233,0.018,1.032
-0.342,0.055,0.902
-0.362,0.077,0.86
-0.248,0.04,0.968
-0.221,0.012,1.075
-0.256,0.025,1.017
-0.327,0.071,0.899
-0.296,0.072,0.865
-0.257,0.01,1.041
-0.262,0.034,1.049
-0.284,0.051,0.98
-0.296,0.066,0.825
-0.255,0.011,0.966
-0.311,0.049,0.974
-0.325,0.065,0.937
-0.278,0.012,0.999
-0.3,0.022,0.945
-0.348,0.057,0.909
-0.325,0.077,0.892
-0.226,0.043,1.032
-0.216,-0.006,1.064
-0.295,0.03,0.941
-0.337,0.116,0.901
-0.272,0.048,0.928
-0.22,0.007,1.095
-0.27,0.021,1.009
-0.314,0.058,0.908
-0.288,0.088,0.84
-0.275,0.001,0.967
-0.292,0.03,1.037
-0.293,0.056,0.984
-0.276,0.083,0.858
-0.276,0.001,0.936
-0.329,0.015,0.934
-0.317,0.064,0.983
-0.283,0.099,0.961
-0.202,0.039,1.061
-0.251,-0.007,0.983
-0.323,0.047,0.906
-0.328,0.118,0.91
-0.21,0.023,1.003
-0.238,0.01,1.069
-0.306,0.017,0.941
-0.325,0.085,0.86
-0.272,0.082,0.894
-0.267,-0.017,1.057
-0.278,0.022,0.999
-0.323,0.087,0.923
-0.291,0.07,0.854
-0.258,0,1.008
-0.291,0.033,1.01
-0.275,0.069,1.046
-0.269,0.1,0.904
-0.243,0.013,0.959
-0.317,0.009,0.964
-0.318,0.07,0.972
-0.267,0.104,0.947
-0.212,-0.003,1.007
-0.262,-0.001,1.009
-0.317,0.036,0.911
-0.345,0.107,0.859
-0.26,0.046,0.99
-0.232,-0.034,1.059
-0.281,0.036,0.948
-0.344,0.119,0.852
-0.291,0.034,0.864
-0.266,-0.008,1.054
-0.26,0.034,1.056
-0.258,0.092,1.003
-0.276,0.095,0.858
-0.288,-0.028,0.974
-0.302,0.038,0.997
-0.278,0.09,1.021
-0.262,0.073,0.934
-0.227,-0.014,0.978
-0.303,0.002,0.938
-0.339,0.07,0.922
-0.324,0.11,0.917
-0.212,0.007,1.019
-0.247,-0.019,0.99
-0.333,0.061,0.89
-0.353,0.105,0.874
-0.276,0.03,0.953
-0.251,0.015,1.077
-0.236,0.023,1.032
-0.303,0.099,0.915
-0.3,0.07,0.868
-0.276,-0.028,1.033
-0.286,0.061,0.989
-0.279,0.078,1.003
-0.273,0.047,0.856
-0.244,-0.014,0.976
-0.322,0.043,0.958
-0.3,0.083,0.988
-0.277,0.078,0.915
-0.217,-0.024,0.999
-0.294,0.027,0.945
-0.327,0.081,0.93
-0.323,0.1,0.929
-0.239,0.017,1.014
-0.216,-0.004,1.055
-0.315,0.056,0.907
-0.364,0.114,0.874
-0.26,0.022,0.958
-0.211,-0.005,1.086
-0.253,0.056,1.01
-0.3,0.065,0.935
-0.294,0.04,0.834
-0.275,0,0.988
-0.277,0.051,1.024
-0.292,0.083,0.986
-0.279,0.057,0.893
-0.251,-0.027,0.971
-0.302,0.049,0.935
-0.31,0.085,1.006
-0.289,0.062,0.93
-0.207,0.007,0.953
-0.292,0.011,0.912
-0.339,0.102,0.903
-0.339,0.007,1.025
-0.188,0.032,1.063
-0.306,0.025,0.922
-0.36,0.075,0.857
-0.29,0.053,0.899
-0.224,0.006,1.081
-0.252,0.04,1.004
-0.336,0.069,0.915
-0.31,0.055,0.845
-0.267,0.008,0.973
-0.315,0.065,0.97
-0.29,0.056,1.036
-0.262,0.055,0.899
-0.237,0.011,0.979
-0.313,0.056,0.964
-0.33,0.053,0.935
-0.283,0.075,0.966
-0.197,0.006,1.016
-0.244,0.02,0.998
-0.35,0.047,0.895
-0.358,0.082,0.88
-0.224,0.034,1.003
-0.202,0.002,1.057
-0.298,0.041,0.945
-0.368,0.08,0.856
-0.281,0.057,0.897
-0.256,0.022,1.05
-0.263,0.034,1.044
-0.301,0.052,0.945
-0.319,0.08,0.803
-0.27,0.011,1.005
-0.28,0.047,1.01
-0.279,0.057,1.032
-0.257,0.071,0.932
-0.205,0.001,0.991
-0.307,0.024,0.953
-0.331,0.068,0.979
-0.289,0.073,0.924
-0.182,0.022,1.057
-0.261,0.004,0.998
-0.323,0.029,0.915
-0.34,0.125,0.891
-0.256,0.044,0.96
-0.221,-0.005,1.086
-0.291,0.012,0.945
-0.346,0.092,0.861
-0.289,0.087,0.891
-0.255,0.002,1.048
-0.258,0.029,1.063
-0.294,0.057,0.985
-0.267,0.082,0.871
-0.263,0.004,0.977
-0.302,0.031,1.012
-0.267,0.048,1.032
-0.275,0.096,0.892
-0.228,0.013,1.019
-0.31,-0.002,0.916
-0.34,0.063,0.911
-0.323,0.122,0.922
-0.217,0.01,1.012
-0.242,-0.006,1.04
-0.335,0.058,0.898
-0.338,0.088,0.859
-0.244,0.063,0.979
-0.249,-0.021,1.055
-0.265,0.023,0.986
-0.325,0.101,0.887
-0.293,0.064,0.864
-0.254,-0.011,1.041
-0.256,0.02,1.046
-0.3,0.084,0.968
-0.29,0.081,0.844
-0.266,-0.008,0.944
-0.321,0.025,0.951
-0.303,0.081,0.997
-0.27,0.084,0.936
-0.228,-0.017,0.969
-0.317,0.015,0.935
-0.329,0.057,0.932
-0.322,0.12,0.888
-0.239,0.028,1.027
-0.247,-0.025,1.036
-0.292,0.049,0.936
-0.348,0.137,0.882
-0.259,0.019,0.944
-0.219,-0.02,1.113
-0.261,0.037,0.979
-0.305,0.091,0.939
-0.285,0.077,0.881
-0.278,-0.028,0.999
-0.281,0.044,1.018
-0.293,0.068,0.975
-0.296,0.078,0.841
-0.278,-0.005,0.955
-0.311,0.03,0.968
-0.293,0.076,1.018
-0.279,0.095,0.959
-0.207,-0.007,1.02
-0.26,0.004,0.965
-0.339,0.086,0.911
-0.314,0.096,1.042
-0.209,0.008,1.071
-0.221,0.047,0.966
-0.272,0.099,0.854
-0.301,0.054,0.87
-0.265,-0.033,1.052
-0.238,0.064,1.044
-0.297,0.08,0.935
-0.302,0.048,0.839
-0.256,-0.022,1.01
-0.29,0.062,1.009
-0.27,0.083,1.032
-0.271,0.074,0.902
-0.23,-0.026,0.979
-0.311,0.05,0.944
-0.307,0.079,1
-0.283,0.077,0.951
-0.22,0.005,1.01
-0.253,0,0.986
-0.322,0.053,0.892
-0.363,0.104,0.874
-0.259,0.018,0.991
-0.204,0,1.088
-0.288,0.052,0.942
-0.332,0.081,0.891
-0.284,0.024,0.868
-0.267,0.026,1.036
-0.25,0.052,1.06
-0.279,0.079,0.996
-0.275,0.059,0.861
-0.258,-0.017,0.984
-0.302,0.066,0.995
-0.295,0.064,1.001
-0.28,0.064,0.914
-0.22,-0.003,0.999
-0.307,0.03,0.938
-0.342,0.072,0.921
-0.311,0.074,0.934
-0.197,0.007,1.016
-0.261,0.026,0.972
-0.336,0.049,0.903
-0.361,0.076,0.881
-0.268,0.042,0.939
-0.21,0.016,1.092
-0.242,0.035,1.001
-0.354,0.077,0.868
-0.305,0.057,0.855
-0.242,-0.003,1.069
-0.271,0.064,1.004
-0.296,0.055,0.989
-0.276,0.041,0.85
-0.264,0.01,0.964
-0.331,0.062,0.959
-0.31,0.054,0.979
-0.271,0.062,0.915
-0.216,-0.004,0.98
-0.28,0.031,0.976
-0.33,0.065,0.951
-0.328,0.092,0.926
-0.21,0.02,1.025
-0.222,0.01,1.022
-0.335,0.035,0.888
-0.383,0.094,0.858
-0.254,0.051,0.955
-0.228,0.01,1.071
-0.267,0.028,1.008
-0.309,0.038,0.905
-0.315,0.078,0.809
-0.28,0.016,1.009
-0.266,0.045,1.051
-0.276,0.051,1.011
-0.253,0.08,0.897
-0.232,-0.001,0.989
-0.32,0.035,0.923
-0.338,0.081,0.989
-0.278,0.062,0.936
-0.201,0.028,1.027
-0.294,0.011,0.95
-0.347,0.04,0.9
-0.313,0.112,0.954
-0.219,0.035,1.014
-0.226,0.004,1.052
-0.306,0.012,0.919
-0.353,0.088,0.855
-0.276,0.079,0.906
-0.222,0,1.079
-0.268,0.015,1
-0.336,0.065,0.891
-0.294,0.075,0.85
-0.277,0,0.98
-0.301,0.043,1.016
-0.274,0.05,1.032
-0.275,0.086,0.872
-0.242,0.013,0.994
-0.318,0.026,0.955
-0.322,0.059,0.951
-0.295,0.117,0.949
-0.206,-0.003,1.015
-0.257,-0.001,1.012
-0.338,0.059,0.891
-0.344,0.096,0.864
-0.22,0.038,1.009
-0.216,-0.032,1.065
-0.293,0.039,0.957
-0.347,0.109,0.897
-0.284,0.061,1.049
-0.258,0.028,1.037
-0.251,0.071,0.941
-0.307,0.108,0.829
-0.272,-0.013,1.004
-0.277,0.024,1.025
-0.28,0.08,1.016
-0.267,0.082,0.935
-0.226,-0.017,0.991
-0.31,0.018,0.959
-0.313,0.067,0.972
-0.29,0.107,0.929
-0.208,0.013,1.036
-0.265,-0.013,0.999
-0.311,0.05,0.924
-0.338,0.138,0.884
-0.262,0.012,0.947
-0.226,-0.012,1.09
-0.288,0.031,0.949
-0.337,0.105,0.863
-0.291,0.082,0.88
-0.271,-0.037,1.048
-0.269,0.049,1.021
-0.287,0.076,0.987
-0.278,0.066,0.86
-0.281,-0.002,0.951
-0.31,0.029,0.975
-0.281,0.068,1.029
-0.276,0.094,0.909
-0.226,-0.008,0.991
-0.304,0.011,0.945
-0.346,0.089,0.921
-0.323,0.099,0.931
-0.215,-0.003,1.015
-0.228,0.008,1.049
-0.311,0.061,0.908
-0.348,0.096,0.859
-0.284,0.048,0.942
-0.254,-0.025,1.051
-0.243,0.062,1.027
-0.31,0.084,0.919
-0.3,0.052,0.846
-0.256,-0.015,1.021
-0.272,0.045,1.042
-0.275,0.088,1.002
-0.282,0.072,0.86
-0.257,-0.037,0.978
-0.319,0.06,0.923
-0.307,0.069,1.004
-0.289,0.065,0.927
-0.217,-0.005,0.98
-0.294,0.013,0.937
-0.329,0.065,0.92
-0.335,0.102,0.909
-0.231,0.015,1.02
-0.209,0.005,1.068
-0.282,0.055,0.939
-0.336,0.098,0.899
-0.272,0.02,0.913
-0.235,0.016,1.084
-0.26,0.052,1.005
-0.306,0.082,0.936
-0.291,0.048,0.857
-0.277,-0.014,0.963
-0.289,0.052,0.991
-0.287,0.054,1.016
-0.281,0.063,0.85
-0.244,-0.002,0.976
-0.316,0.036,0.968
-0.302,0.077,0.985
-0.293,0.089,0.945
-0.197,-0.002,1.038
-0.249,0.032,0.975
-0.34,0.06,0.916
-0.344,0.082,0.902
-0.228,0.032,1.011
-0.204,0.014,1.08
-0.265,0.041,0.976
-0.352,0.073,0.863
-0.306,0.051,0.863
-0.251,0.009,1.042
-0.269,0.062,1.03
-0.3,0.05,0.962
-0.287,0.054,0.848
-0.251,0,0.99
-0.31,0.066,0.988
-0.297,0.063,1.008
-0.265,0.059,0.945
-0.211,0.001,0.976
-0.292,0.034,0.954
-0.34,0.069,0.966
-0.314,0.072,0.899
-0.203,0.018,1.01
-0.24,0.014,1.009
-0.33,0.026,0.886
-0.375,0.099,0.859
-0.253,0.039,0.969
-0.209,0.009,1.076
-0.28,0.022,0.959
-0.329,0.063,0.878
-0.31,0.068,0.823
-0.261,0.014,1.032
-0.272,0.053,1.031
-0.279,0.044,0.856
-0.275,0.088,0.969
-0.256,0.059,0.955
-0.323,0.063,1.01
-0.277,0.074,0.909
-0.196,0.015,1.042
-0.29,0.018,0.946
-0.334,0.045,0.924
-0.307,0.106,0.942
-0.194,0.023,1.011
-0.235,0.007,1.018
-0.327,0.019,0.902
-0.37,0.092,0.85
-0.266,0.076,0.946
-0.236,0.014,1.083
-0.269,0,1.015
-0.336,0.081,0.882
-0.292,0.08,0.857
-0.272,0.005,1.034
-0.289,0.038,1.029
-0.262,0.052,1.024
-0.279,0.077,0.858
-0.248,0.016,0.981
-0.323,0.021,0.937
-0.312,0.061,0.972
-0.291,0.107,0.929
-0.207,-0.006,1.005
-0.267,0.007,0.988
-0.339,0.067,0.907
-0.325,0.095,0.889
-0.223,0.046,1.018
-0.227,-0.021,1.078
-0.293,0.03,0.945
-0.348,0.136,0.883
-0.275,0.044,0.92
-0.239,-0.01,1.061
-0.246,0.016,1.036
-0.313,0.068,0.916
-0.31,0.095,0.814
-0.289,-0.006,0.973
-0.276,0.025,1.042
-0.272,0.067,1.01
-0.263,0.092,0.894
-0.26,-0.021,0.956
-0.342,0.027,0.908
-0.316,0.071,0.977
-0.284,0.102,0.941
-0.208,0.015,1.055
-0.278,-0.007,0.971
-0.337,0.071,0.909
-0.346,0.134,0.895
-0.231,0.004,1.001
-0.221,-0.008,1.086
-0.277,0.024,0.945
-0.33,0.11,0.876
-0.287,0.073,0.903
-0.249,-0.037,1.072
-0.245,0.034,1.03
-0.296,0.086,0.938
-0.296,0.068,0.837
-0.287,-0.001,0.954
-0.302,0.031,0.995
-0.28,0.075,1.032
-0.282,0.094,0.883
-0.24,-0.011,0.97
-0.316,0.031,0.934
-0.33,0.08,0.958
-0.287,0.092,0.951
-0.203,-0.011,1.044
-0.236,0.011,1.03
-0.298,0.055,0.93
-0.347,0.114,0.862
-0.266,0.025,0.988
-0.224,-0.034,1.044
-0.271,0.07,1
-0.327,0.09,0.89
-0.286,0.042,0.856
-0.26,-0.012,1.017
-0.272,0.045,1.039
-0.292,0.084,0.976
-0.285,0.081,0.844
-0.268,-0.028,0.98
-0.299,0.054,0.972
-0.288,0.089,1.025
-0.28,0.057,0.949
-0.221,0,0.993
-0.278,0.018,0.96
-0.321,0.078,0.941
-0.316,0.087,0.927
-0.21,0.007,1.032
-0.231,0.015,1.036
-0.308,0.05,0.916
-0.346,0.091,0.874
-0.286,0.027,0.904
-0.252,0.015,1.065
-0.265,0.039,0.995
-0.332,0.093,0.889
-0.303,0.05,0.862
-0.265,-0.019,1.013
-0.274,0.064,1.009
-0.279,0.055,1.03
-0.28,0.064,0.875
-0.234,0.002,0.981
-0.305,0.046,0.976
-0.299,0.071,0.921
-0.286,0.072,1.024
-0.201,0.061,0.932
-0.292,0.056,0.903
-0.321,0.076,0.911
-0.235,0.024,0.998
-0.219,0.016,1.067
-0.319,0.055,0.908
-0.391,0.077,0.849
-0.27,0.037,0.929
-0.232,0.009,1.072
-0.257,0.06,1.04
-0.312,0.06,0.948
-0.286,0.06,0.847
-0.268,0.01,1.01
-0.28,0.046,1.045
-0.292,0.061,0.98
-0.269,0.059,0.894
-0.248,0,0.952
-0.311,0.042,0.955
-0.32,0.053,0.999
-0.295,0.076,0.937
-0.196,0.016,1.016
-0.269,0.016,0.963
-0.337,0.04,0.905
-0.357,0.105,0.881
-0.233,0.038,1.006
-0.217,0.023,1.071
-0.287,0.028,0.964
-0.335,0.079,0.871
-0.289,0.076,0.89
-0.242,0.009,1.083
-0.258,0.038,1.012
-0.298,0.055,0.965
-0.265,0.074,0.89
-0.266,-0.006,0.971
-0.312,0.037,0.983
-0.301,0.061,1.015
-0.272,0.071,0.876
-0.226,0.012,0.989
-0.321,0.022,0.943
-0.33,0.045,0.949
-0.296,0.111,0.954
-0.209,0.029,1.02
-0.232,-0.005,1.018
-0.339,0.04,0.893
-0.361,0.098,0.876
-0.221,0.061,1.011
-0.218,0.012,1.089
-0.275,0.012,0.991
-0.34,0.072,0.855
-0.284,0.076,0.867
-0.267,-0.005,1.026
-0.272,0.035,1.047
-0.273,0.049,0.976
-0.279,0.08,0.841
-0.263,0.002,0.976
-0.316,0.026,0.94
-0.308,0.076,0.996
-0.277,0.102,0.947
-0.213,-0.016,1.004
-0.294,0.009,0.973
-0.346,0.069,0.942
-0.308,0.099,0.899
-0.203,0.036,1.036
-0.244,-0.021,1.028
-0.31,0.024,0.915
-0.354,0.133,0.853
-0.277,0.048,0.927
-0.22,-0.016,1.103
-0.249,0.016,0.999
-0.329,0.089,0.894
-0.305,0.087,0.839
-0.284,-0.006,1.008
-0.262,0.031,1.063
-0.275,0.072,1.008
-0.269,0.083,0.888
-0.268,-0.018,0.941
-0.332,0.039,0.973
-0.293,0.063,1.009
-0.261,0.106,0.941
-0.211,0.012,1.046
-0.284,-0.011,0.965
-0.32,0.063,0.913
-0.339,0.14,0.895
-0.223,-0.01,0.995
-0.223,-0.011,1.068
-0.321,0.04,0.905
-0.353,0.106,0.858
-0.279,0.066,0.925
-0.259,-0.029,1.057
-0.26,0.041,1.023
-0.308,0.087,0.915
-0.304,0.07,0.848
-0.275,-0.005,1.007
-0.271,0.039,1.036
-0.261,0.076,1.046
-0.269,0.079,0.897
-0.257,-0.018,0.954
-0.312,0.029,0.95
-0.315,0.089,0.967
-0.292,0.085,0.927
-0.201,-0.033,1.009
-0.274,0.033,1.001
-0.317,0.061,0.871
-0.335,0.106,0.988
-0.269,-0.005,1.059
-0.23,0.046,0.973
-0.366,0.119,0.87
-0.282,0.023,0.899
-0.236,-0.014,1.046
-0.259,0.043,1.027
-0.29,0.081,0.975
-0.294,0.068,0.844
-0.265,-0.025,0.975
-0.288,0.061,1.01
-0.279,0.064,1.025
-0.286,0.066,0.882
-0.251,-0.009,0.959
-0.31,0.033,0.944
-0.309,0.084,0.973
-0.308,0.081,0.924
-0.213,0.003,1.024
-0.249,0.009,0.99
-0.34,0.079,0.896
-0.34,0.082,0.899
-0.242,0.008,0.974
-0.238,0.034,1.066
-0.271,0.028,0.977
-0.337,0.086,0.888
-0.294,0.053,0.878
-0.25,-0.019,1.047
-0.256,0.053,1.032
-0.296,0.062,0.971
-0.296,0.065,0.846
-0.252,0,0.976
-0.311,0.061,0.982
-0.284,0.061,1.024
-0.278,0.071,0.909
-0.21,-0.002,0.996
-0.327,0.062,0.915
-0.341,0.052,0.954
-0.298,0.077,0.96
-0.204,0.024,1.041
-0.22,0.025,1.055
-0.31,0.042,0.916
-0.371,0.089,0.864
-0.253,0.033,0.964
-0.201,-0.002,1.09
-0.27,0.072,1.004
-0.326,0.056,0.92
-0.284,0.05,0.852
-0.276,0.017,0.988
-0.283,0.044,1.037
-0.293,0.049,0.978
-0.282,0.08,0.853
-0.273,0,0.941
-0.312,0.035,0.974
-0.299,0.064,1.028
-0.272,0.075,0.955
-0.196,0.017,1.01
-0.28,0.029,0.938
-0.351,0.048,0.912
-0.338,0.087,0.92
-0.203,0.031,1.046
-0.234,0.017,1.027
-0.321,0.013,0.916
-0.35,0.083,0.869
-0.29,0.066,0.888
-0.243,0.006,1.072
-0.26,0.022,1.017
-0.319,0.068,0.906
-0.286,0.08,0.861
-0.273,-0.016,0.989
-0.316,0.045,0.971
-0.296,0.068,1.024
-0.26,0.075,0.898
-0.224,0.018,0.994
-0.32,0.027,0.956
-0.323,0.049,0.971
-0.264,0.101,0.964
-0.203,0.013,1.015
-0.263,0.013,0.978
-0.335,0.028,0.897
-0.356,0.095,0.878
-0.231,0.048,1.024
-0.208,-0.002,1.072
-0.312,0.006,0.906
-0.364,0.098,0.835
-0.271,0.06,0.91
-0.257,0.005,1.051
-0.252,0.039,1.059
-0.275,0.058,0.979
-0.281,0.082,0.825
-0.266,-0.005,1.002
-0.3,0.022,0.994
-0.296,0.082,0.972
-0.284,0.102,0.912
-0.229,-0.017,0.985
-0.301,0.009,0.948
-0.342,0.076,0.943
-0.298,0.094,0.91
-0.202,0.026,1.024
-0.281,-0.022,0.969
-0.321,0.043,0.941
-0.33,0.125,0.904
-0.256,0.038,0.971
-0.23,0.003,1.082
-0.258,0.017,0.899
-0.332,0.103,0.867
-0.303,-0.03,1.068
-0.257,0.025,1.038
-0.284,0.083,0.987
-0.275,0.077,0.861
-0.288,-0.023,0.935
-0.32,0.034,0.965
-0.276,0.071,1.014
-0.264,0.097,0.908
-0.221,-0.006,1.031
-0.304,0.002,0.946
-0.328,0.078,0.928
-0.317,0.127,0.922
-0.216,-0.004,1.021
-0.229,-0.003,1.056
-0.342,0.051,0.891
-0.35,0.113,0.882
-0.248,0.047,0.986
-0.234,-0.022,1.073
-0.257,0.046,0.998
-0.327,0.087,0.894
-0.311,0.062,0.844
-0.282,-0.003,1.007
-0.245,0.031,1.048
-0.265,0.059,0.987
-0.295,0.084,0.821
-0.271,-0.027,0.966
-0.312,0.042,0.96
-0.309,0.099,1.004
-0.273,0.069,0.955
-0.211,-0.028,1.013
-0.285,0.025,0.967
-0.326,0.083,0.942
-0.33,0.101,0.874
-0.235,0.009,1.03
-0.231,-0.02,1.028
-0.289,0.055,0.956
-0.348,0.112,0.857
-0.29,0.023,0.902
-0.23,-0.011,1.073
-0.265,0.028,0.992
-0.321,0.106,0.93
-0.298,0.058,0.853
-0.282,-0.005,1
-0.271,0.069,1.045
-0.258,0.065,1.044
-0.275,0.047,0.887
-0.266,-0.004,0.933
-0.319,0.052,0.968
-0.305,0.069,0.994
-0.287,0.077,0.941
-0.202,-0.003,1.033
-0.258,0.017,0.958
-0.337,0.074,0.9
-0.347,0.085,0.885
-0.223,-0.003,1.001
-0.231,0.026,1.051
-0.303,0.049,0.947
-0.345,0.081,0.87
-0.284,0.05,0.897
-0.259,-0.004,1.044
-0.256,0.05,1.024
-0.324,0.066,0.933
-0.305,0.059,0.821
-0.253,0.009,0.997
-0.288,0.056,1
-0.289,0.068,1.016
-0.277,0.057,0.9
-0.237,0.008,0.969
-0.317,0.048,0.93
-0.322,0.063,0.985
-0.276,0.06,0.958
-0.201,-0.001,1.02
-0.256,0.041,0.99
-0.332,0.05,0.883
-0.374,0.089,0.839
-0.261,0.035,0.971
-0.207,0.006,1.091
-0.276,0.048,0.996
-0.343,0.09,0.894
-0.278,0.031,0.888
-0.241,0.019,1.041
-0.265,0.031,1.018
-0.31,0.054,0.943
-0.28,0.067,0.853
-0.278,0,0.959
-0.29,0.04,1.008
-0.277,0.044,1.042
-0.258,0.08,0.899
-0.229,0.019,0.976
-0.329,0.037,0.904
-0.346,0.052,0.941
-0.315,0.086,0.936
-0.198,0.026,1.044
-0.247,0.004,0.984
-0.348,0.052,0.89
-0.335,0.085,0.904
-0.238,0.045,0.969
-0.231,0.024,1.077
-0.269,0.013,0.994
-0.322,0.076,0.896
-0.277,0.083,0.886
-0.256,-0.018,1.032
-0.28,0.033,1.018
-0.298,0.067,0.893
-0.265,0.079,0.983
-0.237,0.035,0.95
-0.328,0.048,0.971
-0.26,0.091,0.924
-0.22,0.005,0.98
-0.307,0.027,0.945
-0.331,0.049,0.955
-0.305,0.097,0.944
-0.199,0.033,1.043
-0.228,0.001,1.028
-0.314,0.015,0.918
-0.362,0.117,0.859
-0.259,0.049,0.965
-0.218,-0.016,1.101
-0.261,0.041,1.009
-0.315,0.077,0.897
-0.299,0.065,0.825
-0.271,0,1.011
-0.29,0.016,1.024
-0.279,0.083,1.008
-0.273,0.105,0.875
-0.263,-0.022,0.966
-0.298,0.007,0.958
-0.315,0.09,0.991
-0.273,0.091,0.917
-0.219,0.008,1.005
-0.29,-0.018,0.948
-0.323,0.058,0.933
-0.314,0.125,0.931
-0.218,0.007,1.009
-0.259,0.008,1.009
-0.319,0.023,0.903
-0.341,0.107,0.868
-0.283,0.055,0.926
-0.251,-0.008,1.067
-0.245,0.015,1.013
-0.33,0.112,0.893
-0.29,0.061,0.861
-0.261,-0.028,1.008
-0.29,0.054,1.028
-0.266,0.077,1.027
-0.273,0.086,0.886
-0.245,-0.014,1.013
-0.301,0.022,0.968
-0.299,0.087,0.989
-0.291,0.105,0.923
-0.222,-0.019,1.006
-0.276,0.012,0.973
-0.352,0.063,0.886
-0.339,0.098,0.886
-0.237,0.013,1.005
-0.218,-0.015,1.04
-0.304,0.052,0.919
-0.372,0.111,0.84
-0.286,0.022,0.914
-0.253,0.009,1.051
-0.236,0.042,1.064
-0.277,0.079,0.961
-0.307,0.075,0.834
-0.271,-0.017,1.008
-0.267,0.051,1.043
-0.272,0.099,1.011
-0.278,0.065,0.887
-0.244,-0.039,0.958
-0.31,0.039,0.941
-0.32,0.081,0.971
-0.302,0.088,0.907
-0.219,0.002,1.035
-0.273,0.001,0.965
-0.301,0.065,0.957
-0.34,0.11,0.904
-0.251,0.015,0.974
-0.211,0.015,1.07
-0.272,0.034,0.968
-0.337,0.094,0.904
-0.298,0.058,0.882
-0.242,0.003,1.084
-0.261,0.048,1.021
-0.29,0.06,0.961
-0.278,0.049,0.855
-0.287,0.001,0.934
-0.31,0.065,1.003
-0.277,0.06,1.026
-0.28,0.057,0.89
-0.229,0.001,0.982
-0.301,0.035,0.935
-0.34,0.075,0.936
-0.315,0.092,0.931
-0.2,-0.004,1.025
-0.228,0.027,1.045
-0.319,0.049,0.919
-0.347,0.089,0.877
-0.24,0.042,0.985
-0.235,0,1.059
-0.278,0.042,0.986
-0.347,0.061,0.865
-0.299,0.055,0.864
-0.245,0.015,1.034
-0.252,0.045,1.047
-0.301,0.052,0.959
-0.309,0.06,0.824
-0.253,0.009,0.989
-0.31,0.045,0.948
-0.309,0.065,0.912
-0.269,0.062,0.983
-0.221,0.034,0.97
-0.306,0.06,0.942
-0.339,0.096,0.923
-0.218,0.032,1.035
-0.227,0.006,1.043
-0.301,0.034,0.957
-0.334,0.1,0.891
-0.258,0.041,0.93
-0.221,0.014,1.06
-0.284,0.012,0.962
-0.341,0.079,0.911
-0.285,0.069,0.869
-0.275,0.012,1.002
-0.285,0.031,1.001
-0.269,0.042,1.02
-0.281,0.081,0.862
-0.261,0.019,0.964
-0.325,0.045,0.963
-0.308,0.033,0.986
-0.272,0.087,0.953
-0.199,0.013,1.019
-0.282,0.006,0.94
-0.352,0.054,0.903
-0.323,0.1,0.923
-0.21,0.029,1.019
-0.216,0.012,1.073
-0.312,0.013,0.932
-0.345,0.094,0.853
-0.279,0.076,0.91
-0.253,-0.017,1.037
-0.272,0.03,1.026
-0.322,0.071,0.933
-0.282,0.089,0.861
-0.258,0.017,1.012
-0.299,0.013,1.01
-0.291,0.058,0.986
-0.272,0.077,0.895
-0.234,0.004,0.963
-0.303,0.019,0.959
-0.314,0.063,0.987
-0.289,0.078,0.949
-0.199,0.019,1.03
-0.257,0.011,0.984
-0.328,0.027,0.9
-0.361,0.121,0.834
-0.264,0.042,0.967
-0.228,-0.012,1.089
-0.27,0.039,0.975
-0.324,0.109,0.89
-0.289,0.067,0.874
-0.26,-0.008,1.056
-0.266,0.024,1.041
-0.277,0.092,0.994
-0.262,0.089,0.906
-0.251,-0.024,0.969
-0.287,0.025,0.995
-0.304,0.07,1.012
-0.271,0.098,0.903
-0.235,0.011,0.996
-0.313,-0.005,0.924
-0.334,0.069,0.933
-0.314,0.124,0.921
-0.227,0.006,1.01
-0.255,-0.006,1.006
-0.322,0.04,0.893
-0.356,0.106,0.863
-0.278,0.045,0.939
-0.241,-0.013,1.076
-0.242,0.014,1.019
-0.32,0.109,0.893
-0.292,0.064,0.876
-0.265,-0.019,1.026
-0.264,0.039,1.056
-0.272,0.089,0.999
-0.265,0.073,0.863
-0.256,-0.006,0.998
-0.32,0.02,0.932
-0.301,0.089,0.987
-0.286,0.091,0.916
-0.23,-0.017,0.982
-0.284,0.015,0.966
-0.341,0.069,0.936
-0.317,0.107,0.906
-0.227,0.022,1.017
-0.212,-0.02,1.053
-0.289,0.061,0.947
-0.348,0.116,0.859
-0.284,0.025,0.941
-0.231,0.004,1.076
-0.243,0.044,1.026
-0.298,0.072,0.92
-0.314,0.058,0.817
-0.298,-0.012,0.964
-0.284,0.044,1.03
-0.268,0.085,1.011
-0.271,0.071,0.871
-0.259,-0.042,0.931
-0.323,0.038,0.95
-0.318,0.089,0.97
-0.294,0.098,0.929
-0.217,-0.002,1.047
-0.26,-0.003,0.984
-0.305,0.073,0.879
-0.346,0.117,0.994
-0.243,0.001,1.039
-0.241,0.024,0.955
-0.323,0.099,0.874
-0.298,0.059,0.881
-0.243,-0.019,1.049
-0.258,0.054,1.018
-0.309,0.059,0.921
-0.297,0.052,0.844
-0.28,-0.003,0.966
-0.291,0.051,0.992
-0.277,0.086,1.028
-0.271,0.067,0.928
-0.221,-0.006,1.003
-0.304,0.038,0.93
-0.344,0.094,0.935
-0.299,0.081,0.938
-0.21,-0.012,1.03
-0.248,0.026,1.022
-0.313,0.048,0.919
-0.342,0.092,0.867
-0.258,0.034,0.968
-0.227,-0.013,1.051
-0.28,0.055,0.977
-0.34,0.078,0.898
-0.295,0.045,0.887
-0.246,0.005,1.032
-0.258,0.053,1.047
-0.29,0.058,0.982
-0.301,0.055,0.851
-0.258,0.008,0.958
-0.308,0.059,0.982
-0.305,0.067,1.016
-0.263,0.054,0.96
-0.214,0.007,0.996
-0.263,0.036,0.99
-0.327,0.072,0.925
-0.329,0.088,0.922
-0.215,0.012,1.018
-0.219,0.003,1.048
-0.3,0.057,0.957
-0.341,0.086,0.883
-0.27,0.02,0.908
-0.255,0.022,1.034
-0.267,0.035,1.027
-0.317,0.067,0.916
-0.287,0.072,0.878
-0.258,-0.002,1.024
-0.287,0.036,0.991
-0.283,0.053,1.013
-0.279,0.066,0.874
-0.233,0.013,0.966
-0.313,0.041,0.939
-0.333,0.054,0.977
-0.286,0.079,0.955
-0.196,0.008,1.029
-0.268,0.028,0.967
-0.35,0.046,0.881
-0.338,0.081,0.901
-0.249,0.041,0.992
-0.217,0.034,1.094
-0.282,0.028,0.935
-0.35,0.087,0.861
-0.273,0.06,0.915
-0.244,-0.004,1.047
-0.277,0.044,1.02
-0.312,0.059,0.96
-0.265,0.07,0.859
-0.244,0.007,0.976
-0.303,0.035,1.015
-0.307,0.052,0.976
-0.271,0.086,0.914
-0.235,0.01,0.985
-0.297,0.023,0.952
-0.341,0.061,0.955
-0.299,0.081,0.926
-0.203,0.034,1.022
-0.259,0.018,0.99
-0.353,0.04,0.892
-0.361,0.095,0.877
-0.235,0.046,0.996
-0.214,0.004,1.099
-0.26,0.033,1.009
-0.32,0.077,0.885
-0.308,0.074,0.83
-0.264,-0.002,1.061
-0.259,0.012,1.029
-0.29,0.093,0.963
-0.28,0.083,0.888
-0.258,-0.008,0.981
-0.302,0.017,0.974
-0.309,0.081,0.996
-0.274,0.083,0.895
-0.225,0.025,0.993
-0.311,0.003,0.957
-0.328,0.039,0.954
-0.297,0.133,0.943
-0.217,0.013,1.008
-0.229,-0.005,1.035
-0.316,0.024,0.914
-0.347,0.105,0.885
-0.265,0.062,0.96
-0.217,-0.012,1.087
-0.253,0.022,1.009
-0.323,0.088,0.862
-0.287,0.074,0.978
-0.295,0.05,1.016
-0.289,0.066,0.981
-0.25,0.092,0.849
-0.255,-0.009,1.017
-0.312,0.008,0.973
-0.308,0.082,0.97
-0.285,0.108,0.943
-0.215,-0.021,0.992
-0.268,0.004,1.004
-0.341,0.072,0.935
-0.308,0.108,0.923
-0.21,0.023,1.031
-0.238,-0.023,1.021
-0.301,0.042,0.908
-0.345,0.117,0.856
-0.286,0.031,0.922
-0.252,0,1.061
-0.251,0.022,1.018
-0.317,0.085,0.89
-0.319,0.065,0.824
-0.278,-0.018,0.995
-0.279,0.043,1.014
-0.272,0.103,1.037
-0.256,0.066,0.922
-0.251,-0.029,0.96
-0.304,0.034,0.966
-0.293,0.089,1.007
-0.285,0.106,0.91
-0.24,-0.004,1.02
-0.283,-0.008,0.955
-0.312,0.072,0.918
-0.352,0.126,0.876
-0.251,-0.007,0.986
-0.22,-0.007,1.057
-0.322,0.035,0.9
-0.34,0.106,0.895
-0.271,0.049,0.903
-0.254,-0.006,1.037
-0.256,0.054,1.03
-0.297,0.077,0.968
-0.285,0.06,0.878
-0.272,0,0.986
-0.276,0.041,1.043
-0.27,0.075,1.004
-0.289,0.065,0.901
-0.237,-0.008,1.003
-0.302,0.027,0.932
-0.345,0.089,0.915
-0.317,0.07,0.914
-0.22,-0.008,0.986
-0.261,0.022,1.015
-0.31,0.07,0.946
-0.333,0.092,0.871
-0.264,0.034,0.962
-0.24,-0.008,1.033
-0.279,0.065,0.994
-0.342,0.086,0.896
-0.299,0.046,0.889
-0.235,0,1.057
-0.27,0.048,1.022
-0.285,0.07,0.979
-0.291,0.053,0.849
-0.271,-0.001,0.949
-0.308,0.066,0.974
-0.3,0.062,1.011
-0.276,0.051,0.911
-0.241,-0.006,0.946
-0.289,0.039,0.97
-0.327,0.073,0.926
-0.336,0.087,0.91
-0.216,0.008,1.028
-0.215,0.003,1.039
-0.307,0.061,0.923
-0.352,0.096,0.883
-0.258,0.009,0.928
-0.249,0.02,1.048
-0.266,0.035,1.004
-0.315,0.072,0.909
-0.279,0.062,0.875
-0.268,-0.007,1.006
-0.275,0.042,1.005
-0.303,0.054,0.986
-0.277,0.066,0.863
-0.241,0.011,0.986
-0.314,0.05,0.957
-0.321,0.062,1.001
-0.286,0.07,0.943
-0.208,0.016,1.001
-0.297,0.03,0.932
-0.347,0.044,0.91
-0.324,0.071,0.915
-0.221,0.033,1.007
-0.228,0.033,1.064
-0.295,0.025,0.936
-0.345,0.073,0.848
-0.268,0.06,0.925
-0.227,-0.008,1.071
-0.284,0.048,0.994
-0.329,0.082,0.934
-0.275,0.056,0.888
-0.244,0.013,0.998
-0.302,0.038,0.997
-0.307,0.049,0.909
-0.268,0.089,0.975
-0.249,0.042,0.973
-0.299,0.053,0.979
-0.283,0.086,0.925
-0.209,0.03,1.008
-0.258,0.014,0.983
-0.346,0.036,0.909
-0.348,0.096,0.871
-0.223,0.034,1.016
-0.215,-0.009,1.066
-0.297,0.038,0.951
-0.34,0.087,0.865
-0.3,0.064,0.85
-0.272,0.012,1.038
-0.274,0.018,1.021
-0.296,0.086,0.953
-0.28,0.1,0.888
-0.258,-0.016,1.016
-0.29,0.015,0.989
-0.306,0.084,0.999
-0.261,0.072,0.919
-0.215,0.016,0.999
-0.311,-0.004,0.944
-0.336,0.054,0.929
-0.289,0.115,0.969
-0.204,0.014,1.007
-0.261,0.007,0.995
-0.328,0.028,0.899
-0.342,0.108,0.879
-0.268,0.064,0.949
-0.227,-0.016,1.061
-0.284,0.015,0.958
-0.35,0.102,0.834
-0.3,0.068,0.874
-0.258,-0.019,1.05
-0.269,0.053,1.041
-0.27,0.064,0.992
-0.27,0.083,0.858
-0.252,-0.005,1.007
-0.299,0.015,1.005
-0.293,0.085,0.979
-0.29,0.11,0.917
-0.232,-0.019,0.987
-0.269,0.005,0.991
-0.341,0.083,0.929
-0.321,0.095,0.895
-0.225,0.025,1.017
-0.25,-0.026,0.995
-0.322,0.062,0.913
-0.353,0.119,0.865
-0.275,0.028,0.949
-0.245,0.004,1.064
-0.243,0.018,1.023
-0.297,0.082,0.917
-0.31,0.07,0.826
-0.271,-0.029,1.02
-0.245,0.032,1.067
-0.273,0.099,1.003
-0.268,0.072,0.894
-0.256,-0.038,0.959
-0.311,0.035,0.944
-0.309,0.085,0.994
-0.28,0.096,0.916
-0.229,-0.001,1.026
-0.301,0,0.95
-0.309,0.064,0.952
-0.314,0.119,0.926
-0.249,-0.001,0.985
-0.234,0.007,1.059
-0.293,0.035,0.953
-0.33,0.114,0.9
-0.261,0.04,0.936
-0.226,-0.017,1.072
-0.272,0.065,0.991
-0.326,0.061,0.898
-0.311,0.055,0.853
-0.292,-0.006,0.939
-0.295,0.048,1.021
-0.274,0.061,1.011
-0.286,0.065,0.878
-0.254,-0.009,0.985
-0.303,0.035,0.959
-0.326,0.092,0.958
-0.288,0.07,0.944
-0.208,-0.009,1.002
-0.267,0.035,1.021
-0.315,0.085,0.957
-0.321,0.089,0.897
-0.235,0.021,1.007
-0.239,-0.003,1.018
-0.284,0.054,0.97
-0.346,0.089,0.871
-0.299,0.037,0.896
-0.236,-0.002,1.054
-0.248,0.032,1.028
-0.311,0.076,0.914
-0.312,0.054,0.828
-0.271,0.002,0.996
-0.289,0.063,1.009
-0.276,0.069,1.031
-0.271,0.049,0.916
-0.249,-0.002,0.934
-0.305,0.051,0.965
-0.314,0.07,0.919
-0.3,0.077,1.024
-0.214,0.011,1
-0.242,0.057,0.923
-0.35,0.088,0.893
-0.253,0.019,0.958
-0.226,0.021,1.06
-0.303,0.031,0.936
-0.341,0.084,0.908
-0.26,0.054,0.918
-0.25,0.014,1.031
-0.268,0.043,1.028
-0.297,0.042,0.968
-0.292,0.073,0.851
-0.252,0.018,0.988
-0.293,0.046,1.012
-0.295,0.042,1.008
-0.28,0.062,0.917
-0.206,0.008,0.998
-0.299,0.025,0.919
-0.368,0.057,0.896
-0.314,0.075,0.945
-0.204,0.022,1.02
-0.233,0.023,1.038
-0.315,0.038,0.931
-0.342,0.083,0.861
-0.257,0.058,0.959
-0.227,-0.002,1.064
-0.274,0.037,1.006
-0.334,0.088,0.902
-0.265,0.064,0.896
-0.237,0.013,1.045
-0.286,0.017,1.013
-0.307,0.062,0.949
-0.279,0.077,0.867
-0.261,0.008,0.937
-0.306,0.025,0.982
-0.297,0.055,1.019
-0.272,0.082,0.907
-0.227,0.014,1.007
-0.291,0.018,0.964
-0.336,0.04,0.929
-0.338,0.111,0.892
-0.228,0.021,1.027
-0.23,-0.011,1.048
-0.315,0.049,0.929
-0.336,0.106,0.894
-0.259,0.051,0.928
-0.234,0.001,1.072
-0.277,0.014,0.998
-0.304,0.087,0.929
-0.278,0.094,0.882
-0.265,-0.02,0.995
-0.285,0.026,1
-0.305,0.057,0.981
-0.269,0.096,0.888
-0.216,0.007,1.036
-0.315,0.012,0.966
-0.314,0.062,0.97
-0.279,0.106,0.943
-0.221,0.01,1.005
-0.29,0.013,0.977
-0.331,0.06,0.929
-0.316,0.094,0.92
-0.229,0.035,1.014
-0.228,-0.006,1.05
-0.277,0.016,0.951
-0.348,0.116,0.846
-0.286,0.049,0.914
-0.228,-0.03,1.087
-0.251,0.041,1.03
-0.296,0.098,0.931
-0.286,0.07,0.85
-0.264,-0.017,1.021
-0.298,0.02,0.996
-0.287,0.091,0.983
-0.281,0.094,0.897
-0.255,-0.021,0.968
-0.295,0.015,0.982
-0.33,0.08,0.963
-0.296,0.094,0.917
-0.228,0.014,1.009
-0.252,-0.018,0.986
-0.314,0.069,0.93
-0.342,0.117,0.905
-0.246,0.006,0.989
-0.23,-0.011,1.063
-0.278,0.048,0.951
-0.33,0.102,0.865
-0.31,0.048,0.86
-0.276,-0.016,1.036
-0.252,0.039,1.04
-0.287,0.096,0.942
-0.28,0.07,0.866
-0.273,-0.026,0.978
-0.311,0.049,0.989
-0.289,0.091,1.011
-0.279,0.077,0.913
-0.23,-0.01,1.023
-0.297,0.015,0.942
-0.311,0.081,0.954
-0.312,0.09,0.928
-0.219,-0.009,0.996
-0.241,0.023,1.024
-0.327,0.046,0.898
-0.345,0.096,0.941
-0.274,0.038,1.068
-0.227,0.057,0.978
-0.274,0.095,0.888
-0.309,0.028,0.896
-0.259,0.005,1.023
-0.252,0.053,1.045
-0.266,0.065,0.991
-0.284,0.049,0.855
-0.26,-0.002,0.971
-0.293,0.048,0.997
-0.299,0.092,1.011
-0.284,0.067,0.899
-0.232,-0.017,0.977
-0.289,0.031,0.981
-0.315,0.078,0.964
-0.311,0.079,0.911
-0.228,0.019,1
-0.257,-0.001,0.988
-0.316,0.058,0.92
-0.351,0.077,0.875
-0.265,0.025,0.938
-0.234,0.015,1.045
-0.27,0.031,0.989
-0.331,0.076,0.918
-0.308,0.059,0.845
-0.257,-0.004,1.04
-0.267,0.051,1.021
-0.279,0.063,1.007
-0.263,0.044,0.876
-0.274,-0.003,0.926
-0.318,0.065,0.95
-0.313,0.063,0.997
-0.281,0.07,0.93
-0.203,0.015,0.998
-0.288,0.015,0.951
-0.334,0.047,0.934
-0.326,0.099,0.912
-0.217,0.011,1.003
-0.217,0.032,1.072
-0.307,0.032,0.939
-0.344,0.084,0.888
-0.267,0.058,0.93
-0.231,0.008,1.076
-0.291,0.046,0.961
-0.331,0.043,0.913
-0.294,0.061,0.868
-0.263,0.031,0.976
-0.295,0.036,1.005
-0.295,0.037,0.993
-0.282,0.069,0.878
-0.245,0.015,0.98
-0.31,0.034,0.96
-0.337,0.077,0.966
-0.268,0.06,0.982
-0.185,0.028,1.017
-0.247,0.034,1.023
-0.34,0.045,0.895
-0.345,0.102,0.874
-0.238,0.036,0.996
-0.234,-0.004,1.036
-0.297,0.029,0.979
-0.339,0.087,0.881
-0.283,0.063,0.892
-0.257,0.016,1.024
-0.293,0.007,1.009
-0.322,0.069,0.927
-0.273,0.075,0.873
-0.264,0.009,0.974
-0.299,0.026,0.97
-0.296,0.073,1.009
-0.276,0.073,0.906
-0.238,0.019,0.977
-0.311,0.023,0.96
-0.317,0.055,0.983
-0.282,0.109,0.96
-0.2,0.011,1.037
-0.252,-0.017,0.996
-0.33,0.046,0.899
-0.339,0.108,0.887
-0.253,0.048,0.95
-0.228,-0.004,1.076
-0.31,0.011,0.925
-0.325,0.102,0.902
-0.27,0.079,0.91
-0.254,-0.026,1.03
-0.279,0.039,0.998
-0.311,0.064,0.956
-0.284,0.092,0.866
-0.252,0,0.986
-0.306,0.019,1.006
-0.303,0.061,0.954
-0.28,0.097,0.91
-0.235,-0.003,0.984
-0.295,0.013,0.953
-0.336,0.064,0.92
-0.308,0.086,0.915
-0.22,0.023,1.015
-0.25,-0.009,1.013
-0.315,0.049,0.927
-0.352,0.123,0.86
-0.263,0.039,0.958
-0.246,-0.013,1.057
-0.262,0.038,1.012
-0.306,0.097,0.823
-0.296,0.077,1.041
-0.276,0.011,1.001
-0.286,0.107,0.99
-0.284,0.085,0.893
-0.258,-0.017,0.976
-0.294,0.016,0.985
-0.3,0.081,1.007
-0.279,0.089,0.896
-0.228,0,1.003
-0.29,-0.001,0.961
-0.329,0.079,0.925
-0.326,0.114,0.912
-0.24,-0.005,1.003
-0.234,0.002,1.049
-0.304,0.045,0.932
-0.338,0.12,0.882
-0.293,0.048,0.936
-0.248,-0.015,1.074
-0.25,0.045,1.023
-0.305,0.092,0.936
-0.282,0.068,0.882
-0.263,-0.023,0.996
-0.297,0.055,1.016
-0.282,0.066,0.999
-0.281,0.091,0.881
-0.234,-0.017,1.045
-0.306,0.036,0.959
-0.309,0.08,0.969
-0.314,0.091,0.918
-0.228,-0.009,0.988
-0.262,0.021,0.995
-0.327,0.077,0.924
-0.337,0.087,0.891
-0.252,0.016,0.995
-0.223,0.002,1.048
-0.281,0.054,0.946
-0.348,0.087,0.857
-0.29,0.021,0.899
-0.253,0.006,1.046
-0.25,0.054,1.037
-0.287,0.078,0.951
-0.305,0.039,0.834
-0.264,0.004,0.997
-0.29,0.057,1
-0.288,0.086,1.021
-0.277,0.067,0.906
-0.228,-0.026,0.983
-0.293,0.047,0.978
-0.312,0.066,0.98
-0.304,0.077,0.88
-0.235,0.017,0.998
-0.269,0.012,0.975
-0.299,0.052,0.956
-0.339,0.088,0.887
-0.243,0.009,0.98
-0.221,0.023,1.058
-0.289,0.044,0.951
-0.343,0.077,0.888
-0.296,0.049,0.872
-0.264,0.011,1.032
-0.265,0.045,1.037
-0.297,0.064,0.967
-0.28,0.061,0.856
-0.283,0.001,0.955
-0.31,0.056,0.991
-0.287,0.063,1.012
-0.264,0.065,0.944
-0.215,0.016,1.006
-0.3,0.017,0.943
-0.349,0.067,0.938
-0.317,0.073,0.917
-0.198,0.011,1.006
-0.246,0.046,1.041
-0.331,0.029,0.918
-0.341,0.083,0.903
-0.259,0.059,0.949
-0.237,0.011,1.064
-0.278,0.035,0.971
-0.327,0.077,0.887
-0.294,0.059,0.906
-0.235,0.012,1.037
-0.266,0.048,1.039
-0.286,0.04,1.001
-0.267,0.068,0.873
-0.237,0.005,0.996
-0.301,0.039,0.974
-0.315,0.071,1.003
-0.27,0.073,0.917
-0.219,0,0.987
-0.292,0.03,0.974
-0.335,0.049,0.926
-0.32,0.111,0.901
-0.235,0.035,0.999
-0.241,-0.016,1.017
-0.307,0.038,0.935
-0.34,0.094,0.9
-0.246,0.051,0.941
-0.245,0.022,1.05
-0.281,-0.007,0.999
-0.317,0.081,0.928
-0.274,0.082,0.867
-0.265,-0.002,1.022
-0.284,0.033,0.998
-0.292,0.066,0.864
-0.273,0.077,0.964
-0.262,0,0.956
-0.318,0.057,0.995
-0.265,0.098,0.922
-0.217,0.003,1.001
-0.305,-0.003,0.939
-0.337,0.062,0.923
-0.294,0.11,0.943
-0.213,0.035,1.018
-0.232,0,1.063
-0.306,0.016,0.939
-0.333,0.109,0.881
-0.263,0.068,0.923
-0.233,-0.025,1.058
-0.28,0.046,0.982
-0.326,0.068,0.935
-0.287,0.078,0.863
-0.268,-0.006,0.981
-0.29,0.022,1.022
-0.285,0.078,0.99
-0.268,0.082,0.886
-0.259,-0.013,0.965
-0.306,0.022,0.965
-0.311,0.086,0.977
-0.268,0.076,0.938
-0.225,0.013,1.008
-0.262,0.001,0.998
-0.319,0.07,0.916
-0.344,0.128,0.889
-0.235,0.015,0.999
-0.224,-0.031,1.046
-0.287,0.046,0.946
-0.338,0.107,0.877
-0.307,0.056,0.86
-0.266,-0.021,1.042
-0.27,0.017,1
-0.3,0.098,0.942
-0.28,0.076,0.888
-0.259,-0.02,1.003
-0.29,0.034,0.975
-0.29,0.082,1.019
-0.271,0.085,0.921
-0.224,-0.01,1
-0.292,0.026,0.976
-0.315,0.083,0.972
-0.294,0.096,0.929
-0.232,-0.018,0.991
-0.269,0.001,0.979
-0.318,0.061,0.922
-0.328,0.115,0.901
-0.277,0.026,0.949
-0.234,-0.012,1.064
-0.289,0.032,0.933
-0.337,0.109,0.875
-0.278,0.042,0.901
-0.263,-0.014,1.018
-0.279,0.06,1.02
-0.295,0.069,0.984
-0.279,0.073,0.847
-0.249,-0.017,1.022
-0.287,0.042,1.008
-0.306,0.083,0.949
-0.313,0.072,0.904
-0.24,-0.013,0.984
-0.268,0.029,0.977
-0.326,0.08,0.922
-0.32,0.078,0.92
-0.229,0.007,0.998
-0.233,0.007,1.018
-0.314,0.069,0.935
-0.344,0.086,0.864
-0.259,0.009,0.962
-0.247,0.011,1.05
-0.256,0.053,1.034
-0.314,0.082,0.911
-0.312,0.052,0.829
-0.264,0,1.037
-0.28,0.039,1
-0.287,0.086,1.008
-0.289,0.066,0.865
-0.253,-0.026,0.956
-0.29,0.041,0.967
-0.312,0.071,0.983
-0.295,0.067,0.899
-0.211,0.012,1.016
-0.286,0.03,0.961
-0.328,0.052,0.929
-0.333,0.087,0.895
-0.246,0.007,0.979
-0.22,0.028,1.048
-0.304,0.047,0.919
-0.356,0.083,0.898
-0.272,0.043,0.912
-0.241,0.004,1.051
-0.282,0.04,0.985
-0.306,0.058,0.946
-0.274,0.061,0.861
-0.28,0.011,0.97
-0.306,0.056,1
-0.288,0.042,0.991
-0.264,0.064,0.882
-0.238,0.019,0.996
-0.309,0.023,0.934
-0.34,0.064,0.929
-0.312,0.073,1
-0.198,0.039,1.016
-0.242,0.05,0.931
-0.336,0.074,0.889
-0.245,0.042,0.968
-0.231,0.002,1.042
-0.282,0.029,0.964
-0.336,0.07,0.865
-0.289,0.06,0.897
-0.244,0.011,1.053
-0.27,0.026,1.008
-0.32,0.074,0.931
-0.303,0.061,0.827
-0.271,0.015,0.99
-0.315,0.043,0.979
-0.315,0.074,1.014
-0.263,0.07,0.906
-0.223,0.003,0.964
-0.308,0.042,0.97
-0.332,0.035,0.959
-0.286,0.114,0.938
-0.227,0.033,1.019
-0.247,-0.011,1.019
-0.308,0.031,0.952
-0.333,0.097,0.891
-0.235,0.049,0.982
-0.232,0.016,1.052
-0.32,0.011,0.935
-0.336,0.083,0.894
-0.267,0.067,0.884
-0.269,0.006,1.01
-0.287,0.029,0.993
-0.304,0.058,0.954
-0.288,0.084,0.849
-0.265,-0.002,0.988
-0.323,0.025,0.97
-0.289,0.058,1.001
-0.265,0.094,0.947
-0.21,-0.002,1.013
-0.313,0.003,0.922
-0.356,0.072,0.915
-0.296,0.094,0.959
-0.188,0.027,1.027
-0.252,0.011,1.035
-0.315,0.005,0.938
-0.323,0.115,0.878
-0.261,0.063,0.942
-0.233,-0.023,1.067
-0.271,0.037,0.999
-0.335,0.095,0.905
-0.28,0.066,0.893
-0.256,-0.005,1.003
-0.287,0.025,1.01
-0.28,0.078,0.986
-0.267,0.078,0.89
-0.269,-0.008,0.947
-0.315,0.023,0.959
-0.295,0.082,1.009
-0.266,0.086,0.918
-0.235,-0.007,1.003
-0.29,0.005,0.957
-0.323,0.068,0.927
-0.337,0.125,0.891
-0.237,0.01,1.009
-0.223,-0.038,1.041
-0.309,0.058,0.923
-0.345,0.115,0.893
-0.275,0.063,0.906
-0.249,-0.022,1.061
-0.266,0.016,0.99
-0.297,0.106,0.958
-0.27,0.078,0.888
-0.257,-0.022,1.031
-0.272,0.04,1.009
-0.3,0.074,0.984
-0.283,0.086,0.882
-0.241,-0.024,0.998
-0.302,0.028,0.947
-0.319,0.081,0.952
-0.301,0.092,0.919
-0.224,-0.026,0.995
-0.293,0.016,0.942
-0.332,0.075,0.914
-0.319,0.102,0.91
-0.254,0.018,0.988
-0.222,0,1.072
-0.272,0.043,0.957
-0.34,0.107,0.871
-0.282,0.053,0.916
-0.228,-0.026,1.084
-0.265,0.067,1.029
-0.297,0.065,0.949
-0.288,0.053,0.84
-0.258,-0.01,0.995
-0.303,0.047,0.974
-0.295,0.076,0.997
-0.303,0.075,0.897
-0.242,-0.012,0.99
-0.255,0.022,1.016
-0.306,0.087,0.967
-0.313,0.082,0.909
-0.223,-0.005,1.028
-0.24,0.017,1.015
-0.325,0.072,0.922
-0.355,0.098,0.987
-0.24,0,1.058
-0.24,0.038,0.999
-0.267,0.079,0.878
-0.323,0.04,0.831
-0.278,0.003,1.017
-0.258,0.032,1.033
-0.295,0.08,0.975
-0.288,0.076,0.876
-0.251,-0.027,0.976
-0.304,0.052,0.964
-0.312,0.074,0.996
-0.29,0.068,0.902
-0.214,0.008,1.037
-0.292,0.034,0.964
-0.319,0.062,0.961
-0.311,0.087,0.918
-0.234,0,0.996
-0.242,0.046,1.04
-0.316,0.042,0.916
-0.344,0.076,0.893
-0.268,0.043,0.935
-0.218,0.011,1.078
-0.27,0.032,0.969
-0.33,0.077,0.892
-0.27,0.047,0.895
-0.27,0.014,0.995
-0.293,0.066,1.027
-0.283,0.034,1.014
-0.258,0.072,0.884
-0.238,0.018,1.021
-0.292,0.04,0.991
-0.308,0.069,1.002
-0.288,0.072,0.922
-0.207,0.011,1.005
-0.253,0.032,0.997
-0.33,0.048,0.92
-0.337,0.077,0.881
-0.229,0.032,1.003
-0.235,0,1.009
-0.295,0.045,0.972
-0.344,0.083,0.86
-0.275,0.049,0.93
-0.252,0.027,1.049
-0.257,0.021,1.024
-0.313,0.07,0.931
-0.299,0.068,0.838
-0.264,0.007,1.028
-0.291,0.031,0.993
-0.291,0.077,1.017
-0.251,0.058,0.904
-0.225,-0.003,0.957
-0.309,0.031,0.959
-0.326,0.047,0.971
-0.277,0.097,0.962
-0.205,0.03,1.025
-0.269,-0.01,0.987
-0.319,0.039,0.912
-0.332,0.097,0.898
-0.253,0.047,0.956
-0.242,0.021,1.052
-0.319,0.009,0.937
-0.333,0.094,0.896
-0.258,0.068,0.908
-0.245,-0.003,1.046
-0.295,0.05,0.98
-0.296,0.046,0.964
-0.269,0.081,0.89
-0.263,-0.003,0.973
-0.32,0.035,0.982
-0.282,0.044,1
-0.269,0.097,0.91
-0.232,-0.002,0.995
-0.328,0.009,0.91
-0.346,0.076,0.941
-0.287,0.094,0.958
-0.188,0.016,1.034
-0.252,0.008,1.025
-0.345,0.048,0.899
-0.341,0.106,0.884
-0.247,0.044,0.968
-0.241,-0.011,1.049
-0.264,0.03,1.014
-0.324,0.088,0.91
-0.288,0.072,0.876
-0.259,-0.005,1.019
-0.277,0.007,1.009
-0.299,0.1,0.952
-0.284,0.071,0.869
-0.269,-0.007,0.983
-0.321,0.042,0.946
-0.296,0.068,1.015
-0.271,0.087,0.898
-0.248,-0.01,0.977
-0.318,0.013,0.948
-0.322,0.066,0.946
-0.324,0.132,0.908
-0.23,0.003,1.035
-0.219,-0.031,1.047
-0.298,0.055,0.948
-0.334,0.118,0.903
-0.267,0.057,0.928
-0.242,-0.022,1.076
-0.281,0.024,0.963
-0.29,0.095,0.892
-0.268,0.071,0.993
-0.273,0.041,1.001
-0.279,0.064,0.996
-0.302,0.092,0.861
-0.259,-0.023,0.983
-0.309,0.034,0.962
-0.308,0.083,0.969
-0.279,0.085,0.951
-0.219,-0.014,1.008
-0.286,0.018,0.956
-0.331,0.079,0.913
-0.305,0.105,0.922
-0.232,0.013,1.02
-0.227,0,1.058
-0.291,0.037,0.932
-0.346,0.107,0.854
-0.285,0.039,0.902
-0.238,-0.022,1.057
-0.262,0.05,1.029
-0.316,0.083,0.916
-0.297,0.058,0.843
-0.242,-0.024,1.017
-0.297,0.051,0.985
-0.291,0.084,1.007
-0.289,0.076,0.897
-0.243,-0.009,0.968
-0.289,0.031,0.951
-0.306,0.085,1.002
-0.29,0.09,0.904
-0.239,-0.006,1.017
-0.264,0.011,0.979
-0.317,0.071,0.932
-0.345,0.092,0.878
-0.266,-0.003,0.955
-0.244,-0.001,1.032
-0.276,0.056,0.965
-0.329,0.097,0.898
-0.302,0.037,0.862
-0.26,0,1.033
-0.244,0.04,1.047
-0.28,0.086,0.991
-0.288,0.076,0.859
-0.267,-0.019,0.964
-0.307,0.051,0.997
-0.297,0.066,0.998
-0.277,0.073,0.91
-0.221,0.001,1.034
-0.303,0.026,0.931
-0.331,0.062,0.939
-0.311,0.073,0.918
-0.227,0,0.992
-0.245,0.031,1.02
-0.312,0.064,0.926
-0.344,0.073,0.902
-0.255,0.037,0.958
-0.226,0.013,1.084
-0.272,0.039,0.972
-0.341,0.074,0.874
-0.291,0.055,0.893
-0.252,0.007,1.047
-0.281,0.072,1.029
-0.281,0.044,0.986
-0.266,0.054,0.874
-0.25,0.015,0.977
-0.309,0.043,0.963
-0.315,0.07,1
-0.295,0.072,0.9
-0.212,-0.008,0.99
-0.256,0.045,1.018
-0.324,0.053,0.943
-0.328,0.079,0.896
-0.233,0.04,1.011
-0.232,0.006,1.029
-0.301,0.039,0.95
-0.341,0.087,0.877
-0.266,0.035,0.935
-0.254,0.022,1.045
-0.269,0.039,1.01
-0.31,0.052,0.946
-0.286,0.064,0.844
-0.254,0.004,1.014
-0.276,0.04,1.005
-0.287,0.066,1.002
-0.266,0.074,0.882
-0.245,-0.005,0.958
-0.311,0.047,0.954
-0.322,0.056,0.988
-0.283,0.094,0.948
-0.211,0.029,1.027
-0.286,0,0.952
-0.334,0.04,0.923
-0.339,0.094,0.877
-0.227,0.038,0.983
-0.24,0.039,1.059
-0.3,0.002,0.952
-0.323,0.087,0.902
-0.265,0.066,0.904
-0.231,-0.005,1.059
-0.279,0.035,0.981
-0.319,0.059,0.934
-0.285,0.075,0.874
-0.268,0.008,0.979
-0.305,0.035,1
-0.281,0.048,0.886
-0.269,0.092,1.002
-0.226,0.009,0.944
-0.321,0.076,0.964
-0.28,0.089,0.961
-0.196,0.024,1.024
-0.246,0.01,1.03
-0.346,0.027,0.896
-0.351,0.115,0.874
-0.251,0.045,0.976
-0.22,-0.034,1.06
-0.281,0.043,0.981
-0.334,0.085,0.893
-0.278,0.068,0.888
-0.267,0.013,1.007
-0.275,0.011,1.029
-0.286,0.076,0.966
-0.27,0.092,0.869
-0.269,-0.007,0.987
-0.31,0.026,0.962
-0.294,0.076,1.015
-0.272,0.077,0.923
-0.234,-0.005,0.989
-0.295,0.007,0.963
-0.32,0.067,0.97
-0.297,0.125,0.935
-0.198,-0.001,1.023
-0.261,-0.012,0.985
-0.325,0.045,0.915
-0.335,0.116,0.888
-0.269,0.069,0.936
-0.241,-0.017,1.089
-0.28,0.015,0.968
-0.316,0.107,0.89
-0.293,0.065,0.882
-0.273,-0.027,1.01
-0.282,0.045,0.996
-0.301,0.064,0.999
-0.265,0.082,0.899
-0.249,-0.019,0.995
-0.29,0.035,1.006
-0.289,0.085,0.983
-0.277,0.085,0.924
-0.238,-0.014,0.995
-0.29,0.014,0.938
-0.332,0.082,0.911
-0.316,0.099,0.912
-0.232,0.012,1.017
-0.224,-0.009,1.06
-0.303,0.05,0.899
-0.362,0.118,0.835
-0.278,0.029,0.935
-0.227,-0.012,1.084
-0.253,0.052,1.042
-0.31,0.087,0.92
-0.309,0.062,0.809
-0.269,-0.025,1.018
-0.282,0.036,0.999
-0.298,0.098,0.976
-0.295,0.064,0.883
-0.254,-0.018,0.984
-0.288,0.031,0.953
-0.312,0.087,0.98
-0.299,0.076,0.913
-0.228,-0.011,1.002
-0.287,0.021,0.955
-0.325,0.068,0.93
-0.319,0.109,0.909
-0.235,-0.011,1.008
-0.236,0.012,1.048
-0.282,0.06,0.957
-0.334,0.105,0.878
-0.296,0.037,0.899
-0.235,-0.001,1.079
-0.249,0.036,1.004
-0.305,0.081,0.945
-0.294,0.06,0.848
-0.273,-0.018,0.97
-0.301,0.057,0.998
-0.297,0.057,0.999
-0.286,0.062,0.87
-0.226,-0.001,1.027
-0.298,0.046,0.962
-0.316,0.07,0.957
-0.305,0.076,0.938
-0.211,0.003,1.02
-0.241,0.032,1.014
-0.33,0.076,0.921
-0.341,0.071,0.899
-0.234,0.024,1.008
-0.225,0.016,1.064
-0.286,0.037,0.956
-0.345,0.081,0.875
-0.275,0.038,0.911
-0.258,0.015,1.043
-0.265,0.055,1.027
-0.322,0.056,0.908
-0.295,0.054,0.832
-0.249,0.008,1.013
-0.299,0.054,0.991
-0.297,0.073,1.031
-0.282,0.076,0.928
-0.201,-0.012,0.989
-0.278,0.047,0.977
-0.33,0.051,0.877
-0.323,0.085,1.019
-0.227,0.028,0.989
-0.257,0.041,0.932
-0.347,0.091,0.872
-0.265,0.035,0.956
-0.23,0.021,1.071
-0.282,0.025,0.945
-0.331,0.078,0.912
-0.28,0.055,0.868
-0.259,0.009,1.025
-0.278,0.051,1.018
-0.299,0.062,0.994
-0.264,0.069,0.879
-0.258,0.003,0.956
-0.315,0.051,0.992
-0.305,0.03,0.992
-0.265,0.092,0.929
-0.212,0.03,1.018
-0.293,0,0.934
-0.342,0.041,0.915
-0.329,0.093,0.882
-0.215,0.029,1.004
-0.237,0.028,1.06
-0.312,0.014,0.942
-0.333,0.082,0.885
-0.26,0.075,0.946
-0.237,0.001,1.063
-0.28,0.041,0.992
-0.328,0.062,0.902
-0.299,0.076,0.86
-0.263,0.009,1.034
-0.28,0.032,1.023
-0.275,0.052,1.008
-0.266,0.077,0.884
-0.245,0.003,0.957
-0.327,0.026,0.933
-0.32,0.079,0.985
-0.271,0.082,0.941
-0.193,0.001,1
-0.287,0.016,0.98
-0.337,0.03,0.925
-0.327,0.133,0.894
-0.248,0.036,0.994
-0.23,-0.025,1.06
-0.282,0.03,0.961
-0.349,0.109,0.869
-0.267,0.051,0.912
-0.262,0.004,1.018
-0.27,0.003,1.002
-0.297,0.089,0.96
-0.27,0.076,0.874
-0.279,-0.016,0.989
-0.3,0.035,0.977
-0.285,0.06,1.002
-0.261,0.085,0.896
-0.258,-0.01,0.967
-0.325,0.018,0.939
-0.308,0.073,0.99
-0.291,0.117,0.946
-0.207,0.002,1.025
-0.272,-0.018,0.974
-0.338,0.068,0.921
-0.327,0.115,0.918
-0.228,0.035,0.987
-0.24,-0.012,1.061
-0.289,0.013,0.934
-0.324,0.105,0.883
-0.288,0.057,0.89
-0.255,-0.025,1.055
-0.269,0.052,1.005
-0.31,0.077,0.958
-0.271,0.069,0.893
-0.27,-0.012,0.974
-0.301,0.04,0.985
-0.303,0.088,0.985
-0.287,0.073,0.892
-0.25,-0.02,0.966
-0.321,0.034,0.936
-0.332,0.087,0.967
-0.287,0.097,0.929
-0.218,-0.006,1.04
-0.246,0.003,1.016
-0.317,0.05,0.909
-0.356,0.123,0.86
-0.26,0.016,0.976
-0.218,-0.033,1.063
-0.277,0.058,0.98
-0.334,0.096,0.888
-0.304,0.054,0.839
-0.256,-0.011,1.029
-0.27,0.046,1.018
-0.297,0.087,0.987
-0.295,0.072,0.852
-0.271,-0.014,0.998
-0.289,0.04,0.964
-0.288,0.088,1.01
-0.274,0.06,0.932
-0.238,-0.013,0.982
-0.297,0.028,0.948
-0.33,0.073,0.937
-0.308,0.092,0.953
-0.197,-0.011,1.039
-0.251,0.018,1.005
-0.314,0.055,0.87
-0.342,0.102,0.93
-0.279,0.008,1.074
-0.237,0.025,0.996
-0.322,0.092,0.879
-0.307,0.067,0.86
-0.262,-0.011,1.018
-0.264,0.072,1.037
-0.286,0.046,1.013
-0.269,0.059,0.88
-0.245,-0.001,0.993
-0.31,0.058,0.979
-0.296,0.067,0.992
-0.286,0.069,0.932
-0.223,0,1.006
-0.273,0.035,0.983
-0.332,0.085,0.914
-0.349,0.066,0.882
-0.235,0.01,1.007
-0.224,0.013,1.039
-0.321,0.051,0.918
-0.362,0.094,0.863
-0.257,0.034,0.939
-0.25,0.02,1.048
-0.253,0.047,1.042
-0.302,0.05,0.934
-0.291,0.071,0.833
-0.256,0.016,1.022
-0.272,0.034,1.038
-0.281,0.065,1.013
-0.275,0.067,0.887
-0.235,-0.009,0.952
-0.308,0.053,0.937
-0.344,0.045,0.969
-0.309,0.079,0.913
-0.212,0.019,1.034
-0.28,0.015,0.957
-0.327,0.038,0.924
-0.332,0.105,0.895
-0.249,0.02,0.981
-0.233,0.027,1.067
-0.289,0.025,0.935
-0.332,0.082,0.888
-0.269,0.071,0.911
-0.241,0.002,1.076
-0.289,0.027,0.968
-0.318,0.06,0.928
-0.274,0.075,0.856
-0.268,0.005,0.947
-0.323,0.045,0.988
-0.305,0.024,1.004
-0.254,0.091,0.895
-0.23,0.016,0.988
-0.318,0.013,0.924
-0.329,0.065,0.965
-0.306,0.096,0.927
-0.202,0.024,1.035
-0.245,0.025,1.029
-0.32,0.037,0.935
-0.329,0.097,0.886
-0.229,0.048,1.003
-0.234,0,1.045
-0.287,0.035,0.98
-0.333,0.083,0.856
-0.291,0.056,0.867
-0.276,-0.002,1.011
-0.269,0.018,1.027
-0.296,0.064,0.944
-0.296,0.087,0.832
-0.271,-0.008,0.97
-0.308,0.028,0.984
-0.285,0.088,1.041
-0.254,0.085,0.94
-0.227,0.006,0.962
-0.306,0.007,0.97
-0.316,0.052,0.979
-0.278,0.126,0.951
-0.213,0.016,1.025
-0.254,-0.019,0.997
-0.305,0.033,0.932
-0.345,0.108,0.863
-0.269,0.047,0.942
-0.246,0,1.061
-0.276,0.005,0.961
-0.321,0.112,0.921
-0.282,0.06,0.874
-0.282,-0.012,1.008
-0.292,0.046,1.012
-0.27,0.062,1.003
-0.263,0.09,0.87
-0.276,-0.014,0.959
-0.325,0.041,0.979
-0.3,0.067,0.998
-0.269,0.1,0.931
-0.219,-0.005,1.007
-0.292,-0.008,0.93
-0.346,0.084,0.937
-0.319,0.102,0.935
-0.197,0.006,1.04
-0.227,-0.002,1.039
-0.313,0.033,0.916
-0.345,0.111,0.857
-0.283,0.042,0.937
-0.259,-0.004,1.052
-0.245,0.044,0.913
-0.307,0.087,0.868
-0.288,0,1.004
-0.276,0.041,1.011
-0.308,0.099,0.978
-0.284,0.049,0.867
-0.251,-0.025,0.971
-0.31,0.035,0.942
-0.297,0.091,1.021
-0.273,0.085,0.92
-0.232,-0.022,0.986
-0.29,0.021,0.959
-0.328,0.065,0.905
-0.348,0.125,0.894
-0.245,0.01,1.034
-0.208,-0.016,1.06
-0.281,0.06,0.961
-0.35,0.111,0.865
-0.279,0.034,0.92
-0.239,-0.007,1.054
-0.258,0.043,1.01
-0.302,0.078,0.948
-0.279,0.045,0.882
-0.27,-0.008,0.981
-0.286,0.06,1.008
-0.269,0.065,1.013
-0.274,0.075,0.888
-0.247,-0.023,0.993
-0.309,0.055,0.94
-0.328,0.067,0.938
-0.303,0.08,0.952
-0.193,-0.004,1.033
-0.276,0.016,0.966
-0.343,0.081,0.915
-0.351,0.079,0.873
-0.231,0.015,1.004
-0.216,0.019,1.073
-0.275,0.018,0.95
-0.352,0.09,0.865
-0.303,0.053,0.88
-0.23,-0.005,1.077
-0.239,0.063,1.032
-0.323,0.058,0.932
-0.306,0.045,0.848
-0.256,0.005,0.997
-0.302,0.063,0.987
-0.299,0.068,0.995
-0.278,0.056,0.895
-0.237,0,0.983
-0.304,0.05,0.944
-0.331,0.076,0.971
-0.305,0.064,0.915
-0.216,0.005,1.026
-0.234,0.009,1.012
-0.317,0.05,0.929
-0.347,0.103,0.901
-0.238,0.015,0.977
-0.217,0.003,1.057
-0.28,0.053,0.983
-0.342,0.061,0.866
-0.293,0.066,0.839
-0.273,0.023,1.029
-0.266,0.032,1.032
-0.291,0.056,0.977
-0.286,0.076,0.845
-0.269,0.002,0.968
-0.307,0.051,0.969
-0.315,0.053,1.004
-0.272,0.07,0.93
-0.211,0.015,1.028
-0.286,0.027,0.953
-0.338,0.05,0.917
-0.327,0.091,0.914
-0.208,0.018,1.029
-0.254,0.046,1.037
-0.327,0.015,0.904
-0.338,0.086,0.888
-0.266,0.072,0.935
-0.225,0.001,1.086
-0.275,0.02,0.99
-0.341,0.079,0.879
-0.276,0.064,0.878
-0.25,0.004,1.014
-0.292,0.059,1.037
-0.287,0.029,1.016
-0.257,0.083,0.905
-0.242,0.026,0.978
-0.305,0.024,0.955
-0.304,0.062,1.013
-0.288,0.085,0.906
-0.213,0.01,1.006
-0.271,0.025,0.985
-0.345,0.036,0.907
-0.336,0.101,0.889
-0.227,0.034,1.012
-0.234,-0.006,1.033
-0.317,0.034,0.933
-0.346,0.103,0.868
-0.269,0.044,0.919
-0.261,0.005,1.042
-0.254,0.013,1.021
-0.292,0.075,0.957
-0.285,0.102,0.846
-0.27,-0.005,1.001
-0.291,0.021,1.019
-0.274,0.081,0.912
-0.253,-0.011,0.948
-0.247,0.008,0.939
-0.319,0.053,0.965
-0.28,0.111,0.939
-0.207,0.02,1.029
-0.291,-0.013,0.936
-0.33,0.043,0.905
-0.349,0.115,0.872
-0.254,0.045,0.981
-0.239,0.005,1.059
-0.269,0.008,0.974
-0.324,0.117,0.888
-0.293,0.073,0.885
-0.249,-0.021,1.073
-0.283,0.042,0.992
-0.299,0.071,0.953
-0.273,0.079,0.875
-0.278,-0.015,0.972
-0.321,0.037,0.99
-0.286,0.06,1.016
-0.268,0.103,0.899
-0.231,-0.007,1.013
-0.299,0.004,0.932
-0.342,0.087,0.959
-0.305,0.109,0.938
-0.2,0.012,1.039
-0.225,-0.008,1.051
-0.315,0.05,0.904
-0.36,0.131,0.866
-0.261,0.024,0.976
-0.232,-0.01,1.075
-0.245,0.042,1.019
-0.315,0.084,0.884
-0.295,0.05,0.86
-0.285,-0.018,0.999
-0.254,0.032,1.038
-0.299,0.098,0.959
-0.279,0.061,0.858
-0.257,-0.024,0.993
-0.307,0.032,0.949
-0.287,0.105,1.044
-0.258,0.076,0.937
-0.237,-0.025,0.979
-0.293,0.019,0.961
-0.315,0.077,0.972
-0.304,0.122,0.932
-0.226,0.002,1.041
-0.227,-0.017,1.016
-0.304,0.054,0.927
-0.344,0.11,0.872
-0.281,0.039,0.914
-0.233,-0.002,1.069
-0.276,0.036,0.973
-0.314,0.089,0.918
-0.284,0.043,0.866
-0.279,-0.001,0.993
-0.282,0.067,1.009
-0.278,0.071,1.018
-0.278,0.065,0.889
-0.253,-0.025,0.973
-0.307,0.068,0.987
-0.311,0.056,0.956
-0.283,0.071,0.934
-0.214,-0.018,1.004
-0.28,0.019,0.942
-0.336,0.086,0.934
-0.32,0.085,0.924
-0.201,0.007,1.046
-0.21,0.02,1.062
-0.304,0.035,0.915
-0.377,0.091,0.847
-0.282,0.043,0.92
-0.226,0.002,1.096
-0.224,0.061,1.058
-0.323,0.066,0.922
-0.317,0.048,0.827
-0.259,0.003,1.034
-0.288,0.055,0.987
-0.288,0.069,0.994
-0.268,0.051,0.9
-0.242,-0.001,0.965
-0.302,0.046,0.942
-0.31,0.064,1.009
-0.275,0.059,0.935
-0.196,-0.009,1.021
-0.27,0.031,0.976
-0.332,0.041,0.91
-0.35,0.119,0.89
-0.235,0.015,1.005
-0.205,0.005,1.068
-0.287,0.045,0.962
-0.352,0.079,0.872
-0.28,0.071,0.904
-0.25,0.019,1.059
-0.249,0.019,1.041
-0.293,0.056,0.965
-0.288,0.077,0.85
-0.274,0.015,0.977
-0.287,0.051,1.021
-0.292,0.032,1.008
-0.275,0.087,0.886
-0.228,0.014,1.008
-0.305,0.025,0.937
-0.334,0.059,0.929
-0.313,0.002,1.039
-0.195,0.024,1.009
-0.318,0.049,0.902
-0.34,0.077,0.868
-0.239,0.044,0.988
-0.228,0.015,1.071
-0.274,0.003,0.959
-0.34,0.093,0.876
-0.287,0.064,0.874
-0.241,0.009,1.054
-0.264,0.025,1.047
-0.311,0.049,0.943
-0.287,0.083,0.829
-0.26,0.006,0.976
-0.315,0.033,0.971
-0.286,0.068,1.022
-0.288,0.097,0.901
-0.225,-0.003,0.996
-0.31,0.029,0.953
-0.32,0.033,0.953
-0.305,0.113,0.887
-0.228,0.023,1.022
-0.251,-0.014,1.01
-0.313,0.04,0.929
-0.343,0.115,0.885
-0.233,0.037,0.982
-0.236,-0.006,1.069
-0.28,0.018,0.972
-0.308,0.09,0.913
-0.28,0.082,0.86
-0.272,-0.007,1.011
-0.263,0.015,1.023
-0.291,0.077,0.974
-0.281,0.093,0.856
-0.267,0,0.968
-0.307,0.021,0.981
-0.29,0.063,1.015
-0.252,0.087,0.945
-0.211,0.008,1.027
-0.304,0.008,0.914
-0.344,0.056,0.909
-0.323,0.102,0.9
-0.2,0.007,1.035
-0.251,0.017,1.043
-0.301,0.033,0.94
-0.335,0.113,0.872
-0.275,0.048,0.935
-0.24,-0.025,1.082
-0.261,0.039,1.007
-0.324,0.101,0.89
-0.29,0.055,0.863
-0.267,-0.021,1.016
-0.27,0.046,1.044
-0.261,0.065,1.021
-0.27,0.078,0.879
-0.256,-0.009,0.971
-0.303,0.023,0.976
-0.279,0.09,1.052
-0.277,0.089,0.926
-0.22,-0.022,1.003
-0.272,0.02,0.961
-0.336,0.07,0.91
-0.332,0.115,0.903
-0.226,0.002,1.008
-0.236,-0.012,1.023
-0.306,0.062,0.928
-0.348,0.103,0.861
-0.275,0.022,0.94
-0.266,-0.002,1.034
-0.255,0.039,1.027
-0.297,0.093,0.949
-0.288,0.06,0.87
-0.264,-0.016,1.01
-0.306,0.054,0.97
-0.284,0.081,1.011
-0.27,0.06,0.888
-0.251,-0.017,0.955
-0.321,0.055,0.932
-0.301,0.052,0.996
-0.286,0.082,0.95
-0.211,0,1.019
-0.286,0.017,0.931
-0.337,0.075,0.92
-0.34,0.084,0.912
-0.218,0.013,1.045
-0.212,0.022,1.075
-0.281,0.042,0.93
-0.359,0.094,0.847
-0.277,0.023,0.916
-0.231,0.004,1.079
-0.272,0.07,0.993
-0.324,0.062,0.922
-0.289,0.038,0.864
-0.28,-0.001,0.947
-0.292,0.055,1.021
-0.301,0.061,0.989
-0.295,0.069,0.868
-0.237,0,0.979
-0.302,0.037,0.958
-0.324,0.088,0.992
-0.301,0.06,0.935
-0.192,0.017,1.035
-0.249,0.036,0.878
-0.33,0.037,0.901
-0.344,0.012,1.003
-0.243,0.012,1.061
-0.249,0.049,0.957
-0.359,0.063,0.853
-0.31,0.057,0.856
-0.268,0.006,1.036
-0.269,0.035,1.021
-0.304,0.071,0.952
-0.272,0.058,0.865
-0.259,0.001,0.992
-0.31,0.044,0.962
-0.285,0.061,1.036
-0.253,0.081,0.933
-0.226,0.02,0.982
-0.318,0.038,0.949
-0.33,0.032,0.939
-0.291,0.098,0.955
-0.194,0.024,1.047
-0.25,0.02,0.988
-0.336,0.034,0.923
-0.351,0.072,0.871
-0.239,0.062,0.985
-0.207,0.006,1.1
-0.289,0.002,0.944
-0.341,0.083,0.86
-0.303,0.059,0.856
-0.272,0.014,1.022
-0.282,0.052,1.033
-0.288,0.038,0.98
-0.278,0.095,0.856
-0.263,-0.012,0.985
-0.308,0.036,1.002
-0.306,0.063,0.971
-0.274,0.085,0.931
-0.218,0.009,0.989
-0.301,0.006,0.946
-0.343,0.071,0.948
-0.31,0.091,0.915
-0.204,0.029,1.02
-0.233,-0.003,1.009
-0.31,0.025,0.909
-0.37,0.125,0.863
-0.26,0.048,0.968
-0.227,0.001,1.071
-0.245,0.017,1.053
-0.33,0.081,0.873
-0.299,0.091,0.851
-0.278,-0.02,1.039
-0.284,0.025,1.02
-0.27,0.075,0.999
-0.267,0.079,0.858
-0.269,-0.011,0.963
-0.336,0.022,0.938
-0.303,0.06,0.998
-0.281,0.113,0.903
-0.211,-0.019,1.024
-0.286,0,0.951
-0.35,0.051,0.901
-0.327,0.137,0.922
-0.216,0.025,1.037
-0.249,-0.018,1.031
-0.322,0.045,0.908
-0.342,0.103,0.875
-0.256,0.06,0.964
-0.244,-0.004,1.071
-0.252,0.018,1.019
-0.306,0.091,0.928
-0.289,0.064,0.856
-0.282,-0.008,0.991
-0.269,0.039,1.046
-0.282,0.068,0.999
-0.265,0.074,0.881
-0.253,-0.023,0.99
-0.319,0.028,0.929
-0.327,0.099,0.957
-0.3,0.095,0.935
-0.215,-0.013,1.038
-0.261,0.005,0.992
-0.328,0.083,0.923
-0.348,0.096,0.841
-0.25,0.014,0.996
-0.213,-0.009,1.069
-0.268,0.044,0.982
-0.333,0.123,0.88
-0.285,0.039,0.902
-0.252,-0.014,1.065
-0.237,0.048,1.047
-0.31,0.079,0.928
-0.311,0.058,0.834
-0.285,-0.004,0.965
-0.291,0.046,1.011
-0.266,0.095,1.052
-0.271,0.056,0.915
-0.246,-0.014,0.958
-0.312,0.044,0.953
-0.326,0.068,0.958
-0.273,0.093,0.959
-0.205,-0.001,1.037
-0.252,0.011,1.004
-0.323,0.067,0.911
-0.346,0.104,0.881
-0.24,0,0.993
-0.23,0.009,0.966
-0.284,0.042,0.871
-0.346,0.081,0.886
-0.298,-0.001,1.058
-0.277,0.054,1.016
-0.311,0.074,0.949
-0.293,0.055,0.844
-0.261,-0.001,0.994
-0.303,0.066,0.981
-0.288,0.048,1.009
-0.256,0.055,0.935
-0.23,0.005,0.99
-0.297,0.039,0.918
-0.338,0.088,0.953
-0.316,0.052,0.935
-0.191,-0.001,1.028
-0.238,0.037,1.028
-0.327,0.038,0.901
-0.37,0.09,0.825
-0.284,0.026,0.924
-0.229,0.007,1.069
-0.279,0.053,1.002
-0.334,0.079,0.888
-0.272,0.041,0.891
-0.252,0.005,1.017
-0.262,0.055,1.044
-0.288,0.053,0.995
-0.279,0.068,0.879
-0.255,0.005,0.967
-0.314,0.058,0.954
-0.298,0.065,1.043
-0.27,0.058,0.942
-0.214,0.013,0.991
-0.289,0.04,0.952
-0.34,0.037,0.904
-0.32,0.095,0.931
-0.235,0.024,1.014
-0.228,0.009,1.042
-0.316,0.053,0.899
-0.369,0.069,0.864
-0.265,0.057,0.925
-0.24,0.015,1.072
-0.256,0.028,1.03
-0.31,0.084,0.945
-0.267,0.066,0.878
-0.247,-0.001,1.04
-0.295,0.046,0.989
-0.296,0.059,1.004
-0.255,0.074,0.901
-0.246,0.018,0.973
-0.317,0.035,0.961
-0.319,0.038,0.966
-0.285,0.085,0.945
-0.197,0.016,1.032
-0.294,0.021,0.928
-0.351,0.042,0.923
-0.339,0.085,0.899
-0.221,0.047,1.03
-0.211,0.016,1.083
-0.287,0.018,0.948
-0.353,0.098,0.841
-0.287,0.056,0.906
-0.221,0.007,1.111
-0.249,0.044,1.041
-0.294,0.052,0.962
-0.286,0.082,0.842
-0.269,-0.006,0.958
-0.313,0.029,0.995
-0.311,0.072,0.978
-0.272,0.085,0.899
-0.228,0.002,0.992
-0.306,0.009,0.958
-0.324,0.074,0.989
-0.294,0.103,0.935
-0.213,0.029,1.014
-0.251,-0.006,1.004
-0.321,0.035,0.914
-0.348,0.122,0.902
-0.238,0.034,0.999
-0.228,-0.004,1.052
-0.275,0.023,0.981
-0.327,0.079,0.871
-0.295,0.082,0.869
-0.276,-0.019,1.038
-0.268,0.025,1.037
-0.292,0.076,0.94
-0.278,0.089,0.853
-0.265,-0.005,0.986
-0.33,0.023,0.953
-0.293,0.08,1.021
-0.264,0.103,0.921
-0.217,-0.008,1.018
-0.299,0.008,0.955
-0.351,0.06,0.913
-0.303,0.126,0.94
-0.202,0.013,1.042
-0.248,-0.004,1.033
-0.33,0.046,0.881
-0.354,0.102,0.851
-0.268,0.047,0.969
-0.228,0,1.082
-0.269,0.01,0.961
-0.329,0.112,0.891
-0.292,0.049,0.875
-0.281,-0.003,1.006
-0.263,0.048,0.994
-0.287,0.068,0.844
-0.289,-0.015,0.974
-0.271,0.042,0.985
-0.281,0.097,0.982
-0.273,0.088,0.94
-0.217,-0.018,1.019
-0.278,0,0.969
-0.324,0.081,0.924
-0.329,0.1,0.883
-0.228,0.005,1.025
-0.214,-0.018,1.052
-0.291,0.062,0.962
-0.338,0.128,0.874
-0.288,0.033,0.912
-0.249,-0.015,1.045
-0.249,0.047,1.026
-0.306,0.076,0.93
-0.308,0.076,0.845
-0.276,-0.005,1.015
-0.273,0.04,1.016
-0.259,0.09,1.04
-0.277,0.055,0.889
-0.256,-0.023,0.948
-0.312,0.04,0.952
-0.307,0.077,0.993
-0.268,0.088,0.954
-0.203,-0.017,1.026
-0.278,0.021,0.966
-0.333,0.072,0.914
-0.339,0.106,0.875
-0.249,0.004,0.995
-0.227,0.007,1.068
-0.286,0.041,0.946
-0.358,0.096,0.853
-0.284,0.046,0.925
-0.222,-0.009,1.082
-0.249,0.06,1.021
-0.301,0.073,0.944
-0.293,0.042,0.852
-0.265,0.007,0.982
-0.286,0.064,1.032
-0.268,0.039,1.023
-0.269,0.064,0.895
-0.25,0.001,0.988
-0.31,0.045,0.931
-0.33,0.094,0.965
-0.312,0.057,0.946
-0.203,-0.005,1.017
-0.252,0.03,0.997
-0.347,0.074,0.881
-0.37,0.097,0.855
-0.242,0.018,0.991
-0.214,0.012,1.094
-0.269,0.059,1.006
-0.335,0.072,0.883
-0.298,0.046,0.879
-0.255,0.012,1.031
-0.249,0.029,1.048
-0.31,0.082,0.96
-0.301,0.067,0.829
-0.256,-0.002,0.977
-0.316,0.048,0.937
-0.299,0.075,1.027
-0.282,0.051,0.915
-0.216,0.012,0.98
-0.311,0.057,0.959
-0.323,0.033,0.947
-0.289,0.094,0.956
-0.219,0.019,1.042
-0.221,0.016,1.031
-0.32,0.05,0.923
-0.366,0.076,0.865
-0.253,0.05,0.972
-0.211,0.016,1.106
-0.273,0.032,0.995
-0.325,0.074,0.901
-0.28,0.054,0.862
-0.271,0.015,0.997
-0.302,0.049,1.003
-0.289,0.035,0.991
-0.265,0.073,0.866
-0.258,0.017,0.964
-0.309,0.039,0.987
-0.319,0.043,0.962
-0.286,0.078,0.943
-0.201,0.02,1.028
-0.277,0.023,0.935
-0.35,0.059,0.934
-0.324,0.067,0.912
-0.195,0.033,1.027
-0.23,0.027,1.033
-0.319,0.008,0.908
-0.356,0.096,0.845
-0.289,0.05,0.918
-0.236,0.007,1.081
-0.248,0.032,1.021
-0.319,0.064,0.897
-0.307,0.072,0.83
-0.282,-0.005,0.979
-0.298,0.035,1.027
-0.294,0.08,1.006
-0.257,0.071,0.921
-0.214,0.007,0.983
-0.308,0.013,0.96
-0.305,0.062,0.925
-0.267,0.098,1.006
-0.221,-0.006,0.981
-0.268,0.025,0.883
-0.361,0.12,0.895
-0.247,0.036,0.991
-0.225,-0.005,1.055
-0.305,0.019,0.933
-0.343,0.087,0.857
-0.271,0.074,0.915
-0.257,0.003,1.062
-0.261,0.026,1.046
-0.27,0.076,0.992
-0.267,0.085,0.857
-0.269,0,0.983
-0.308,0.025,1.001
-0.291,0.073,1.003
-0.264,0.095,0.916
-0.231,-0.011,1.005
-0.298,0,0.951
-0.351,0.059,0.892
-0.299,0.111,0.946
-0.2,0.005,1.017
-0.268,-0.003,1.004
-0.326,0.06,0.932
-0.324,0.092,0.888
-0.242,0.057,1.003
-0.22,0,1.092
-0.261,0.012,0.983
-0.332,0.125,0.88
-0.294,0.057,0.899
-0.251,-0.014,1.063
-0.26,0.038,1.025
-0.292,0.069,0.955
-0.283,0.064,0.84
-0.284,-0.018,0.953
-0.317,0.043,0.987
-0.261,0.086,1.046
-0.254,0.085,0.909
-0.237,-0.031,0.977
-0.306,0.007,0.939
-0.332,0.084,0.92
-0.323,0.105,0.888
-0.234,0.005,1.033
-0.228,-0.02,1.025
-0.312,0.064,0.928
-0.343,0.142,0.916
-0.245,0.011,0.97
-0.241,-0.005,1.051
-0.271,0.041,0.981
-0.318,0.07,0.886
-0.309,0.066,0.855
-0.271,-0.006,1.027
-0.238,0.033,1.051
-0.282,0.09,0.954
-0.3,0.057,0.845
-0.277,-0.018,0.958
-0.31,0.051,0.971
-0.296,0.081,1.007
-0.268,0.071,0.944
-0.206,-0.013,1.026
-0.299,0.036,0.956
-0.349,0.089,0.916
-0.324,0.096,0.909
-0.21,-0.009,1.025
-0.237,0.019,1.04
-0.309,0.04,0.909
-0.358,0.087,0.855
-0.268,0.048,0.968
-0.185,-0.018,1.11
-0.253,0.055,0.976
-0.348,0.095,0.874
-0.301,0.021,0.861
-0.273,0.019,0.995
-0.269,0.07,1.048
-0.272,0.036,0.997
-0.275,0.058,0.864
-0.273,0.006,0.975
-0.294,0.057,1.014
-0.291,0.087,1.02
-0.284,0.048,0.94
-0.217,-0.005,0.97
-0.282,0.03,0.962
-0.336,0.06,0.926
-0.33,0.102,0.923
-0.214,0.005,1.017
-0.229,0.009,1.022
-0.31,0.043,0.938
-0.353,0.083,0.85
-0.271,0.04,0.927
-0.263,0.029,1.039
-0.247,0.01,1.047
-0.301,0.061,0.939
-0.286,0.091,0.874
-0.249,0.015,1.049
-0.286,0.038,0.995
-0.295,0.054,1.01
-0.271,0.055,0.884
-0.246,0.015,0.962
-0.315,0.05,0.968
-0.314,0.045,0.988
-0.277,0.076,0.918
-0.218,0.007,0.995
-0.293,0.03,0.957
-0.35,0.058,0.911
-0.318,0.092,1.038
-0.219,-0.016,1.081
-0.211,0.023,0.936
-0.361,0.102,0.847
-0.275,0.055,0.921
-0.235,0.015,1.066
-0.278,0.034,1.013
-0.317,0.052,0.923
-0.274,0.071,0.872
-0.262,0.02,0.99
-0.274,0.033,1.044
-0.282,0.05,0.989
-0.281,0.086,0.871
-0.262,0.006,0.972
-0.318,0.026,0.93
-0.308,0.069,1.01
-0.275,0.082,0.955
-0.202,0.014,1.009
-0.282,0.004,0.976
-0.349,0.056,0.907
-0.322,0.116,0.913
-0.21,0.026,1.031
-0.218,-0.001,1.073
-0.289,0.015,0.953
-0.329,0.099,0.87
-0.295,0.079,0.887
-0.25,-0.017,1.053
-0.252,0.002,1.024
-0.304,0.087,0.943
-0.282,0.086,0.851
-0.282,-0.003,0.967
-0.323,0.021,0.954
-0.283,0.067,1.026
-0.251,0.083,0.913
-0.237,0.006,0.972
-0.327,0.038,0.956
-0.323,0.049,0.935
-0.271,0.111,0.962
-0.207,0.006,1.03
-0.263,-0.01,0.968
-0.336,0.066,0.906
-0.35,0.114,0.872
-0.234,0.018,1.009
-0.21,-0.025,1.077
-0.297,0.039,0.929
-0.346,0.116,0.842
-0.295,0.064,0.88
-0.268,-0.023,1.063
-0.259,0.038,1.039
-0.281,0.082,0.963
-0.294,0.076,0.829
-0.276,-0.016,0.972
-0.287,0.035,1.003
-0.305,0.098,0.986
-0.263,0.079,0.953
-0.219,-0.036,0.992
-0.295,0.032,0.943
-0.333,0.101,0.982
-0.296,0.077,0.923
-0.207,-0.013,1.036
-0.265,0.015,0.994
-0.328,0.049,0.887
-0.345,0.135,0.899
-0.276,0.008,0.97
-0.217,-0.011,1.081
-0.28,0.053,0.948
-0.35,0.105,0.85
-0.296,0.051,0.882
-0.252,-0.013,1.043
-0.266,0.048,1.032
-0.288,0.08,0.976
-0.274,0.055,0.85
-0.265,-0.015,0.962
-0.316,0.055,0.972
-0.287,0.06,1.025
-0.28,0.067,0.905
-0.231,0.001,1.013
-0.291,0.032,0.941
-0.325,0.067,0.927
-0.318,0.108,0.951
-0.212,-0.008,1.035
-0.22,0.025,1.045
-0.328,0.077,0.913
-0.361,0.069,0.853
-0.243,0.021,0.983
-0.239,0.015,1.064
-0.261,0.031,1.008
-0.334,0.094,0.888
-0.308,0.039,0.857
-0.249,0.012,1.066
-0.249,0.044,1.051
-0.299,0.06,0.963
-0.297,0.062,0.833
-0.255,-0.001,0.963
-0.305,0.055,0.959
-0.325,0.077,0.978
-0.295,0.06,0.922
-0.213,-0.003,0.991
-0.289,0.045,0.965
-0.321,0.054,0.958
-0.315,0.079,0.891
-0.234,0.023,1.037
-0.216,0.015,1.044
-0.297,0.048,0.874
-0.357,0.106,0.959
-0.257,0.022,1.097
-0.204,0.044,1.008
-0.326,0.049,0.892
-0.293,0.075,0.853
-0.276,0.009,0.998
-0.276,0.046,1.035
-0.298,0.054,0.983
-0.27,0.067,0.855
-0.258,0.017,0.955
-0.312,0.027,0.967
-0.305,0.057,1.02
-0.273,0.078,0.942
-0.2,0.023,1.033
-0.272,0.021,0.948
-0.361,0.036,0.895
-0.332,0.103,0.92
-0.19,0.023,1.035
-0.24,0.035,1.046
-0.309,0.003,0.928
-0.346,0.076,0.848
-0.278,0.07,0.926
-0.233,0.005,1.087
-0.257,0.033,1.012
-0.333,0.068,0.882
-0.3,0.063,0.851
-0.263,0.012,1.004
-0.291,0.035,1.033
-0.277,0.056,1.032
-0.264,0.087,0.887
-0.234,0.014,0.958
-0.316,0.033,0.962
-0.323,0.057,0.988
-0.272,0.097,0.944
-0.205,0.004,1.015
-0.255,0,0.994
-0.338,0.029,0.891
-0.375,0.109,0.843
-0.261,0.052,0.991
-0.219,-0.009,1.068
-0.286,0.017,0.973
-0.337,0.102,0.867
-0.276,0.047,0.885
-0.269,0.009,1.027
-0.259,0.026,1.048
-0.279,0.067,0.977
-0.271,0.104,0.863
-0.279,-0.011,0.997
-0.292,0.034,1.018
-0.27,0.075,1.029
-0.258,0.074,0.917
-0.242,-0.004,0.945
-0.311,0.003,0.952
-0.337,0.065,0.946
-0.289,0.113,0.956
-0.206,0.027,1.021
-0.252,-0.025,0.997
-0.343,0.041,0.885
-0.346,0.119,0.87
-0.263,0.053,0.961
-0.239,0.004,1.079
-0.254,0.006,1.004
-0.325,0.103,0.877
-0.288,0.082,0.876
-0.267,-0.016,1.029
-0.285,0.029,0.996
-0.282,0.076,0.993
-0.27,0.065,0.875
-0.263,-0.006,0.967
-0.318,0.045,0.983
-0.287,0.063,0.999
-0.257,0.094,0.936
-0.225,-0.015,0.987
-0.308,0.015,0.939
-0.337,0.083,0.925
-0.322,0.112,0.923
-0.214,0.006,1.022
-0.226,-0.014,1.037
-0.32,0.042,0.892
-0.371,0.143,0.863
-0.283,0.037,0.94
-0.233,-0.024,1.087
-0.254,0.036,1.016
-0.296,0.081,0.919
-0.306,0.064,0.834
-0.287,-0.005,0.981
-0.263,0.041,1.059
-0.273,0.084,0.995
-0.262,0.083,0.899
-0.264,-0.023,0.973
-0.305,0.034,0.937
-0.312,0.103,1.02
-0.28,0.072,0.927
-0.215,-0.004,1.013
-0.287,0.014,0.96
-0.325,0.073,0.919
-0.324,0.128,0.904
-0.256,-0.001,0.999
-0.218,-0.01,1.062
-0.28,0.048,0.954
-0.343,0.098,0.853
-0.288,0.058,0.915
-0.232,-0.021,1.062
-0.26,0.028,0.886
-0.318,0.092,0.852
-0.294,-0.011,0.968
-0.274,0.058,0.974
-0.311,0.079,1.037
-0.268,0.059,0.9
-0.227,-0.001,0.996
-0.291,0.044,0.972
-0.319,0.071,0.931
-0.297,0.088,0.956
-0.214,-0.018,1.02
-0.242,0.033,1.008
-0.332,0.071,0.913
-0.347,0.078,0.868
-0.238,0.015,1
-0.212,0.004,1.08
-0.28,0.049,0.963
-0.339,0.102,0.862
-0.298,0.025,0.875
-0.253,0.008,1.031
-0.254,0.046,1.046
-0.305,0.063,0.953
-0.313,0.077,0.821
-0.273,-0.01,0.988
-0.284,0.04,1.015
-0.298,0.089,1.008
-0.278,0.053,0.947
-0.206,-0.001,1.004
-0.277,0.035,0.967
-0.325,0.074,0.96
-0.31,0.072,0.916
-0.217,0.018,1.027
-0.236,0.031,1.021
-0.312,0.046,0.922
-0.352,0.106,0.901
-0.271,0.024,0.944
-0.213,0.022,1.085
-0.267,0.041,1.001
-0.335,0.07,0.881
-0.289,0.067,0.889
-0.26,0,1.039
-0.266,0.061,1.041
-0.287,0.051,0.995
-0.279,0.055,0.865
-0.261,0.023,0.966
-0.308,0.032,0.982
-0.309,0.052,1.012
-0.281,0.076,0.921
-0.2,0.018,1.02
-0.276,0.019,0.959
-0.352,0.045,0.894
-0.349,0.086,0.905
-0.224,0.029,1.001
-0.218,0.019,1.058
-0.313,0.032,0.913
-0.356,0.06,0.849
-0.266,0.065,0.944
-0.234,0.012,1.077
-0.25,0.038,1.031
-0.311,0.068,0.924
-0.292,0.064,0.851
-0.259,0.01,1.009
-0.286,0.036,1.034
-0.301,0.056,0.977
-0.28,0.082,0.867
-0.245,-0.002,0.945
-0.328,0.039,0.934
-0.338,0.053,0.961
-0.289,0.081,0.925
-0.212,0.014,0.982
-0.283,0,0.97
-0.325,0.033,0.924
-0.335,0.116,0.898
-0.234,0.046,1.014
-0.202,0.005,1.088
-0.285,0.015,0.967
-0.34,0.109,0.87
-0.273,0.055,0.897
-0.244,0.011,1.058
-0.256,0.016,1.024
-0.307,0.066,0.932
-0.29,0.089,0.851
-0.285,0.004,0.982
-0.301,0.029,1.001
-0.283,0.067,1.008
-0.271,0.078,0.894
-0.25,-0.002,0.958
-0.315,0.014,0.96
-0.329,0.071,0.952
-0.285,0.107,0.939
-0.212,0.024,1.015
-0.268,-0.009,0.985
-0.338,0.052,0.916
-0.327,0.114,0.917
-0.231,0.038,0.995
-0.235,0.003,1.059
-0.264,0,0.981
-0.333,0.103,0.863
-0.297,0.072,0.864
-0.269,-0.011,1.026
-0.267,0.027,1.025
-0.293,0.078,0.966
-0.272,0.071,0.881
-0.252,-0.008,1.008
-0.3,0.049,1.003
-0.273,0.098,0.909
-0.267,-0.016,0.972
-0.341,0.015,0.945
-0.325,0.09,0.974
-0.297,0.102,0.926
-0.208,-0.005,1.01
-0.247,-0.009,0.986
-0.337,0.037,0.875
-0.366,0.132,0.851
-0.275,0.045,0.96
-0.211,-0.03,1.106
-0.268,0.034,0.979
-0.315,0.1,0.912
-0.309,0.051,0.843
-0.289,0,1.003
-0.259,0.038,1.045
-0.281,0.079,0.985
-0.27,0.079,0.895
-0.268,-0.027,0.964
-0.308,0.041,0.977
-0.29,0.096,1.033
-0.272,0.073,0.929
-0.214,-0.005,1.002
-0.295,0.015,0.939
-0.336,0.076,0.91
-0.304,0.111,0.943
-0.227,-0.003,1.008
-0.233,-0.014,1.014
-0.32,0.073,0.905
-0.361,0.096,0.854
-0.28,0.047,0.924
-0.234,-0.007,1.084
-0.253,0.025,1.037
-0.32,0.103,0.906
-0.296,0.058,0.854
-0.252,-0.015,1.035
-0.284,0.059,1.012
-0.264,0.071,1.043
-0.273,0.048,0.891
-0.241,-0.003,0.971
-0.3,0.032,0.958
-0.316,0.074,0.945
-0.297,0.071,0.938
-0.211,-0.028,1.008
-0.252,0.04,1.007
-0.338,0.088,0.919
-0.332,0.073,0.894
-0.241,0.017,0.988
-0.218,0.001,1.072
-0.287,0.043,0.944
-0.345,0.123,0.877
-0.283,0.025,0.913
-0.228,-0.001,1.064
-0.252,0.052,1.027
-0.308,0.051,0.937
-0.302,0.073,0.819
-0.262,-0.012,0.998
-0.268,0.052,1.038
-0.285,0.07,1.01
-0.277,0.062,0.894
-0.239,-0.012,0.974
-0.31,0.043,0.943
-0.33,0.071,0.963
-0.304,0.065,0.911
-0.224,0.016,1.019
-0.261,0.023,0.975
-0.332,0.057,0.895
-0.35,0.095,0.918
-0.24,0.013,0.985
-0.226,0.029,1.059
-0.29,0.033,0.955
-0.346,0.063,0.876
-0.289,0.062,0.895
-0.252,0.001,1.048
-0.253,0.041,1.063
-0.309,0.071,0.948
-0.279,0.052,0.86
-0.263,0.019,0.962
-0.31,0.038,0.983
-0.3,0.048,1.021
-0.276,0.068,0.895
-0.214,0.015,0.994
-0.306,0.039,0.938
-0.352,0.04,0.934
-0.304,0.094,0.949
-0.195,0.018,1.041
-0.231,0.024,1.037
-0.326,0.029,0.906
-0.345,0.074,0.84
-0.267,0.055,0.974
-0.214,0.002,1.093
-0.277,0.057,0.987
-0.334,0.07,0.892
-0.296,0.051,0.853
-0.269,0.015,1.001
-0.289,0.029,1.036
-0.302,0.047,0.973
-0.279,0.096,0.844
-0.267,0.003,0.97
-0.317,0.031,0.983
-0.309,0.056,1.011
-0.263,0.079,0.951
-0.208,0.012,0.98
-0.29,0.002,0.953
-0.32,0.11,0.936
-0.312,0.039,1.045
-0.234,0.005,1.032
-0.306,0.018,0.935
-0.341,0.116,0.861
-0.274,0.047,0.904
-0.26,0.003,1.064
-0.266,0.014,1.001
-0.319,0.079,0.883
-0.281,0.083,0.87
-0.273,-0.007,1.034
-0.288,0.03,1.018
-0.289,0.069,0.99
-0.27,0.076,0.88
-0.265,0.005,0.956
-0.303,0.011,1.006
-0.295,0.07,1.012
-0.272,0.111,0.913
-0.228,0.007,0.99
-0.29,-0.012,0.96
-0.344,0.058,0.907
-0.319,0.115,0.926
-0.224,0.022,1.016
-0.231,-0.008,1.066
-0.31,0.031,0.908
-0.366,0.106,0.842
-0.282,0.068,0.916
-0.258,-0.016,1.058
-0.25,0.038,1.048
-0.296,0.091,0.942
-0.283,0.061,0.842
-0.27,-0.014,1.019
-0.28,0.045,1.053
-0.26,0.088,1.009
-0.271,0.093,0.884
-0.262,-0.029,0.972
-0.311,0.022,0.94
-0.316,0.093,0.981
-0.288,0.084,0.927
-0.221,0.001,0.984
-0.28,-0.003,0.963
-0.348,0.057,0.899
-0.332,0.127,0.903
-0.244,0.029,1
-0.21,-0.018,1.085
-0.267,0.042,0.98
-0.322,0.112,0.903
-0.295,0.05,0.883
-0.25,-0.005,1.072
-0.248,0.036,1.027
-0.285,0.087,0.954
-0.284,0.059,0.859
-0.285,-0.022,0.941
-0.311,0.048,0.967
-0.281,0.074,1.023
-0.273,0.062,0.882
-0.232,-0.014,0.999
-0.312,0.039,0.97
-0.319,0.077,0.948
-0.288,0.103,0.955
-0.214,-0.013,1.029
-0.248,0.009,0.989
-0.327,0.079,0.924
-0.349,0.102,0.9
-0.251,0.024,0.977
-0.231,0.001,1.049
-0.282,0.029,0.972
-0.345,0.096,0.873
-0.3,0.047,0.87
-0.249,-0.003,1.056
-0.255,0.057,1.034
-0.303,0.065,0.957
-0.289,0.042,0.836
-0.258,-0.006,0.984
-0.305,0.074,0.984
-0.304,0.086,0.99
-0.284,0.059,0.952
-0.226,-0.019,1.002
-0.279,0.046,0.975
-0.327,0.095,0.991
-0.31,0.07,0.923
-0.218,0.01,1.006
-0.254,0.01,1
-0.319,0.043,0.902
-0.357,0.104,0.871
-0.264,0.025,0.946
-0.209,0.011,1.088
-0.277,0.031,0.97
-0.343,0.075,0.9
-0.297,0.054,0.861
-0.251,0.011,1.031
-0.258,0.058,1.049
-0.29,0.05,0.996
-0.283,0.066,0.865
-0.266,0,0.949
-0.318,0.052,0.96
-0.31,0.058,0.997
-0.269,0.058,0.922
-0.212,0.013,1.035
-0.285,0.03,0.951
-0.339,0.054,0.906
-0.31,0.085,0.948
-0.195,0.014,1.031
-0.214,0.024,0.917
-0.333,0.08,0.878
