acc_x[g],acc_y[g],acc_z[g]
-0.274,0.009,0.931
-0.302,-0.044,0.984
-0.324,0.091,0.919
-0.191,0.048,0.977
-0.236,0.034,1.119
-0.338,0.158,0.874
-0.279,0.026,0.928
-0.305,0.026,1.029
-0.337,0.016,0.878
-0.306,0.076,0.874
-0.26,-0.08,1.001
-0.296,0.081,1.016
-0.24,0.129,0.922
-0.201,0.034,1.121
-0.33,0.078,0.956
-0.337,0.066,0.802
-0.263,0.015,1.023
-0.322,-0.028,0.956
-0.322,0.12,0.871
-0.224,-0.005,1.004
-0.232,0.051,1.112
-0.29,0.129,0.926
-0.214,0.038,0.946
-0.293,-0.016,1.054
-0.362,0.082,0.822
-0.276,0.025,0.895
-0.284,-0.016,1.039
-0.292,0.043,0.963
-0.273,0.126,0.881
-0.211,0.032,1.093
-0.321,0.057,1.032
-0.308,0.095,0.801
-0.229,-0.059,1.058
-0.336,0.051,0.915
-0.315,0.049,0.822
-0.221,0.056,1.073
-0.246,0.005,1.064
-0.298,0.187,0.885
-0.225,0.009,0.964
-0.298,0.006,1.041
-0.363,0.079,0.837
-0.259,-0.007,0.901
-0.257,0.013,1.098
-0.317,0.053,0.899
-0.222,0.099,0.969
-0.223,0.026,1.109
-0.306,0.112,0.961
-0.31,0.048,0.813
-0.236,-0.012,1.05
-0.35,0.01,0.947
-0.312,0.076,0.827
-0.204,-0.028,1.094
-0.289,0.072,1.018
-0.273,0.123,0.908
-0.225,0.08,1.017
-0.306,-0.004,1.017
-0.383,0.084,0.793
-0.254,0.001,0.904
-0.293,-0.045,1.064
-0.322,0.098,0.899
-0.197,0.022,1.026
-0.206,0.098,1.16
-0.294,0.084,0.941
-0.284,0.131,0.898
-0.277,-0.066,1.016
-0.357,0.036,0.873
-0.323,0.054,0.794
-0.208,-0.034,1.11
-0.301,0.038,1.027
-0.26,0.127,0.888
-0.198,0.081,1.095
-0.32,0.039,0.964
-0.363,0.114,0.784
-0.273,-0.047,0.903
-0.296,-0.005,1.016
-0.344,0.036,0.811
-0.219,0.06,0.981
-0.231,0.02,1.164
-0.291,0.146,0.911
-0.233,0.096,0.974
-0.304,0.008,1.006
-0.367,0.022,0.858
-0.336,0.06,0.826
-0.22,-0.057,1.077
-0.306,0.021,0.998
-0.264,0.128,0.882
-0.183,0.032,1.161
-0.285,0.102,0.901
-0.294,0.078,0.935
-0.267,-0.047,0.931
-0.357,0.098,0.81
-0.236,-0.055,1.009
-0.253,0.037,1.105
-0.278,0.139,0.95
-0.183,0.071,1.023
-0.27,0.033,1.08
-0.363,0.051,0.84
-0.291,0.069,0.873
-0.296,-0.074,0.987
-0.322,0.042,0.933
-0.248,0.084,0.934
-0.168,0.045,1.134
-0.282,0.065,1.042
-0.305,0.119,0.833
-0.246,-0.006,1.077
-0.343,0.023,0.921
-0.329,0.063,0.832
-0.244,-0.005,0.961
-0.287,-0.009,1.043
-0.289,0.15,0.94
-0.179,0.064,1.016
-0.277,0.005,1.077
-0.359,0.117,0.846
-0.25,-0.003,0.942
-0.282,0.013,1.035
-0.306,0.016,0.93
-0.246,0.104,0.935
-0.219,-0.016,1.081
-0.286,0.116,1
-0.277,0.089,0.869
-0.246,-0.022,1.053
-0.339,0.02,0.94
-0.311,0.069,0.8
-0.239,0.003,1.032
-0.289,-0.01,1.013
-0.289,0.156,0.922
-0.204,0.026,1.002
-0.269,0.061,1.055
-0.35,0.083,0.871
-0.259,0.011,0.888
-0.295,-0.057,1.044
-0.342,0.088,0.842
-0.25,0.034,0.967
-0.243,0.028,1.084
-0.269,0.099,1.035
-0.26,0.122,0.91
-0.239,-0.019,1.056
-0.342,0.019,0.95
-0.318,0.057,0.797
-0.224,-0.072,1.076
-0.283,0.059,1.001
-0.27,0.103,0.918
-0.191,0.069,1.064
-0.285,0.028,1.04
-0.358,0.156,0.843
-0.256,-0.046,0.922
-0.322,-0.005,0.969
-0.36,0.068,0.841
-0.238,-0.012,0.919
-0.237,0.03,1.123
-0.302,0.115,0.9
-0.245,0.139,0.953
-0.27,-0.015,1.056
-0.331,0.055,0.915
-0.319,0.04,0.812
-0.256,-0.038,1.002
-0.32,-0.002,0.988
-0.282,0.106,0.853
-0.17,0.018,1.178
-0.279,0.115,1.025
-0.327,0.124,0.847
-0.27,-0.006,0.964
-0.296,-0.02,0.994
-0.368,0.065,0.796
-0.24,-0.025,0.894
-0.275,-0.016,1.103
-0.29,0.136,0.925
-0.169,0.058,1.022
-0.243,0.083,1.102
-0.355,0.036,0.875
-0.309,0.074,0.818
-0.277,-0.078,0.972
-0.348,0.042,0.908
-0.294,0.038,0.85
-0.201,0.014,1.109
-0.274,0.116,1.063
-0.275,0.131,0.874
-0.232,0.024,1.077
-0.345,-0.026,0.93
-0.358,0.099,0.799
-0.251,-0.056,0.971
-0.277,0.025,1.05
-0.311,0.096,0.891
-0.225,0.081,0.969
-0.252,0.017,1.134
-0.34,0.112,0.864
-0.258,0.039,0.932
-0.297,-0.012,0.969
-0.383,0.026,0.823
-0.312,0.054,0.868
-0.212,-0.016,1.079
-0.299,0.069,0.869
-0.282,0.14,1.094
-0.227,0.033,0.957
-0.343,0.044,0.82
-0.258,0.004,0.992
-0.306,-0.022,0.992
-0.314,0.123,0.901
-0.202,0.033,1.008
-0.259,0.053,1.065
-0.351,0.112,0.86
-0.25,0,0.919
-0.307,0.012,1.05
-0.352,0.021,0.833
-0.249,0.07,0.947
-0.244,-0.024,1.055
-0.311,0.117,0.93
-0.287,0.119,0.89
-0.255,-0.002,1.047
-0.354,0.011,0.947
-0.333,0.09,0.768
-0.234,-0.045,1.088
-0.324,0.007,0.962
-0.272,0.083,0.901
-0.189,0.06,1.062
-0.281,0.077,1.037
-0.343,0.118,0.885
-0.255,0.016,0.931
-0.308,-0.051,1.01
-0.348,0.093,0.833
-0.228,-0.004,0.978
-0.254,0.029,1.078
-0.295,0.08,0.94
-0.246,0.153,0.98
-0.246,0.008,1.047
-0.365,0.043,0.895
-0.313,0.069,0.843
-0.262,-0.068,1.014
-0.316,0.028,0.974
-0.287,0.076,0.872
-0.194,0.039,1.095
-0.288,0.063,1.018
-0.293,0.15,0.895
-0.26,-0.004,0.98
-0.32,0.001,0.953
-0.373,0.07,0.787
-0.26,-0.004,0.909
-0.255,-0.039,1.111
-0.316,0.132,0.895
-0.207,0.1,1.005
-0.258,0.052,1.084
-0.321,0.077,0.884
-0.316,0.056,0.857
-0.301,-0.022,0.925
-0.362,-0.033,0.912
-0.285,0.092,0.854
-0.196,-0.032,1.127
-0.287,0.128,1.035
-0.281,0.119,0.874
-0.229,0.043,1.057
-0.342,-0.013,0.936
-0.36,0.104,0.792
-0.275,-0.028,0.914
-0.279,-0.049,1.041
-0.295,0.12,0.926
-0.19,0.033,1.004
-0.229,0.082,1.134
-0.344,0.087,0.865
-0.279,0.069,0.896
-0.308,-0.05,0.979
-0.339,0.047,0.873
-0.288,0.037,0.879
-0.239,-0.023,1.005
-0.304,0.09,1.047
-0.251,0.152,0.875
-0.203,0.001,1.112
-0.35,0.043,0.914
-0.329,0.096,0.809
-0.257,-0.021,1.004
-0.281,0,1.016
-0.299,0.089,0.913
-0.213,0.048,0.965
-0.252,0.018,1.098
-0.335,0.165,0.872
-0.251,-0.022,0.935
-0.306,0.033,1.012
-0.352,0.03,0.856
-0.26,0.052,0.923
-0.226,-0.021,1.094
-0.283,0.076,0.978
-0.271,0.144,0.874
-0.206,-0.011,1.098
-0.333,0.07,0.984
-0.319,0.044,0.785
-0.234,-0.007,1.03
-0.328,-0.003,0.959
-0.304,0.114,0.873
-0.196,0.029,1.094
-0.253,0.068,1.052
-0.327,0.13,0.873
-0.248,0.006,0.92
-0.302,-0.019,1.037
-0.377,0.08,0.804
-0.231,-0.001,0.95
-0.248,0.003,0.948
-0.274,0.104,0.989
-0.226,0.055,1.035
-0.232,0.034,0.941
-0.312,0.088,0.795
-0.234,-0.069,1.078
-0.332,0.057,0.95
-0.298,0.046,0.874
-0.191,0.045,1.12
-0.273,0.087,1.054
-0.282,0.149,0.917
-0.248,0.03,0.996
-0.324,-0.033,1.003
-0.37,0.092,0.789
-0.232,-0.049,0.931
-0.273,0.042,1.1
-0.321,0.072,0.902
-0.192,0.115,1.035
-0.219,0.036,1.101
-0.343,0.107,0.868
-0.311,0.057,0.866
-0.289,-0.041,0.985
-0.352,0.013,0.9
-0.289,0.069,0.815
-0.185,-0.003,1.149
-0.284,0.066,1.045
-0.248,0.162,0.915
-0.219,0.023,1.098
-0.334,0.035,0.947
-0.353,0.045,0.806
-0.27,0.001,0.92
-0.27,-0.056,1.062
-0.314,0.116,0.898
-0.176,0.053,1.05
-0.228,0.072,1.13
-0.318,0.094,0.907
-0.276,0.052,0.899
-0.302,-0.009,0.981
-0.378,0.009,0.828
-0.301,0.085,0.869
-0.203,-0.049,1.117
-0.289,0.113,0.995
-0.258,0.101,0.903
-0.209,0.036,1.098
-0.335,0.021,0.952
-0.324,0.102,0.833
-0.247,-0.022,0.999
-0.316,-0.022,0.954
-0.31,0.107,0.919
-0.195,0.021,1.007
-0.246,0.067,1.093
-0.344,0.107,0.828
-0.249,0.039,0.951
-0.292,-0.036,1.033
-0.331,0.077,0.859
-0.266,0.025,0.935
-0.263,0.01,1.02
-0.308,0.052,0.973
-0.246,0.159,0.934
-0.219,-0.008,1.094
-0.341,0.048,0.955
-0.303,0.064,0.825
-0.249,-0.021,1.059
-0.304,0.011,0.977
-0.289,0.096,0.894
-0.201,0.043,1.029
-0.268,0.021,1.059
-0.315,0.177,0.916
-0.249,-0.026,0.953
-0.305,-0.001,1.003
-0.368,0.052,0.817
-0.25,0.027,0.937
-0.248,-0.041,1.097
-0.279,0.112,0.953
-0.235,0.146,0.963
-0.245,0.01,1.055
-0.314,0.07,0.967
-0.33,0.035,0.803
-0.269,-0.027,0.995
-0.357,-0.01,0.924
-0.278,0.1,0.854
-0.18,0.001,1.14
-0.261,0.111,1.043
-0.284,0.127,0.914
-0.258,0.029,0.95
-0.318,-0.032,1.004
-0.358,0.098,0.836
-0.246,-0.031,0.893
-0.267,-0.031,1.069
-0.312,0.13,0.911
-0.219,0.075,0.997
-0.251,0.077,1.107
-0.34,0.039,0.893
-0.311,0.1,0.825
-0.286,-0.089,0.992
-0.34,0.042,0.92
-0.308,0.041,0.838
-0.193,-0.008,1.104
-0.28,0.088,1.023
-0.274,0.162,0.891
-0.231,0.023,1.068
-0.333,-0.025,0.947
-0.359,0.116,0.797
-0.262,-0.065,0.932
-0.27,-0.007,0.901
-0.318,0.08,0.963
-0.208,0.013,1.148
-0.226,0.134,0.887
-0.267,0.02,0.939
-0.278,-0.01,1.012
-0.346,0.015,0.876
-0.289,0.046,0.85
-0.219,-0.029,1.083
-0.279,0.088,1.037
-0.267,0.139,0.864
-0.21,-0.01,1.1
-0.338,0.065,0.944
-0.34,0.057,0.785
-0.262,0.003,0.971
-0.305,-0.055,0.984
-0.315,0.118,0.878
-0.218,0.028,0.979
-0.25,0.064,1.109
-0.322,0.116,0.901
-0.246,0.022,0.926
-0.304,0,1.048
-0.373,0.044,0.821
-0.264,0.039,0.92
-0.233,-0.026,1.068
-0.304,0.095,0.955
-0.275,0.097,0.885
-0.215,0.019,1.085
-0.329,0.014,0.968
-0.331,0.103,0.777
-0.239,-0.04,1.059
-0.341,0.023,0.942
-0.304,0.065,0.859
-0.194,0.035,1.062
-0.252,0.048,1.054
-0.338,0.155,0.876
-0.252,0.024,0.932
-0.296,-0.042,1.08
-0.348,0.086,0.805
-0.236,-0.009,0.947
-0.268,0.04,1.074
-0.301,0.044,0.918
-0.235,0.152,0.988
-0.211,0.006,1.081
-0.348,0.078,0.903
-0.357,0.065,0.772
-0.278,-0.038,1.022
-0.339,0.014,0.948
-0.294,0.057,0.84
-0.204,0.042,1.085
-0.299,0.049,0.991
-0.291,0.164,0.929
-0.245,0.008,0.976
-0.347,0.016,0.959
-0.379,0.04,0.816
-0.239,0.001,0.927
-0.261,-0.037,1.119
-0.311,0.119,0.882
-0.211,0.087,1.015
-0.241,0.073,1.069
-0.318,0.078,0.907
-0.299,0.064,0.871
-0.277,-0.028,0.991
-0.35,-0.003,0.911
-0.315,0.097,0.806
-0.2,-0.042,1.135
-0.292,0.1,0.992
-0.261,0.118,0.915
-0.235,0.069,1.055
-0.344,-0.007,0.953
-0.339,0.091,0.861
-0.249,-0.037,0.921
-0.296,-0.036,1.007
-0.336,0.094,0.885
-0.187,0.046,1.02
-0.211,0.061,1.149
-0.31,0.114,0.876
-0.288,0.097,0.917
-0.307,-0.046,0.99
-0.352,0.038,0.871
-0.31,0.039,0.849
-0.237,-0.025,1.053
-0.291,0.037,1.023
-0.256,0.177,0.888
-0.218,0.019,1.105
-0.338,0.061,0.948
-0.328,0.058,0.81
-0.269,0.008,0.968
-0.317,-0.031,0.968
-0.33,0.08,0.911
-0.21,0.035,0.969
-0.236,0.021,1.134
-0.324,0.172,0.881
-0.263,0.022,0.932
-0.317,0.022,1.006
-0.358,0.024,0.852
-0.287,0.067,0.896
-0.249,-0.058,1.034
-0.293,0.073,0.991
-0.263,0.129,0.9
-0.192,0.018,1.111
-0.323,0.067,0.972
-0.327,0.057,0.805
-0.248,-0.009,1.036
-0.307,0,0.886
-0.305,0.105,1.037
-0.222,0.037,1.067
-0.262,0.13,0.882
-0.223,0.048,0.931
-0.299,-0.022,1.05
-0.367,0.105,0.819
-0.257,-0.006,0.928
-0.265,-0.005,1.051
-0.29,0.052,0.962
-0.256,0.119,0.93
-0.227,0.036,1.086
-0.322,0.056,1.012
-0.313,0.091,0.787
-0.24,-0.062,1.05
-0.342,0.055,0.915
-0.311,0.042,0.839
-0.205,0.035,1.08
-0.252,0.033,1.061
-0.29,0.182,0.922
-0.244,0.019,0.967
-0.297,-0.012,1.048
-0.384,0.083,0.792
-0.279,-0.005,0.879
-0.287,0,1.057
-0.319,0.056,0.904
-0.198,0.085,1.024
-0.231,0.054,1.107
-0.325,0.123,0.934
-0.319,0.043,0.842
-0.253,-0.029,1.02
-0.331,0.023,0.961
-0.316,0.07,0.793
-0.208,-0.044,1.113
-0.289,0.097,1.012
-0.26,0.127,0.914
-0.206,0.069,1.071
-0.314,0.02,0.994
-0.369,0.087,0.812
-0.264,-0.02,0.87
-0.289,-0.04,1.058
-0.33,0.103,0.878
-0.191,0.009,1.006
-0.218,0.103,1.15
-0.28,0.102,0.939
-0.249,0.107,0.943
-0.282,-0.033,1.008
-0.388,0.06,0.863
-0.347,0.042,0.771
-0.223,-0.046,1.108
-0.293,0.057,1.004
-0.256,0.104,0.886
-0.178,0.073,1.176
-0.315,0.045,0.983
-0.324,0.113,0.837
-0.286,-0.019,0.92
-0.335,-0.026,0.943
-0.35,0.044,0.835
-0.213,0.045,0.97
-0.233,0.022,1.148
-0.307,0.162,0.892
-0.214,0.054,0.997
-0.29,0.013,1.071
-0.342,0.036,0.855
-0.312,0.07,0.868
-0.244,-0.051,1.056
-0.308,0.033,0.981
-0.245,0.151,0.915
-0.17,0,1.166
-0.307,0.109,0.963
-0.318,0.051,0.837
-0.237,0.034,1.049
-0.331,-0.018,0.972
-0.317,0.098,0.864
-0.215,-0.026,1.024
-0.239,0.023,1.074
-0.305,0.16,0.9
-0.201,0.038,0.999
-0.292,0.014,1.067
-0.353,0.046,0.829
-0.254,0.057,0.924
-0.288,-0.037,1.016
-0.328,0.059,0.898
-0.262,0.098,0.961
-0.19,0.029,1.119
-0.291,0.086,1.011
-0.294,0.109,0.841
-0.254,-0.039,1.048
-0.358,0.037,0.91
-0.284,0.055,0.842
-0.219,0.02,1.037
-0.284,0.012,1.027
-0.304,0.148,0.943
-0.2,0.059,0.99
-0.286,-0.015,1.05
-0.372,0.13,0.809
-0.255,-0.042,0.909
-0.289,-0.006,1.058
-0.311,0.017,0.905
-0.218,0.127,1.01
-0.23,0.019,1.113
-0.306,0.112,0.964
-0.29,0.107,0.871
-0.262,-0.055,1.034
-0.352,0.032,0.786
-0.31,0.043,1.1
-0.211,0.016,1.015
-0.284,0.173,0.904
-0.235,0.043,1.023
-0.291,0.035,1.005
-0.333,0.077,0.886
-0.257,0.006,0.893
-0.307,-0.05,0.988
-0.355,0.086,0.835
-0.22,0.019,0.984
-0.228,0.046,1.147
-0.272,0.132,0.946
-0.261,0.092,0.916
-0.277,-0.014,0.998
-0.342,0.018,0.938
-0.319,0.077,0.792
-0.242,-0.096,1.05
-0.3,0.086,1
-0.244,0.086,0.908
-0.168,0.088,1.15
-0.283,0.056,1.01
-0.339,0.111,0.848
-0.253,-0.028,0.917
-0.328,-0.034,0.966
-0.345,0.096,0.846
-0.231,-0.032,0.956
-0.229,0.043,1.119
-0.304,0.127,0.914
-0.217,0.105,0.99
-0.278,-0.025,1.081
-0.357,0.064,0.853
-0.3,0.026,0.818
-0.257,-0.046,1.022
-0.303,0.022,0.975
-0.277,0.108,0.879
-0.186,0.024,1.118
-0.297,0.078,1.03
-0.324,0.098,0.808
-0.234,-0.03,1.058
-0.322,0,0.935
-0.349,0.052,0.85
-0.228,0.01,0.979
-0.237,-0.001,1.109
-0.31,0.186,0.878
-0.223,0.003,0.954
-0.28,0.015,1.071
-0.345,0.049,0.831
-0.285,0.042,0.888
-0.271,-0.02,1.03
-0.315,0.035,0.919
-0.258,0.097,0.918
-0.198,-0.001,1.102
-0.301,0.117,0.985
-0.327,0.053,0.797
-0.234,-0.002,1.056
-0.344,0.005,0.951
-0.314,0.09,0.823
-0.213,-0.031,1.091
-0.272,0.044,1.028
-0.293,0.143,0.909
-0.225,0.05,0.963
-0.293,-0.005,1.041
-0.373,0.071,0.817
-0.243,0.003,0.894
-0.289,-0.032,1.074
-0.33,0.087,0.854
-0.223,0.049,1
-0.221,0.076,1.097
-0.317,0.081,0.924
-0.318,0.113,0.841
-0.282,-0.072,1.009
-0.369,0.034,0.917
-0.323,0.049,0.787
-0.205,-0.032,1.13
-0.27,0.058,1.03
-0.256,0.124,0.925
-0.201,0.089,1.068
-0.311,0.004,0.992
-0.358,0.107,0.799
-0.284,-0.035,0.878
-0.308,-0.017,1.031
-0.347,0.043,0.842
-0.196,0.067,0.988
-0.238,0.052,1.137
-0.313,0.124,0.916
-0.248,0.073,0.942
-0.294,-0.022,0.999
-0.364,0.032,0.855
-0.329,0.047,0.816
-0.223,-0.041,1.081
-0.272,0.032,1.025
-0.25,0.161,0.882
-0.178,0.033,1.15
-0.31,0.079,0.979
-0.318,0.059,0.832
-0.27,0.035,0.945
-0.345,-0.032,0.955
-0.359,0.078,0.852
-0.204,-0.009,0.994
-0.231,0.014,1.15
-0.29,0.167,0.903
-0.218,0.058,1
-0.3,0.027,1.021
-0.356,0.022,0.895
-0.302,0.066,1.016
-0.276,0.057,0.943
-0.319,0.126,0.918
-0.196,0.022,1.133
-0.313,0.075,0.974
-0.326,0.086,0.804
-0.256,0,1.016
-0.342,-0.001,0.928
-0.296,0.084,0.889
-0.219,0.013,0.999
-0.276,0.02,1.03
-0.335,0.139,0.909
-0.205,0.056,0.987
-0.279,-0.025,1.075
-0.367,0.105,0.796
-0.271,0.004,0.933
-0.279,-0.012,1.03
-0.28,0.03,0.973
-0.246,0.136,0.932
-0.231,0.009,1.067
-0.318,0.08,1.002
-0.304,0.099,0.801
-0.259,-0.05,1.037
-0.349,0.046,0.9
-0.316,0.033,0.837
-0.224,0.037,1.054
-0.27,0.008,1.027
-0.284,0.179,0.925
-0.222,0.026,0.941
-0.295,0.02,1.045
-0.373,0.094,0.855
-0.253,-0.002,0.908
-0.279,-0.01,1.051
-0.33,0.071,0.881
-0.227,0.08,0.989
-0.23,0.033,1.1
-0.276,0.102,0.996
-0.311,0.101,0.863
-0.257,-0.037,1.013
-0.347,0.019,0.95
-0.304,0.075,0.817
-0.229,-0.066,1.067
-0.277,0.079,1.009
-0.265,0.125,0.934
-0.183,0.084,1.069
-0.296,0.022,1.033
-0.366,0.107,0.853
-0.247,-0.034,0.897
-0.288,-0.027,1.063
-0.326,0.089,0.864
-0.207,0,0.994
-0.225,0.083,1.125
-0.292,0.098,0.926
-0.263,0.129,0.932
-0.29,-0.048,1.016
-0.354,0.067,0.907
-0.339,0.04,0.781
-0.226,-0.048,1.083
-0.302,0.036,1.033
-0.261,0.106,0.892
-0.171,0.062,1.145
-0.301,0.079,0.992
-0.344,0.112,0.824
-0.275,-0.027,0.931
-0.314,-0.03,0.971
-0.376,0.059,0.836
-0.223,0.011,0.955
-0.231,0.005,1.175
-0.29,0.162,0.922
-0.186,0.059,1.001
-0.271,0.058,1.085
-0.344,0.024,0.892
-0.322,0.091,0.804
-0.26,-0.081,1.002
-0.332,0.039,0.957
-0.266,0.066,0.866
-0.176,0.027,1.178
-0.28,0.134,1.024
-0.289,0.095,0.868
-0.242,0.051,1.054
-0.329,-0.04,0.915
-0.356,0.101,0.819
-0.221,-0.061,0.964
-0.241,0.03,1.127
-0.307,0.105,0.897
-0.192,0.097,1.001
-0.279,0.049,1.096
-0.344,0.082,0.867
-0.25,0.048,0.955
-0.29,-0.019,0.988
-0.342,0.022,0.894
-0.296,0.061,0.866
-0.164,-0.005,1.162
-0.289,0.085,1.004
-0.267,0.155,0.86
-0.217,-0.017,1.122
-0.326,0.051,0.941
-0.33,0.05,0.822
-0.256,0.015,0.96
-0.312,-0.063,0.983
-0.324,0.145,0.865
-0.19,0.041,1.041
-0.226,0.067,0.895
-0.329,0.107,0.952
-0.235,0.016,1.017
-0.285,0.016,0.86
-0.25,0.097,0.894
-0.236,-0.057,1.057
-0.31,0.113,0.972
-0.268,0.117,0.908
-0.196,0.025,1.142
-0.329,0.009,0.963
-0.316,0.093,0.771
-0.256,-0.017,1.034
-0.324,0.005,0.973
-0.305,0.079,0.906
-0.223,0.04,0.992
-0.269,0.05,1.063
-0.331,0.151,0.868
-0.231,0.02,0.945
-0.306,-0.035,1.039
-0.344,0.071,0.822
-0.24,0.012,0.975
-0.256,0.02,1.038
-0.301,0.038,0.953
-0.254,0.163,0.919
-0.209,-0.026,1.101
-0.335,0.1,0.965
-0.305,0.053,0.831
-0.24,-0.026,1.06
-0.313,0.015,0.941
-0.306,0.098,0.846
-0.213,0.025,1.055
-0.274,0.011,1.057
-0.295,0.183,0.913
-0.212,0,0.984
-0.284,0.01,1.045
-0.369,0.068,0.82
-0.242,0.013,0.935
-0.252,-0.034,1.099
-0.294,0.086,0.917
-0.247,0.107,0.947
-0.241,0.034,1.068
-0.318,0.085,0.994
-0.308,0.086,0.836
-0.238,-0.056,1.054
-0.356,0.03,0.921
-0.29,0.065,0.858
-0.196,-0.02,1.137
-0.254,0.072,1.034
-0.278,0.143,0.916
-0.223,0.065,0.987
-0.29,-0.031,1.039
-0.346,0.129,0.852
-0.249,-0.044,0.901
-0.281,-0.002,1.057
-0.332,0.053,0.876
-0.209,0.074,1.004
-0.218,0.06,1.121
-0.309,0.113,0.928
-0.291,0.103,0.901
-0.269,-0.066,1.009
-0.346,0.05,0.929
-0.315,0.04,0.797
-0.212,-0.026,1.087
-0.292,0.042,1.034
-0.242,0.156,0.916
-0.187,0.039,1.111
-0.297,0.068,0.968
-0.364,0.086,0.833
-0.269,-0.007,0.902
-0.295,-0.05,1.039
-0.354,0.089,0.831
-0.223,-0.007,0.971
-0.224,0.043,1.147
-0.291,0.149,0.931
-0.238,0.099,0.972
-0.275,0.01,1.033
-0.355,0.006,0.892
-0.31,0.077,0.804
-0.235,-0.085,1.082
-0.3,0.08,1.008
-0.252,0.065,0.882
-0.177,0.074,1.135
-0.289,0.065,1.001
-0.341,0.118,0.813
-0.264,-0.025,0.953
-0.347,-0.018,0.937
-0.376,0.088,0.82
-0.239,-0.037,0.966
-0.226,0.029,1.138
-0.307,0.121,0.903
-0.205,0.108,0.981
-0.274,0.021,1.107
-0.348,0.08,0.856
-0.291,0.022,0.861
-0.264,-0.031,0.996
-0.319,0.013,0.964
-0.267,0.101,0.869
-0.178,0.002,1.138
-0.292,0.117,0.998
-0.291,0.099,0.833
-0.246,0.001,1.058
-0.344,0.018,0.926
-0.362,0.06,0.823
-0.235,-0.017,1.062
-0.245,-0.023,0.889
-0.316,0.015,0.968
-0.224,0.054,1.083
-0.35,0.05,0.836
-0.266,0.069,0.921
-0.294,-0.037,1.016
-0.348,0.027,0.875
-0.25,0.056,0.927
-0.212,-0.002,1.104
-0.314,0.106,0.976
-0.3,0.107,0.847
-0.235,-0.005,1.098
-0.338,0.005,0.952
-0.308,0.082,0.806
-0.255,-0.026,1.041
-0.291,0.02,0.99
-0.298,0.107,0.935
-0.178,0.082,1.038
-0.269,0.007,1.053
-0.364,0.118,0.846
-0.23,-0.017,0.938
-0.29,0.018,1.056
-0.326,0.046,0.876
-0.251,0.055,0.961
-0.233,0,1.051
-0.299,0.086,0.977
-0.253,0.141,0.915
-0.246,-0.052,1.056
-0.355,0.059,0.916
-0.348,0.054,0.762
-0.245,-0.02,1.048
-0.311,-0.012,0.996
-0.283,0.133,0.889
-0.208,0.044,1.071
-0.279,0.068,1.014
-0.334,0.112,0.902
-0.255,-0.02,0.912
-0.309,-0.018,0.998
-0.378,0.054,0.817
-0.224,0.022,0.984
-0.238,-0.013,1.115
-0.276,0.128,0.952
-0.231,0.116,0.959
-0.267,0.026,1.025
-0.356,0.008,0.91
-0.334,0.091,0.771
-0.276,-0.074,1.01
-0.33,0.02,0.944
-0.259,0.078,0.876
-0.188,0.041,1.142
-0.283,0.088,1.001
-0.327,0.115,0.849
-0.269,0.02,0.931
-0.333,-0.06,0.957
-0.369,0.106,0.822
-0.255,-0.051,0.922
-0.245,0.014,1.11
-0.276,0.106,0.938
-0.201,0.12,1.017
-0.234,0.011,1.103
-0.342,0.072,0.882
-0.317,0.066,0.832
-0.308,-0.056,0.963
-0.345,0.011,0.934
-0.308,0.049,0.792
-0.193,0.004,1.111
-0.289,0.093,1.016
-0.279,0.146,0.878
-0.232,-0.015,1.062
-0.309,0.034,0.952
-0.35,0.058,0.833
-0.243,-0.007,0.933
-0.276,-0.06,1.042
-0.316,0.135,0.915
-0.189,0.027,0.983
-0.23,0.083,1.129
-0.344,0.098,0.849
-0.313,0.038,0.867
-0.293,-0.032,0.998
-0.35,0.002,0.894
-0.292,0.079,0.871
-0.222,-0.054,1.074
-0.271,0.108,1.056
-0.269,0.119,0.876
-0.208,0.034,1.109
-0.337,0.02,0.957
-0.344,0.102,0.797
-0.24,-0.045,1.005
-0.289,0.001,0.996
-0.317,0.096,0.895
-0.225,0.041,0.983
-0.222,0.039,1.154
-0.337,0.118,0.869
-0.238,0.044,0.928
-0.306,-0.029,1.005
-0.359,0.063,0.835
-0.278,0.013,0.917
-0.244,0.009,1.064
-0.282,0.058,1.016
-0.268,0.159,0.87
-0.208,-0.032,1.097
-0.333,0.078,0.969
-0.321,0.051,0.773
-0.276,-0.018,0.909
-0.35,0.086,0.836
-0.341,0.049,1.037
-0.267,0.03,1.069
-0.333,0.166,0.871
-0.26,-0.024,0.915
-0.301,0.019,1.047
-0.363,0.042,0.804
-0.249,0.033,0.913
-0.285,-0.007,1.067
-0.317,0.083,0.915
-0.247,0.122,0.959
-0.234,0.026,1.07
-0.337,0.06,0.931
-0.361,0.048,0.733
-0.248,-0.025,1.069
-0.343,0,0.918
-0.298,0.094,0.828
-0.203,0.015,1.114
-0.28,0.085,1.011
-0.307,0.13,0.901
-0.259,0.047,0.964
-0.3,-0.05,1.032
-0.382,0.083,0.793
-0.228,-0.018,0.946
-0.268,0.008,1.088
-0.299,0.066,0.906
-0.205,0.09,1
-0.238,0.079,1.095
-0.337,0.053,0.917
-0.314,0.105,0.846
-0.27,-0.09,0.996
-0.355,0.045,0.894
-0.309,0.039,0.815
-0.185,0.024,1.167
-0.288,0.06,1.016
-0.275,0.159,0.89
-0.224,0.046,1.051
-0.337,0.017,0.958
-0.36,0.07,0.835
-0.255,-0.032,0.913
-0.271,-0.022,1.053
-0.34,0.073,0.853
-0.185,0.082,1.038
-0.241,0.032,1.107
-0.309,0.147,0.904
-0.275,0.053,0.95
-0.306,0,0.965
-0.362,-0.006,0.87
-0.316,0.09,0.839
-0.214,-0.096,1.081
-0.316,0.09,0.956
-0.27,0.154,0.872
-0.216,0.054,1.11
-0.312,0.045,0.976
-0.303,0.06,0.853
-0.269,0.035,0.933
-0.332,-0.062,0.949
-0.351,0.115,0.865
-0.197,-0.03,0.976
-0.238,0.087,1.116
-0.332,0.126,0.898
-0.242,0.067,0.976
-0.289,-0.025,1.031
-0.336,0.049,0.827
-0.295,0.062,0.876
-0.268,-0.058,1.017
-0.295,0.048,1.01
-0.254,0.128,0.892
-0.188,0.045,1.146
-0.313,0.056,0.992
-0.31,0.098,0.805
-0.241,-0.027,1.039
-0.33,0.021,0.918
-0.33,0.056,0.864
-0.246,0.034,0.924
-0.254,0.001,1.099
-0.319,0.184,0.929
-0.209,0.016,0.97
-0.305,0.015,1.026
-0.386,0.081,0.793
-0.306,0.022,0.88
-0.261,-0.009,1.049
-0.295,0.025,0.964
-0.264,0.144,0.887
-0.213,-0.021,1.101
-0.296,0.108,1.032
-0.298,0.057,0.83
-0.251,-0.001,1.042
-0.352,0.023,0.95
-0.297,0.072,0.858
-0.201,-0.024,1.098
-0.248,0.044,1.059
-0.304,0.165,0.926
-0.229,0.038,0.927
-0.294,0.027,1.086
-0.374,0.071,0.836
-0.23,0.002,0.926
-0.277,-0.025,1.077
-0.322,0.096,0.879
-0.223,0.056,0.998
-0.22,0.057,1.1
-0.284,0.054,0.972
-0.324,0.151,1.087
-0.27,-0.056,0.936
-0.361,0.042,0.813
-0.313,-0.018,1.105
-0.273,0.058,1.026
-0.279,0.13,0.927
-0.203,0.079,1.052
-0.289,-0.023,1.002
-0.381,0.142,0.787
-0.256,-0.049,0.892
-0.293,0.009,1.075
-0.349,0.026,0.839
-0.216,0.072,0.988
-0.228,0.037,1.139
-0.271,0.128,0.973
-0.26,0.102,0.911
-0.276,-0.023,1.013
-0.347,0.027,0.918
-0.329,0.049,0.778
-0.206,-0.036,1.097
-0.303,0.042,1
-0.259,0.114,0.897
-0.184,0.053,1.13
-0.305,0.096,0.975
-0.366,0.081,0.832
-0.268,0.01,0.937
-0.305,-0.068,0.997
-0.364,0.094,0.794
-0.217,-0.028,0.962
-0.234,0.05,1.15
-0.288,0.121,0.923
-0.2,0.103,1.01
-0.276,0.04,1.059
-0.367,0.011,0.856
-0.319,0.084,0.828
-0.234,-0.106,1.054
-0.322,0.072,0.949
-0.272,0.083,0.886
-0.172,0.065,1.175
-0.271,0.066,1.043
-0.293,0.126,0.853
-0.249,-0.002,1.02
-0.352,-0.001,0.897
-0.362,0.066,0.818
-0.226,-0.018,0.972
-0.259,0.009,1.093
-0.308,0.132,0.918
-0.182,0.083,1.007
-0.248,0.032,1.133
-0.328,0.084,0.874
-0.273,0.034,0.886
-0.31,-0.018,0.955
-0.348,-0.003,0.903
-0.275,0.11,0.909
-0.167,-0.016,1.141
-0.299,0.124,0.968
-0.295,0.113,0.835
-0.233,-0.005,1.091
-0.33,0.013,0.947
-0.334,0.08,0.814
-0.255,0.008,0.962
-0.312,-0.028,0.996
-0.298,0.153,0.931
-0.186,0.02,1.017
-0.269,0.06,1.077
-0.362,0.071,0.83
-0.261,0.05,0.914
-0.304,-0.037,1.019
-0.333,0.053,0.869
-0.269,0.057,0.929
-0.238,-0.007,1.062
-0.283,0.1,1.006
-0.27,0.121,0.904
-0.223,-0.025,1.079
-0.348,0,0.947
-0.311,0.091,0.804
-0.233,-0.025,1.083
-0.287,0.025,0.979
-0.298,0.099,0.909
-0.195,0.072,0.993
-0.278,0.021,1.044
-0.352,0.13,0.888
-0.247,-0.034,0.913
-0.292,-0.01,1.04
-0.338,0.08,0.858
-0.235,0.038,0.99
-0.231,-0.001,1.071
-0.29,0.088,0.955
-0.268,0.163,0.891
-0.257,-0.044,1.051
-0.331,0.062,0.943
-0.325,0.033,0.775
-0.25,-0.018,1.025
-0.316,-0.008,0.966
-0.275,0.128,0.883
-0.202,0.046,1.11
-0.288,0.07,1.006
-0.326,0.116,0.889
-0.263,-0.016,0.915
-0.314,-0.026,0.976
-0.368,0.064,0.856
-0.235,-0.007,0.912
-0.245,-0.009,1.104
-0.299,0.168,0.976
-0.233,0.086,1.052
-0.252,0.024,0.902
-0.344,0.096,0.801
-0.276,-0.098,0.998
-0.315,0.025,0.986
-0.282,0.075,0.845
-0.17,0.019,1.155
-0.286,0.118,1.004
-0.303,0.121,0.887
-0.25,0.005,1.003
-0.313,-0.045,0.941
-0.377,0.115,0.8
-0.256,-0.066,0.914
-0.259,0.006,1.083
-0.303,0.107,0.915
-0.192,0.095,0.997
-0.249,0.039,1.146
-0.346,0.09,0.864
-0.283,0.051,0.896
-0.284,-0.047,0.991
-0.332,0.022,0.927
-0.31,0.066,0.831
-0.204,-0.009,1.087
-0.286,0.084,1.048
-0.267,0.143,0.842
-0.221,0.001,1.099
-0.34,0.053,0.922
-0.365,0.051,0.794
-0.24,-0.012,0.967
-0.278,-0.042,1.026
-0.327,0.136,0.894
-0.204,0.034,0.996
-0.231,0.048,1.167
-0.313,0.108,0.886
-0.253,0.032,0.918
-0.311,0.005,0.99
-0.364,0.004,0.839
-0.271,0.068,0.894
-0.217,-0.032,1.072
-0.306,0.128,0.978
-0.301,0.1,0.845
-0.233,0,1.1
-0.33,0.025,0.974
-0.329,0.087,0.783
-0.241,-0.016,1.025
-0.335,0.001,0.93
-0.317,0.083,0.867
-0.206,0.044,1.032
-0.247,0.046,1.085
-0.358,0.114,0.857
-0.24,0.022,0.908
-0.292,-0.023,1.079
-0.347,0.063,0.819
-0.244,0.004,0.942
-0.246,0.036,1.06
-0.292,0.058,0.954
-0.256,0.159,0.913
-0.231,-0.025,1.049
-0.358,0.049,0.915
-0.34,0.07,0.771
-0.234,-0.047,1.093
-0.321,0.029,0.944
-0.291,0.063,0.857
-0.194,0.072,1.094
-0.279,0.046,1.012
-0.326,0.18,0.903
-0.258,-0.027,0.942
-0.314,-0.006,0.998
-0.367,0.049,0.825
-0.229,0.02,0.943
-0.259,-0.012,1.115
-0.302,0.11,0.91
-0.226,0.122,0.984
-0.253,0.032,1.032
-0.33,0.06,0.928
-0.326,0.055,0.825
-0.254,-0.047,1.015
-0.336,0.006,0.942
-0.283,0.102,0.845
-0.192,-0.005,1.152
-0.27,0.1,1.017
-0.285,0.122,0.893
-0.261,0.06,0.97
-0.331,-0.045,0.965
-0.371,0.094,0.828
-0.249,-0.05,0.902
-0.277,-0.018,1.084
-0.316,0.114,0.881
-0.188,0.072,1.035
-0.241,0.057,1.084
-0.316,0.077,0.913
-0.293,0.106,0.88
-0.307,-0.067,0.95
-0.354,0.035,0.889
-0.314,0.04,0.817
-0.188,-0.018,1.121
-0.281,0.082,1.033
-0.268,0.178,0.894
-0.223,0.028,1.098
-0.313,0.019,0.988
-0.328,0.078,0.829
-0.266,0,0.926
-0.293,-0.058,1.012
-0.333,0.095,1.024
-0.168,0.039,1.124
-0.234,0.172,0.876
-0.328,0.039,0.917
-0.307,0.022,1.02
-0.347,-0.005,0.865
-0.327,0.105,0.829
-0.26,-0.097,1.031
-0.286,0.09,1.051
-0.239,0.121,0.885
-0.184,0.038,1.117
-0.33,0.079,0.941
-0.338,0.058,0.811
-0.243,-0.002,0.996
-0.315,-0.032,0.955
-0.33,0.112,0.897
-0.208,-0.025,0.978
-0.222,0.055,1.137
-0.298,0.151,0.925
-0.217,0.06,0.966
-0.283,-0.01,1.076
-0.351,0.099,0.854
-0.294,0.02,0.873
-0.253,-0.032,1.047
-0.29,0.022,0.978
-0.288,0.135,0.842
-0.196,0.013,1.136
-0.31,0.077,1.011
-0.315,0.11,0.812
-0.238,-0.039,1.05
-0.342,0.05,0.902
-0.328,0.047,0.832
-0.233,0.034,1.014
-0.25,-0.023,1.082
-0.309,0.198,0.901
-0.197,0.005,0.96
-0.287,0.052,1.092
-0.357,0.069,0.832
-0.258,0.018,0.908
-0.259,0.001,1.074
-0.318,0.038,0.935
-0.254,0.095,0.951
-0.209,-0.002,1.089
-0.273,0.105,1.017
-0.303,0.075,0.808
-0.229,0.015,1.077
-0.344,0.014,0.961
-0.322,0.078,0.808
-0.21,-0.025,1.087
-0.287,0.063,0.996
-0.288,0.132,0.926
-0.212,0.063,0.995
-0.277,-0.015,1.044
-0.386,0.111,0.792
-0.255,-0.001,0.903
-0.309,-0.006,1.068
-0.315,0.061,0.887
-0.208,0.039,1.001
-0.238,0.091,1.106
-0.31,0.073,0.948
-0.299,0.14,0.855
-0.242,-0.078,1.06
-0.353,0.075,0.911
-0.328,0.037,0.784
-0.214,-0.019,1.123
-0.281,0.026,1.034
-0.245,0.126,0.927
-0.198,0.102,1.1
-0.301,0.018,0.984
-0.366,0.118,0.808
-0.269,-0.046,0.918
-0.277,-0.005,1.071
-0.348,0.041,0.83
-0.202,0.06,0.976
-0.228,0.022,1.159
-0.269,0.139,0.95
-0.225,0.097,0.975
-0.281,0.027,0.997
-0.367,0.012,0.867
-0.355,0.074,0.771
-0.221,-0.076,1.059
-0.307,0.041,0.991
-0.264,0.119,0.86
-0.188,0.046,1.133
-0.283,0.097,1.014
-0.314,0.084,0.841
-0.282,0.045,0.926
-0.339,-0.061,0.969
-0.366,0.105,0.842
-0.195,-0.062,0.988
-0.245,0.049,1.111
-0.29,0.104,0.935
-0.194,0.111,1.013
-0.269,0.048,1.068
-0.352,0.055,0.865
-0.313,0.061,0.834
-0.281,-0.082,0.972
-0.336,0.037,0.916
-0.269,0.065,0.891
-0.157,0.029,1.166
-0.285,0.077,1.016
-0.28,0.162,0.889
-0.236,0.001,1.076
-0.324,0.019,0.955
-0.325,0.057,0.874
-0.242,-0.003,1.088
-0.267,-0.041,0.956
-0.3,0.061,1.055
-0.151,0.055,1.122
-0.32,0.119,0.863
-0.265,0.032,0.925
-0.291,-0.002,0.988
-0.338,-0.004,0.914
-0.287,0.105,0.871
-0.193,-0.056,1.102
-0.282,0.137,1.035
-0.258,0.111,0.888
-0.211,0.008,1.109
-0.317,0.022,0.972
-0.326,0.097,0.818
-0.252,-0.014,0.972
-0.291,-0.038,0.994
-0.324,0.12,0.891
-0.208,0.036,0.997
-0.248,0.068,1.141
-0.332,0.098,0.922
-0.23,0.033,0.962
-0.273,-0.038,1.042
-0.335,0.097,0.869
-0.27,0.025,0.925
-0.238,-0.018,1.037
-0.286,0.076,1.001
-0.271,0.163,0.873
-0.233,-0.017,1.085
-0.342,0.054,0.981
-0.299,0.063,0.816
-0.235,-0.018,1.046
-0.311,0.03,0.947
-0.321,0.083,0.874
-0.211,0.038,1.008
-0.248,0.023,1.112
-0.32,0.182,0.888
-0.247,-0.032,0.937
-0.29,0.006,1.044
-0.352,0.058,0.856
-0.233,0.031,0.956
-0.227,-0.031,1.085
-0.317,0.101,0.889
-0.28,0.13,0.908
-0.23,-0.002,1.108
-0.311,0.057,0.987
-0.322,0.056,0.792
-0.247,-0.024,1.031
-0.329,0.009,0.969
-0.286,0.092,0.843
-0.188,0.004,1.129
-0.263,0.09,1.011
-0.327,0.13,0.868
-0.238,0.038,0.987
-0.289,-0.054,1.046
-0.375,0.102,0.8
-0.25,-0.03,0.883
-0.272,0.01,1.111
-0.305,0.066,0.91
-0.228,0.095,0.979
-0.229,0.061,1.081
-0.327,0.064,0.937
-0.297,0.099,0.84
-0.249,-0.088,1.02
-0.341,0.06,0.935
-0.318,0.018,0.78
-0.193,0.03,1.125
-0.289,0.065,1.047
-0.252,0.163,0.928
-0.206,0.028,1.048
-0.325,0.015,0.972
-0.382,0.077,0.797
-0.269,-0.015,0.902
-0.282,-0.036,1.058
-0.341,0.075,0.867
-0.186,0.071,1.011
-0.222,0.055,1.153
-0.309,0.12,0.917
-0.29,0.071,0.871
-0.296,-0.008,0.987
-0.389,0.01,0.859
-0.319,0.072,0.803
-0.209,-0.088,1.092
-0.31,0.07,1.008
-0.262,0.123,0.885
-0.194,0.089,1.145
-0.301,0.022,0.957
-0.356,0.093,0.817
-0.265,-0.008,0.933
-0.318,-0.049,0.979
-0.335,0.093,0.86
-0.204,-0.015,0.999
-0.213,0.054,1.172
-0.295,0.115,0.917
-0.238,0.12,0.941
-0.318,-0.002,1.009
-0.355,0.041,0.86
-0.311,0.036,0.834
-0.253,-0.059,1.039
-0.309,0.008,0.96
-0.279,0.125,0.877
-0.16,0.02,1.184
-0.28,0.092,1.026
-0.303,0.129,0.856
-0.262,-0.005,0.964
-0.334,-0.015,0.835
-0.353,-0.008,0.943
-0.238,-0.026,1.048
-0.339,0.18,0.939
-0.184,0.028,1.02
-0.258,0.061,1.094
-0.349,0.045,0.858
-0.305,0.085,0.874
-0.272,-0.086,0.985
-0.331,0.031,0.922
-0.279,0.071,0.869
-0.206,-0.014,1.075
-0.283,0.099,1.042
-0.284,0.131,0.863
-0.22,0.013,1.116
-0.314,-0.028,0.957
-0.331,0.114,0.817
-0.251,-0.048,0.965
-0.286,0.019,1.027
-0.285,0.107,0.947
-0.196,0.079,0.973
-0.264,0.007,1.078
-0.353,0.122,0.879
-0.237,0.015,0.948
-0.295,-0.007,1.024
-0.321,0.042,0.893
-0.287,0.058,0.913
-0.231,-0.011,1.053
-0.277,0.074,1.019
-0.285,0.153,0.856
-0.258,-0.064,1.034
-0.355,0.076,0.94
-0.319,0.032,0.783
-0.246,-0.004,1.024
-0.292,-0.022,1.005
-0.304,0.137,0.904
-0.189,0.015,1.024
-0.255,0.038,1.065
-0.346,0.134,0.871
-0.264,-0.025,0.895
-0.289,-0.007,1.057
-0.346,0.048,0.855
-0.251,0.071,0.948
-0.24,-0.036,1.096
-0.284,0.122,0.964
-0.263,0.112,0.902
-0.242,0.015,1.06
-0.334,-0.003,0.976
-0.335,0.092,0.758
-0.231,-0.059,1.066
-0.313,0.048,0.996
-0.273,0.082,0.898
-0.187,0.031,1.084
-0.279,0.071,0.987
-0.339,0.125,0.874
-0.269,-0.001,0.892
-0.294,-0.058,1.033
-0.368,0.098,0.819
-0.235,-0.04,0.922
-0.25,0.062,1.146
-0.225,0.065,1.144
-0.293,0.105,0.938
-0.292,0.12,0.874
-0.267,-0.012,1.021
-0.359,0.008,0.91
-0.317,0.077,0.779
-0.231,-0.079,1.071
-0.284,0.076,1.056
-0.239,0.09,0.919
-0.183,0.107,1.123
-0.289,0.039,1.006
-0.361,0.122,0.835
-0.257,-0.041,0.959
-0.31,-0.02,0.988
-0.359,0.082,0.839
-0.228,-0.028,0.967
-0.194,0.04,1.199
-0.281,0.107,0.911
-0.226,0.143,0.975
-0.289,-0.012,0.862
-0.373,0.06,0.851
-0.307,-0.044,1.05
-0.233,0.009,0.99
-0.278,0.106,0.87
-0.167,0.024,1.163
-0.283,0.094,1.011
-0.303,0.12,0.833
-0.258,-0.013,1.008
-0.335,-0.008,0.906
-0.364,0.055,0.831
-0.225,0.002,0.989
-0.244,-0.022,1.1
-0.312,0.172,0.894
-0.207,0.052,0.979
-0.271,0.057,1.123
-0.329,0.032,0.851
-0.284,0.062,0.864
-0.283,-0.025,1.006
-0.329,0.023,0.918
-0.241,0.099,0.925
-0.201,-0.007,1.088
-0.302,0.109,0.997
-0.298,0.072,0.828
-0.228,0.013,1.089
-0.337,-0.016,0.922
-0.328,0.089,0.793
-0.244,-0.028,1.007
-0.288,0.028,1.018
-0.3,0.145,0.917
-0.216,0.049,0.962
-0.293,0.005,1.019
-0.379,0.064,0.814
-0.232,0.018,0.919
-0.286,-0.016,1.084
-0.311,0.062,0.907
-0.242,0.075,0.977
-0.225,0.052,1.075
-0.293,0.058,0.992
-0.289,0.112,0.856
-0.256,-0.058,1.012
-0.353,0.035,0.915
-0.306,0.064,0.802
-0.218,-0.017,1.116
-0.281,0.02,1.021
-0.272,0.14,0.913
-0.208,0.087,1.036
-0.313,-0.01,0.987
-0.364,0.11,0.829
-0.269,-0.064,0.87
-0.299,-0.016,1.029
-0.344,0.061,0.869
-0.199,0.054,1.018
-0.221,0.035,1.109
-0.303,0.124,0.914
-0.278,0.102,0.917
-0.286,-0.027,0.973
-0.371,0.016,0.869
-0.333,0.061,0.803
-0.233,-0.045,1.055
-0.303,0.024,1.029
-0.245,0.174,0.925
-0.172,0.025,1.157
-0.29,0.081,0.996
-0.338,0.07,0.836
-0.282,0.016,0.9
-0.334,-0.059,0.944
-0.358,0.077,0.864
-0.217,-0.018,0.934
-0.245,0.039,1.125
-0.301,0.168,0.912
-0.23,0.063,0.984
-0.271,0.012,1.018
-0.368,0.014,0.802
-0.332,0.088,0.816
-0.286,-0.095,0.976
-0.299,0.049,0.986
-0.273,0.115,0.896
-0.181,0.042,1.141
-0.316,0.083,0.987
-0.32,0.101,0.852
-0.257,-0.021,0.995
-0.33,0.006,0.929
-0.338,0.076,0.844
-0.234,-0.013,0.952
-0.26,0.024,1.107
-0.306,0.137,0.932
-0.205,0.072,0.971
-0.291,-0.01,1.077
-0.36,0.125,0.821
-0.283,0.004,0.912
-0.273,-0.013,1.017
-0.327,0.029,0.911
-0.289,0.113,0.874
-0.227,0.014,1.071
-0.3,0.064,1.014
-0.302,0.1,0.806
-0.255,-0.045,1.038
-0.34,0.072,0.957
-0.31,0.028,0.856
-0.208,0.043,1.058
-0.274,0.025,1.03
-0.31,0.184,0.894
-0.245,0.009,0.943
-0.29,0.014,0.791
-0.383,0.09,0.916
-0.268,-0.028,1.094
-0.262,0.041,0.909
-0.206,0.108,1.025
-0.208,0.026,1.111
-0.301,0.104,0.944
-0.334,0.082,0.827
-0.252,-0.035,1.024
-0.338,0.006,0.943
-0.307,0.071,0.779
-0.222,-0.025,1.1
-0.283,0.09,1.037
-0.265,0.134,0.935
-0.198,0.061,1.071
-0.305,0.015,0.992
-0.379,0.086,0.81
-0.252,-0.02,0.882
-0.271,-0.049,1.088
-0.306,0.105,0.877
-0.184,0.022,1.021
-0.211,0.12,1.166
-0.294,0.102,0.928
-0.255,0.104,0.935
-0.281,-0.037,0.982
-0.37,0.045,0.885
-0.32,0.042,0.809
-0.204,-0.05,1.113
-0.291,0.079,1.006
-0.265,0.114,0.883
-0.175,0.079,1.16
-0.319,0.041,1.006
-0.331,0.105,0.83
-0.271,-0.02,0.934
-0.33,-0.033,0.956
-0.359,0.07,0.843
-0.178,0.033,1.012
-0.204,0.033,1.181
-0.298,0.155,0.914
-0.22,0.069,0.998
-0.3,0.008,1.061
-0.348,0.04,0.847
-0.312,0.04,0.841
-0.263,-0.033,1.02
-0.332,0.032,0.97
-0.263,0.144,0.898
-0.152,-0.007,1.17
-0.304,0.103,1.005
-0.301,0.062,0.838
-0.242,0.039,1.06
-0.317,-0.045,0.943
-0.334,0.097,0.857
-0.212,-0.013,0.989
-0.242,0.022,1.111
-0.316,0.169,0.912
-0.194,0.026,1.01
-0.281,0.024,1.083
-0.351,0.041,0.85
-0.243,0.064,0.941
-0.275,-0.042,1.036
-0.316,0.055,0.936
-0.262,0.099,0.93
-0.2,0.045,1.102
-0.31,0.073,0.981
-0.309,0.106,0.846
-0.222,-0.033,1.088
-0.339,0.026,0.925
-0.305,0.08,0.832
-0.234,0.008,1.046
-0.29,0.001,1.022
-0.295,0.14,0.911
-0.203,0.057,0.966
-0.289,-0.013,1.049
-0.363,0.12,0.826
-0.253,-0.035,0.907
-0.279,0.014,1.045
-0.315,0.023,0.894
-0.241,0.113,0.984
-0.235,-0.011,1.082
-0.29,0.118,0.971
-0.279,0.11,0.888
-0.246,-0.047,1.049
-0.352,0.035,0.925
-0.322,0.06,0.791
-0.213,0.002,1.102
-0.28,0.01,1.034
-0.284,0.167,0.883
-0.225,0.025,1.013
-0.28,0.046,1.044
-0.337,0.073,0.891
-0.242,0.006,0.895
-0.302,-0.041,1.017
-0.344,0.089,0.863
-0.214,0.018,0.991
-0.218,0.048,1.133
-0.274,0.108,0.955
-0.277,0.132,0.905
-0.243,-0.03,1.051
-0.345,0.012,0.941
-0.31,0.079,0.789
-0.226,-0.09,1.049
-0.294,0.082,1.019
-0.251,0.076,0.933
-0.175,0.094,1.006
-0.267,0.043,0.867
-0.347,-0.038,0.943
-0.248,-0.005,0.979
-0.353,0.08,0.839
-0.224,-0.029,0.937
-0.223,0.016,1.153
-0.277,0.132,0.968
-0.209,0.128,0.998
-0.271,0,1.04
-0.356,0.071,0.861
-0.348,0.035,0.775
-0.26,-0.04,1.028
-0.32,-0.016,0.99
-0.286,0.108,0.841
-0.17,0.008,1.15
-0.277,0.132,1.046
-0.29,0.117,0.889
-0.244,-0.013,0.988
-0.327,-0.014,0.923
-0.381,0.085,0.793
-0.239,-0.026,0.941
-0.255,-0.027,1.137
-0.298,0.149,0.902
-0.185,0.049,1.003
-0.258,0.087,1.126
-0.347,0.037,0.869
-0.303,0.09,0.885
-0.264,-0.074,1.021
-0.332,0.051,0.919
-0.288,0.046,0.859
-0.206,-0.008,1.102
-0.274,0.099,1.052
-0.278,0.12,0.849
-0.215,0.032,1.089
-0.35,0.001,0.929
-0.362,0.105,0.82
-0.238,-0.079,0.984
-0.277,0.018,1.012
-0.326,0.097,0.883
-0.208,0.074,0.987
-0.239,0.006,1.139
-0.341,0.12,0.847
-0.253,0.028,0.936
-0.307,0.013,1.047
-0.349,0.015,0.872
-0.273,0.047,0.898
-0.208,0.004,1.107
-0.297,0.081,0.991
-0.265,0.146,0.879
-0.236,-0.04,1.077
-0.355,0.062,0.917
-0.325,0.037,0.791
-0.232,0.015,1.05
-0.302,-0.039,0.992
-0.284,0.137,0.912
-0.185,0.039,1.051
-0.252,0.046,1.053
-0.35,0.118,0.839
-0.271,-0.005,0.91
-0.277,-0.006,1.088
-0.337,0.035,0.855
-0.222,0.07,0.983
-0.249,-0.012,1.077
-0.299,0.13,0.946
-0.258,0.098,0.928
-0.256,0.005,1.013
-0.373,0.016,0.906
-0.339,0.077,0.769
-0.218,-0.067,1.096
-0.309,0.036,0.993
-0.281,0.098,0.874
-0.206,0.056,1.088
-0.284,0.055,1.022
-0.327,0.118,0.89
-0.249,0.015,0.93
-0.333,-0.049,0.976
-0.381,0.084,0.795
-0.237,-0.036,0.95
-0.26,0.035,1.119
-0.267,0.065,0.954
-0.211,0.153,1.002
-0.266,0.015,1.032
-0.361,0.062,0.865
-0.341,0.053,0.813
-0.299,-0.062,0.951
-0.338,0.009,0.96
-0.274,0.079,0.886
-0.168,0.024,1.159
-0.273,0.067,1.028
-0.294,0.177,0.893
-0.256,-0.005,0.991
-0.337,0.011,0.936
-0.372,0.043,0.819
-0.255,-0.007,0.891
-0.277,-0.053,1.063
-0.313,0.144,0.921
-0.166,0.072,1.064
-0.243,0.073,1.097
-0.34,0.096,0.883
-0.303,0.04,0.889
-0.297,-0.029,0.973
-0.345,-0.011,0.924
-0.306,0.102,0.836
-0.213,-0.056,1.032
-0.28,0.119,0.879
-0.268,0.047,1.065
-0.224,-0.014,0.955
-0.343,0.105,0.798
-0.276,-0.028,0.932
-0.302,-0.036,0.984
-0.313,0.094,0.927
-0.2,0.036,0.982
-0.237,0.083,1.142
-0.328,0.108,0.886
-0.259,0.043,0.929
-0.296,-0.045,0.991
-0.354,0.069,0.837
-0.311,0.031,0.859
-0.261,-0.008,1
-0.29,0.048,1.034
-0.285,0.17,0.844
-0.206,-0.014,1.127
-0.339,0.069,0.956
-0.341,0.063,0.794
-0.277,-0.02,0.995
-0.304,0,0.965
-0.317,0.086,0.905
-0.211,0.048,1.006
-0.242,0.006,1.098
-0.326,0.18,0.879
-0.232,-0.04,0.922
-0.299,0.037,1.018
-0.369,0.038,0.808
-0.269,0.035,0.925
-0.257,-0.022,1.051
-0.324,0.088,0.915
-0.283,0.138,0.9
-0.234,-0.017,1.066
-0.329,0.059,0.993
-0.33,0.05,0.763
-0.243,-0.009,1.015
-0.344,0.015,0.969
-0.294,0.096,0.863
-0.195,0.015,1.1
-0.276,0.094,1.012
-0.324,0.128,0.89
-0.246,0.009,0.943
-0.28,-0.036,1.091
-0.37,0.096,0.783
-0.249,-0.009,0.925
-0.283,0.007,1.09
-0.3,0.071,0.913
-0.225,0.099,0.977
-0.233,0.081,1.076
-0.335,0.03,0.929
-0.337,0.1,0.804
-0.243,-0.102,1.048
-0.343,0.061,0.946
-0.294,0.038,0.841
-0.188,0.046,1.151
-0.266,0.069,1.066
-0.266,0.172,0.935
-0.216,0.03,1.022
-0.318,-0.009,0.979
-0.389,0.09,0.776
-0.261,-0.043,0.896
-0.274,0.003,1.086
-0.346,0.077,0.855
-0.199,0.104,1.013
-0.23,0.054,1.139
-0.306,0.118,0.928
-0.301,0.053,0.896
-0.295,-0.009,0.966
-0.36,-0.012,0.917
-0.302,0.081,0.812
-0.185,-0.058,1.156
-0.279,0.086,1.029
-0.245,0.137,0.906
-0.206,0.082,1.126
-0.316,0.034,0.983
-0.343,0.065,0.815
-0.273,0.004,0.902
-0.301,-0.07,1.009
-0.352,0.111,0.845
-0.18,0.01,1.03
-0.227,0.093,1.138
-0.304,0.107,0.896
-0.246,0.102,0.962
-0.3,-0.012,1.011
-0.356,0.029,0.856
-0.306,0.059,0.843
-0.223,-0.061,1.04
-0.321,0.057,0.976
-0.289,0.133,0.884
-0.179,0.051,1.17
-0.3,0.055,1.011
-0.318,0.132,0.819
-0.268,-0.014,0.992
-0.341,-0.018,0.952
-0.337,0.05,0.865
-0.22,0.022,0.966
-0.244,0.01,1.131
-0.306,0.183,0.905
-0.192,0.031,1.022
-0.274,0.027,1.051
-0.349,0.051,0.841
-0.302,0.076,0.896
-0.267,-0.049,0.946
-0.321,0.012,0.908
-0.253,-0.025,1.122
-0.178,0.133,1.017
-0.289,0.078,0.845
-0.238,0.018,1.072
-0.323,-0.025,0.942
-0.329,0.105,0.833
-0.243,-0.038,0.962
-0.264,0.02,1.06
-0.293,0.148,0.958
-0.19,0.044,0.992
-0.28,0.041,1.094
-0.379,0.084,0.811
-0.271,0.03,0.934
-0.269,-0.035,1.048
-0.308,0.066,0.896
-0.27,0.084,0.911
-0.218,0.003,1.081
-0.273,0.074,1.051
-0.282,0.145,0.854
-0.228,-0.045,1.094
-0.347,0.053,0.912
-0.308,0.042,0.842
-0.227,0.011,1.054
-0.29,-0.005,1.001
-0.294,0.15,0.921
-0.202,0.047,0.975
-0.245,0.017,1.081
-0.368,0.132,0.838
-0.255,-0.015,0.931
-0.27,0.004,1.057
-0.336,0.033,0.866
-0.242,0.085,0.974
-0.223,-0.019,1.086
-0.282,0.127,0.985
-0.286,0.103,0.856
-0.235,-0.001,1.065
-0.336,0.027,0.979
-0.308,0.069,0.808
-0.225,-0.027,1.076
-0.299,0.052,1.012
-0.279,0.103,0.904
-0.203,0.045,1.059
-0.255,0.053,1.054
-0.35,0.129,0.88
-0.247,-0.007,0.91
-0.29,-0.033,1.094
-0.362,0.091,0.829
-0.219,-0.026,0.962
-0.236,0.068,1.114
-0.283,0.064,0.964
-0.254,0.163,0.915
-0.251,-0.025,1.032
-0.356,0.06,0.911
-0.33,0.06,0.766
-0.243,-0.054,1.066
-0.323,0.036,1.008
-0.277,0.059,0.901
-0.175,0.067,1.143
-0.27,0.062,1.038
-0.311,0.172,0.896
-0.241,-0.031,0.97
-0.293,0,1.023
-0.39,0.06,0.783
-0.231,-0.001,0.937
-0.243,-0.029,1.139
-0.291,0.113,0.92
-0.186,0.113,1.043
-0.231,0.058,1.098
-0.318,0.076,0.93
-0.315,0.058,0.82
-0.247,-0.047,1.036
-0.345,0.015,0.929
-0.297,0.079,0.826
-0.189,-0.01,1.157
-0.265,0.103,1.049
-0.257,0.131,0.904
-0.231,0.077,1.036
-0.347,-0.045,0.92
-0.406,0.124,0.767
-0.256,-0.063,0.919
-0.285,-0.021,1.041
-0.322,0.07,0.893
-0.188,0.067,1.02
-0.21,0.089,1.175
-0.306,0.087,0.922
-0.269,0.096,0.909
-0.31,-0.053,0.982
-0.356,0.041,0.885
-0.309,0.024,0.86
-0.196,-0.018,1.101
-0.279,0.043,1.015
-0.259,0.174,0.906
-0.197,0.025,1.149
-0.317,0.048,0.983
-0.34,0.071,0.82
-0.276,-0.001,0.926
-0.3,-0.043,0.995
-0.335,0.079,0.88
-0.188,0.024,0.99
-0.242,0.031,1.121
-0.322,0.169,0.906
-0.235,0.033,0.988
-0.296,0.035,0.833
-0.369,0.003,0.835
-0.313,-0.075,1.017
-0.263,0.077,0.971
-0.274,0.123,0.947
-0.178,0.029,1.131
-0.29,0.063,1.027
-0.306,0.095,0.806
-0.255,0.027,1.043
-0.347,-0.04,0.927
-0.339,0.101,0.858
-0.213,-0.03,1.01
-0.243,0.042,1.084
-0.296,0.131,0.949
-0.182,0.055,0.976
-0.276,-0.009,1.092
-0.355,0.096,0.82
-0.278,0.021,0.925
-0.283,-0.022,0.998
-0.302,0.028,0.964
-0.246,0.123,0.924
-0.189,0.018,1.123
-0.314,0.075,0.982
-0.308,0.094,0.834
-0.249,-0.045,1.037
-0.334,0.049,0.936
-0.335,0.058,0.82
-0.25,0.036,1.008
-0.271,-0.024,1.029
-0.302,0.17,0.906
-0.206,0.023,0.977
-0.287,0.026,1.069
-0.359,0.064,0.857
-0.242,0.005,0.927
-0.281,-0.008,1.051
-0.327,0.057,0.884
-0.253,0.096,0.946
-0.23,-0.002,1.09
-0.297,0.116,0.988
-0.312,0.095,0.857
-0.262,-0.038,1.013
-0.338,0.011,0.962
-0.32,0.075,0.778
-0.211,-0.048,1.098
-0.282,0.06,0.998
-0.276,0.125,0.927
-0.197,0.065,1.017
-0.271,0.015,1.038
-0.379,0.113,0.849
-0.272,-0.03,0.873
-0.303,-0.031,1.051
-0.335,0.095,0.878
-0.21,0.018,0.993
-0.233,0.062,1.106
-0.316,0.085,0.915
-0.269,0.139,0.908
-0.261,-0.073,1.055
-0.323,0.052,0.928
-0.332,0.037,0.777
-0.236,-0.049,1.035
-0.291,0.036,1.03
-0.273,0.128,0.895
-0.177,0.06,1.131
-0.298,0.052,0.997
-0.357,0.13,0.83
-0.274,-0.056,0.924
-0.309,-0.022,0.994
-0.373,0.059,0.813
-0.221,0.016,0.962
-0.233,0.017,1.189
-0.264,0.148,0.939
-0.222,0.096,0.979
-0.269,0.026,1.053
-0.359,0.026,0.885
-0.319,0.064,0.808
-0.246,-0.069,1.009
-0.327,0.021,0.959
-0.281,0.084,0.848
-0.164,0.034,1.174
-0.286,0.121,1.037
-0.315,0.09,0.863
-0.253,0.011,0.985
-0.34,-0.036,0.922
-0.372,0.097,0.795
-0.246,-0.06,0.946
-0.256,0.015,1.09
-0.31,0.125,0.902
-0.197,0.094,0.973
-0.273,0.046,1.116
-0.38,0.052,0.814
-0.304,0.039,0.856
-0.302,-0.037,0.985
-0.351,0.03,0.885
-0.277,0.057,0.89
-0.183,0.013,1.11
-0.289,0.069,1.001
-0.285,0.156,0.835
-0.239,-0.028,1.071
-0.356,0.032,0.896
-0.337,0.053,0.834
-0.243,-0.006,0.988
-0.28,-0.025,1.013
-0.323,0.151,0.884
-0.209,0.046,1
-0.236,0.018,0.868
-0.328,0.105,0.916
-0.25,0.015,1.009
-0.308,-0.002,0.869
-0.218,0.076,0.93
-0.226,-0.018,1.064
-0.315,0.125,0.957
-0.292,0.091,0.866
-0.231,-0.016,1.095
-0.318,0.033,0.989
-0.308,0.086,0.811
-0.22,-0.019,1.058
-0.289,-0.008,0.995
-0.273,0.116,0.904
-0.207,0.06,1.026
-0.282,0.044,1.035
-0.354,0.09,0.879
-0.255,0.023,0.9
-0.296,-0.043,1.052
-0.344,0.08,0.811
-0.233,0.015,0.999
-0.249,0.037,1.078
-0.286,0.085,0.948
-0.272,0.143,0.943
-0.257,-0.013,1.02
-0.36,0.02,0.929
-0.322,0.088,0.817
-0.219,-0.068,1.086
-0.31,0.046,0.972
-0.326,0.103,0.843
-0.3,-0.085,0.97
-0.342,0.029,0.94
-0.307,0.046,0.812
-0.202,-0.003,1.104
-0.277,0.085,1.057
-0.255,0.158,0.884
-0.199,0.03,1.109
-0.322,0.029,0.942
-0.356,0.089,0.82
-0.289,-0.016,0.919
-0.284,-0.049,1.043
-0.344,0.089,0.882
-0.173,0.022,0.992
-0.225,0.05,1.149
-0.323,0.162,0.885
-0.268,0.03,0.954
-0.287,0.016,0.99
-0.357,-0.009,0.852
-0.335,0.087,0.824
-0.218,-0.104,1.085
-0.272,0.087,1.061
-0.252,0.121,0.876
-0.195,0.063,1.113
-0.34,0.077,0.965
-0.345,0.068,0.828
-0.254,-0.009,0.983
-0.326,-0.04,0.935
-0.363,0.11,0.84
-0.231,-0.039,0.953
-0.212,0.054,1.163
-0.301,0.124,0.893
-0.231,0.096,0.953
-0.306,-0.003,1.044
-0.357,0.076,0.823
-0.314,0.035,0.876
-0.274,-0.025,1.003
-0.345,0.011,0.926
-0.289,0.12,0.848
-0.183,0.019,1.157
-0.302,0.102,1.007
-0.305,0.102,0.844
-0.258,-0.01,1.049
-0.351,0.03,0.911
-0.359,0.049,0.816
-0.249,0.01,0.979
-0.257,-0.043,0.875
-0.32,0.182,0.998
-0.193,0.09,1.114
-0.259,0.037,0.831
-0.263,0.058,0.893
-0.314,-0.027,0.975
-0.353,0.032,0.883
-0.275,0.074,0.905
-0.192,-0.006,1.106
-0.297,0.099,1.006
-0.272,0.116,0.862
-0.238,0.009,1.104
-0.367,-0.002,0.906
-0.331,0.076,0.765
-0.267,-0.016,1.02
-0.299,0.027,0.995
-0.288,0.099,0.931
-0.2,0.074,0.981
-0.258,0.017,1.103
-0.372,0.13,0.802
-0.257,-0.004,0.941
-0.316,0.005,1.016
-0.341,0.037,0.86
-0.273,0.057,0.928
-0.247,0.01,1.058
-0.314,0.067,0.973
-0.267,0.162,0.911
-0.192,-0.049,1.134
-0.334,0.056,0.922
-0.316,0.064,0.806
-0.249,0.006,1.039
-0.315,-0.031,0.982
-0.291,0.135,0.89
-0.204,0.042,1.056
-0.266,0.047,1.029
-0.332,0.126,0.894
-0.231,-0.014,0.933
-0.282,-0.009,1.029
-0.378,0.081,0.803
-0.251,0.029,0.949
-0.249,-0.018,1.085
-0.279,0.111,0.966
-0.243,0.139,0.968
-0.235,0.016,1.051
-0.348,0.019,0.95
-0.322,0.119,0.767
-0.251,-0.072,1.056
-0.321,0.035,0.93
-0.287,0.059,0.867
-0.216,0.054,1.086
-0.264,0.042,1.045
-0.312,0.158,0.903
-0.253,0.016,0.961
-0.302,-0.03,1.016
-0.36,0.101,0.833
-0.256,-0.029,0.912
-0.258,0.005,1.077
-0.318,0.087,0.917
-0.226,0.117,0.997
-0.233,0.016,1.074
-0.313,0.078,0.915
-0.334,0.068,0.827
-0.271,-0.047,1.008
-0.336,0.018,0.981
-0.313,0.075,0.799
-0.212,-0.036,1.109
-0.277,0.086,1.015
-0.262,0.149,0.941
-0.225,0.069,1.031
-0.313,0.006,0.995
-0.374,0.064,0.826
-0.252,-0.012,0.861
-0.288,-0.044,1.064
-0.348,0.119,0.862
-0.205,0.015,0.994
-0.232,0.095,1.101
-0.321,0.094,0.898
-0.303,0.126,0.892
-0.273,-0.069,1.019
-0.352,0.035,0.92
-0.327,0.053,0.765
-0.221,-0.049,1.077
-0.3,0.076,1.031
-0.251,0.105,0.925
-0.167,0.084,1.144
-0.293,0.042,0.997
-0.363,0.126,0.835
-0.282,-0.048,0.891
-0.294,-0.025,1.015
-0.352,0.058,0.863
-0.197,0.027,0.977
-0.226,0.042,1.168
-0.301,0.157,0.897
-0.221,0.071,0.976
-0.278,0.014,1.033
-0.338,0.029,0.864
-0.328,0.064,0.786
-0.254,-0.058,1.041
-0.307,0.023,1.013
-0.267,0.116,0.867
-0.173,0.031,1.153
-0.293,0.137,1.027
-0.29,0.055,0.869
-0.237,0.046,1.011
-0.333,-0.053,0.807
-0.38,0.108,0.959
-0.235,0.047,1.143
-0.229,0.134,0.896
-0.203,0.088,0.973
-0.282,0.052,1.085
-0.368,0.046,0.836
-0.274,0.047,0.912
-0.279,-0.055,0.977
-0.337,0.054,0.903
-0.286,0.07,0.88
-0.161,0.031,1.162
-0.289,0.083,1.004
-0.294,0.132,0.829
-0.245,-0.009,1.082
-0.333,0.037,0.944
-0.321,0.043,0.827
-0.244,0.017,0.985
-0.271,-0.034,1.028
-0.315,0.137,0.878
-0.185,0.074,1.014
-0.261,0.027,1.121
-0.357,0.107,0.849
-0.248,0.006,0.921
-0.289,0.024,1.049
-0.328,-0.015,0.881
-0.268,0.107,0.922
-0.214,-0.034,1.088
-0.294,0.136,0.981
-0.281,0.096,0.899
-0.223,-0.013,1.106
-0.333,0.017,0.939
-0.323,0.093,0.787
-0.246,0,1.047
-0.315,-0.015,0.978
-0.31,0.145,0.913
-0.205,0.025,1.003
-0.263,0.055,1.082
-0.349,0.093,0.862
-0.245,0.032,0.944
-0.281,-0.045,1.061
-0.319,0.078,0.857
-0.228,0.029,0.982
-0.244,0.04,1.07
-0.294,0.068,0.955
-0.273,0.137,0.896
-0.222,-0.022,1.072
-0.346,0.037,0.929
-0.319,0.084,0.819
-0.239,-0.064,1.074
-0.285,0.036,0.994
-0.282,0.092,0.903
-0.215,0.09,1.05
-0.271,0.001,1.036
-0.327,0.16,0.883
-0.233,-0.045,0.941
-0.301,0.001,1.006
-0.353,0.078,0.852
-0.225,0,0.959
-0.239,-0.007,1.104
-0.297,0.129,0.946
-0.238,0.151,0.978
-0.262,-0.017,1.032
-0.332,0.074,0.946
-0.318,0.045,0.812
-0.249,-0.03,1.04
-0.343,-0.004,0.954
-0.278,0.109,0.874
-0.168,-0.004,1.159
-0.261,0.115,1.034
-0.293,0.115,0.895
-0.261,0.021,0.934
-0.323,-0.04,0.986
-0.368,0.097,0.818
-0.241,-0.027,0.931
-0.276,-0.022,1.09
-0.303,0.134,0.937
-0.188,0.064,1.034
-0.233,0.087,1.111
-0.334,0.039,0.902
-0.31,0.104,0.821
-0.275,-0.087,0.998
-0.322,0.044,0.945
-0.291,0.034,0.852
-0.19,0.008,1.102
-0.285,0.109,1.061
-0.252,0.138,0.909
-0.214,0.03,1.063
-0.338,-0.01,0.922
-0.373,0.102,0.804
-0.269,-0.051,0.915
-0.274,-0.004,1.059
-0.31,0.091,0.898
-0.208,0.065,0.946
-0.237,0.037,1.143
-0.323,0.128,0.857
-0.271,0.029,0.918
-0.292,-0.001,0.976
-0.354,0.006,0.882
-0.301,0.058,0.837
-0.201,-0.034,1.109
-0.282,0.089,1.028
-0.264,0.141,0.89
-0.21,0.014,1.117
-0.34,0.077,0.96
-0.338,0.052,0.977
-0.245,0,0.988
-0.298,0.137,0.872
-0.326,0.005,1.019
-0.23,0.06,1.118
-0.332,0.121,0.876
-0.231,0.03,0.931
-0.298,0.008,1.05
-0.367,0.051,0.831
-0.27,0.044,0.912
-0.225,-0.05,1.091
-0.287,0.103,0.976
-0.261,0.104,0.889
-0.212,0.031,1.081
-0.341,0.033,0.975
-0.332,0.095,0.802
-0.241,-0.035,1.066
-0.34,0.025,0.909
-0.323,0.047,0.845
-0.219,0.027,1.014
-0.241,0.034,1.084
-0.316,0.158,0.896
-0.241,0.011,0.957
-0.291,-0.026,1.069
-0.35,0.079,0.835
-0.237,0.001,0.937
-0.25,0.025,1.084
-0.314,0.036,0.925
-0.233,0.143,0.96
-0.213,-0.002,1.093
-0.332,0.095,0.926
-0.336,0.048,0.803
-0.237,-0.031,1.052
-0.342,0.003,0.94
-0.307,0.092,0.828
-0.213,0.025,1.101
-0.289,0.029,0.995
-0.285,0.167,0.916
-0.228,0.019,0.988
-0.315,0.012,0.981
-0.384,0.046,0.828
-0.243,0.019,0.918
-0.264,-0.051,1.098
-0.302,0.113,0.892
-0.218,0.077,1.004
-0.248,0.083,1.072
-0.317,0.065,0.934
-0.287,0.093,0.893
-0.249,-0.055,1.015
-0.357,0.013,0.899
-0.295,0.075,0.851
-0.178,-0.029,1.153
-0.272,0.076,1.019
-0.271,0.146,0.897
-0.221,0.077,1.029
-0.333,-0.012,0.962
-0.353,0.094,0.835
-0.275,-0.045,0.886
-0.313,-0.024,0.999
-0.35,0.072,0.887
-0.184,0.045,1.024
-0.212,0.054,1.162
-0.285,0.12,0.93
-0.268,0.092,0.939
-0.288,-0.036,1.003
-0.349,0.036,0.878
-0.317,0.044,0.833
-0.243,-0.039,1.018
-0.309,0.029,1.01
-0.265,0.173,0.881
-0.2,0.026,1.141
-0.314,0.082,1.006
-0.32,0.064,0.82
-0.272,0.006,0.923
-0.334,-0.043,0.961
-0.342,0.085,0.884
-0.219,-0.001,0.966
-0.228,0.02,1.136
-0.291,0.176,0.926
-0.229,0.054,0.988
-0.288,0.011,1.028
-0.358,0.025,0.837
-0.303,0.074,0.862
-0.268,-0.08,1.019
-0.298,0.073,0.994
-0.255,0.101,0.908
-0.182,0.027,1.12
-0.297,0.069,1.001
-0.317,0.087,0.824
-0.269,-0.018,0.979
-0.354,-0.009,0.912
-0.328,0.082,0.861
-0.235,-0.01,0.984
-0.26,0.043,1.068
-0.289,0.126,0.945
-0.213,0.062,0.963
-0.27,-0.017,1.098
-0.362,0.113,0.814
-0.285,0.002,0.884
-0.291,-0.01,1.017
-0.306,0.022,0.928
-0.281,0.133,0.915
-0.215,0.018,1.094
-0.3,0.062,1.018
-0.303,0.105,1.071
-0.225,-0.049,0.946
-0.33,0.008,0.832
-0.304,0.026,1.065
-0.254,0.014,1.01
-0.304,0.185,0.883
-0.247,0.032,0.971
-0.288,-0.007,1.068
-0.359,0.087,0.836
-0.247,0,0.891
-0.271,-0.011,1.062
-0.33,0.067,0.883
-0.219,0.066,0.994
-0.218,0.037,1.116
-0.293,0.115,0.946
-0.314,0.079,0.842
-0.252,-0.032,1.044
-0.341,0.001,0.956
-0.31,0.086,0.784
-0.223,-0.054,1.077
-0.315,0.079,0.981
-0.282,0.116,0.894
-0.215,0.09,1.074
-0.293,-0.001,0.996
-0.376,0.087,0.8
-0.269,-0.026,0.88
-0.288,-0.057,1.06
-0.325,0.102,0.858
-0.205,0.012,1.015
-0.225,0.089,1.12
-0.302,0.087,0.933
-0.254,0.128,0.953
-0.265,-0.044,1.013
-0.36,0.048,0.847
-0.35,0.032,0.767
-0.228,-0.053,1.089
-0.294,0.051,0.986
-0.279,0.128,0.882
-0.192,0.075,1.139
-0.319,0.047,0.981
-0.319,0.117,0.852
-0.264,-0.034,0.943
-0.324,-0.017,0.929
-0.366,0.046,0.826
-0.216,0.031,0.974
-0.229,0.021,1.14
-0.319,0.176,0.889
-0.229,0.056,0.98
-0.302,0.024,1.021
-0.355,0.052,0.845
-0.314,0.039,0.869
-0.256,-0.039,1.017
-0.328,0.022,0.961
-0.276,0.133,0.871
-0.166,0.008,1.159
-0.29,0.106,1.005
-0.296,0.049,0.834
-0.252,0.046,1.018
-0.347,-0.011,0.92
-0.324,0.085,0.861
-0.218,-0.018,0.989
-0.251,0.026,1.099
-0.292,0.159,0.93
-0.197,0.042,1.013
-0.288,0.03,1.063
-0.359,0.048,0.831
-0.274,0.055,0.905
-0.283,-0.035,1.04
-0.303,0.064,0.929
-0.252,0.091,0.947
-0.208,0.041,1.077
-0.32,0.088,0.984
-0.306,0.107,0.855
-0.241,-0.036,1.088
-0.327,0.03,0.951
-0.282,0.07,0.85
-0.228,0.017,1.071
-0.286,0.015,0.995
-0.292,0.152,0.91
-0.218,0.067,0.975
-0.299,-0.02,1.051
-0.375,0.124,0.822
-0.238,-0.05,0.941
-0.274,-0.001,1.036
-0.313,0.046,0.892
-0.214,0.108,1.01
-0.227,0.031,1.097
-0.314,0.108,0.948
-0.314,0.108,0.866
-0.258,-0.067,1.037
-0.345,0.041,0.907
-0.322,0.031,0.797
-0.223,-0.001,1.102
-0.275,0.036,1.032
-0.272,0.17,0.879
-0.218,0.049,1.05
-0.326,0.029,0.982
-0.351,0.078,0.85
-0.243,-0.011,0.917
-0.298,-0.036,1.029
-0.329,0.086,0.91
-0.176,0.024,1.01
-0.217,0.049,1.163
-0.287,0.153,0.927
-0.281,0.082,0.992
-0.278,-0.031,0.888
-0.353,0.073,0.785
-0.333,-0.092,1.043
-0.333,0.098,0.985
-0.255,0.11,0.906
-0.193,0.066,1.118
-0.312,0.063,0.98
-0.35,0.082,0.816
-0.27,-0.016,0.937
-0.318,-0.042,0.976
-0.331,0.111,0.88
-0.204,-0.025,0.981
-0.232,0.064,1.112
-0.301,0.125,0.935
-0.221,0.074,0.945
-0.289,-0.01,1.043
-0.368,0.065,0.819
-0.309,0.025,0.849
-0.253,-0.048,1.059
-0.279,0.039,1.012
-0.255,0.11,0.924
-0.18,0.038,1.14
-0.301,0.076,1.018
-0.31,0.103,0.828
-0.226,-0.043,1.057
-0.319,0.033,0.932
-0.35,0.055,0.86
-0.21,0.005,0.993
-0.223,0.009,1.117
-0.29,0.183,0.916
-0.226,0.024,0.961
-0.301,0.01,1.046
-0.366,0.076,0.83
-0.272,0.024,0.895
-0.274,-0.01,1.021
-0.329,0.026,0.909
-0.243,0.098,0.927
-0.205,0.003,1.107
-0.279,0.116,0.994
-0.317,0.051,0.798
-0.248,0.001,1.055
-0.338,0.006,0.977
-0.317,0.078,0.832
-0.205,-0.026,1.071
-0.269,0.026,1.003
-0.315,0.15,0.876
-0.235,0.051,0.991
-0.278,-0.002,1.06
-0.37,0.076,0.83
-0.259,0.008,0.88
-0.294,-0.022,1.091
-0.348,0.088,0.874
-0.213,0.038,1.019
-0.211,0.059,1.084
-0.31,0.091,0.946
-0.282,0.116,0.878
-0.247,-0.072,1.047
-0.357,0.045,0.888
-0.335,0.038,0.777
-0.217,-0.018,1.114
-0.308,0.025,1.009
-0.294,0.143,0.891
-0.209,0.067,1.033
-0.281,0.011,1.019
-0.352,0.109,0.83
-0.259,-0.038,0.918
-0.304,-0.015,1.004
-0.375,0.033,0.825
-0.227,0.077,0.955
-0.258,0.024,1.121
-0.299,0.132,0.927
-0.247,0.086,0.942
-0.286,-0.009,1.004
-0.348,0.011,0.874
-0.332,0.055,0.814
-0.235,-0.046,1.05
-0.306,0.011,0.984
-0.26,0.137,0.88
-0.18,0.034,1.137
-0.304,0.084,0.986
-0.307,0.068,0.877
-0.269,0.023,0.934
-0.341,-0.042,0.931
-0.381,0.09,0.814
-0.239,-0.048,0.948
-0.242,0.021,1.115
-0.297,0.154,0.928
-0.217,0.091,1.012
-0.285,0.016,1.025
-0.364,0.029,0.839
-0.309,0.068,0.869
-0.281,-0.072,0.973
-0.339,0.046,0.916
-0.283,0.093,0.888
-0.175,0.046,1.158
-0.287,0.071,1.029
-0.306,0.136,0.843
-0.256,-0.025,1.021
-0.355,0.013,0.916
-0.338,0.059,0.841
-0.242,-0.014,0.947
-0.283,-0.011,1.025
-0.315,0.135,0.935
-0.177,0.076,1.119
-0.246,0.011,0.822
-0.351,0.005,0.884
-0.3,-0.01,0.998
-0.322,0.002,0.928
-0.27,0.112,0.892
-0.226,-0.016,1.06
-0.3,0.104,0.989
-0.285,0.104,0.866
-0.24,-0.013,1.068
-0.334,0.028,0.923
-0.34,0.047,0.778
-0.248,0.013,0.998
-0.283,-0.027,1.025
-0.284,0.151,0.93
-0.217,0.042,0.975
-0.276,0.045,1.064
-0.353,0.082,0.863
-0.248,0.022,0.91
-0.288,-0.031,1.049
-0.341,0.068,0.837
-0.262,0.054,0.936
-0.247,0.017,1.049
-0.291,0.094,0.995
-0.289,0.132,0.881
-0.246,-0.039,1.035
-0.348,0.024,0.949
-0.32,0.08,0.769
-0.24,-0.054,1.048
-0.309,0.062,0.98
-0.275,0.105,0.934
-0.185,0.08,1.052
-0.271,0.023,1.035
-0.364,0.128,0.844
-0.268,-0.03,0.894
-0.291,-0.037,1.038
-0.352,0.11,0.845
-0.231,0.005,0.959
-0.242,0.045,1.094
-0.296,0.109,0.927
-0.271,0.14,0.92
-0.279,-0.033,1.036
-0.344,0.047,0.912
-0.332,0.039,0.78
-0.229,-0.042,1.044
-0.308,0.049,0.998
-0.265,0.111,0.906
-0.168,0.045,1.163
-0.28,0.087,1.01
-0.332,0.107,0.859
-0.271,-0.018,0.934
-0.312,-0.028,0.98
-0.357,0.053,0.848
-0.222,0.015,0.935
-0.246,0.024,1.158
-0.301,0.157,0.899
-0.201,0.048,1.001
-0.274,0.042,1.072
-0.346,0.044,0.884
-0.322,0.064,0.836
-0.264,-0.046,1.027
-0.301,0,0.992
-0.275,0.114,0.852
-0.181,0.029,1.167
-0.29,0.133,1.04
-0.291,0.053,0.874
-0.232,0.041,1.027
-0.332,-0.016,0.932
-0.367,0.093,0.788
-0.247,-0.027,0.969
-0.265,0.02,1.077
-0.31,0.14,0.916
-0.202,0.058,0.988
-0.283,0.044,1.091
-0.359,0.052,0.854
-0.24,0.04,0.919
-0.29,-0.023,1.02
-0.323,0.046,0.9
-0.27,0.076,0.912
-0.182,0.042,1.12
-0.301,0.084,0.994
-0.299,0.117,0.832
-0.247,-0.04,1.072
-0.35,0.04,0.917
-0.313,0.046,0.843
-0.222,0.009,1.069
-0.282,0.013,0.992
-0.31,0.137,0.909
-0.206,0.076,0.999
-0.285,-0.007,1.07
-0.362,0.107,0.823
-0.252,-0.022,0.917
-0.306,0.014,1.059
-0.293,0,0.929
-0.217,0.109,0.976
-0.217,0.034,1.092
-0.299,0.115,0.939
-0.302,0.099,0.869
-0.248,-0.043,1.057
-0.351,0.041,0.926
-0.313,0.048,0.809
-0.196,-0.002,1.133
-0.273,0.017,1.042
-0.246,0.165,1.051
-0.208,0.053,0.978
-0.319,0.079,0.858
-0.366,0.021,0.898
-0.292,-0.042,1.022
-0.351,0.081,0.83
-0.202,0.016,0.998
-0.233,0.039,1.133
-0.286,0.128,0.94
-0.264,0.096,0.927
-0.294,-0.004,0.972
-0.37,0.004,0.884
-0.319,0.098,0.834
-0.233,-0.096,1.053
-0.313,0.075,0.988
-0.256,0.1,0.905
-0.179,0.088,1.142
-0.276,0.048,1.025
-0.327,0.106,0.869
-0.26,-0.011,0.949
-0.33,-0.026,0.962
-0.336,0.095,0.896
-0.2,-0.03,1.005
-0.233,0.038,1.116
-0.307,0.134,0.927
-0.204,0.109,0.995
-0.282,-0.01,1.053
-0.35,0.072,0.862
-0.324,0.038,0.83
-0.269,-0.044,1.022
-0.319,0.023,0.969
-0.259,0.108,0.896
-0.188,0.017,1.119
-0.303,0.092,1.001
-0.321,0.114,0.819
-0.271,-0.019,0.991
-0.341,-0.003,0.892
-0.337,0.058,0.869
-0.222,-0.003,0.961
-0.252,-0.013,1.096
-0.293,0.175,0.942
-0.202,0.024,0.966
-0.265,0.047,1.108
-0.338,0.057,0.875
-0.285,0.054,0.896
-0.269,-0.04,1.029
-0.322,0.031,0.927
-0.26,0.08,0.901
-0.218,0.007,1.085
-0.296,0.128,1.038
-0.286,0.07,0.879
-0.233,0,1.055
-0.346,0.007,0.94
-0.343,0.102,0.807
-0.245,-0.046,1.036
-0.266,0.036,1.026
-0.287,0.142,0.93
-0.193,0.071,1.004
-0.276,0.02,1.075
-0.378,0.085,0.828
-0.254,-0.001,0.892
-0.297,-0.027,1.057
-0.334,0.066,0.87
-0.249,0.061,0.967
-0.21,0.038,1.1
-0.278,0.091,0.998
-0.282,0.136,0.873
-0.26,-0.057,1.043
-0.342,0.049,0.959
-0.312,0.041,0.798
-0.219,-0.008,1.077
-0.309,0.026,1.006
-0.297,0.127,0.883
-0.208,0.071,1.054
-0.287,0.008,1.028
-0.362,0.118,0.815
-0.278,-0.045,0.887
-0.309,-0.002,1.038
-0.338,0.02,0.86
-0.208,0.068,0.98
-0.235,0.025,1.136
-0.298,0.139,0.941
-0.254,0.082,0.932
-0.268,0,1.02
-0.345,0.031,0.923
-0.332,0.049,0.79
-0.233,-0.039,1.055
-0.313,0.029,0.998
-0.27,0.116,0.878
-0.179,0.042,1.133
-0.305,0.099,0.996
-0.341,0.069,0.856
-0.253,0.016,0.968
-0.314,-0.057,0.98
-0.363,0.097,0.833
-0.237,-0.04,0.947
-0.238,0.039,1.13
-0.308,0.135,0.921
-0.215,0.09,0.994
-0.28,0.026,1.044
-0.373,0.028,0.831
-0.313,0.068,0.843
-0.268,-0.075,1.016
-0.319,0.046,0.936
-0.289,0.077,1.146
-0.168,0.055,1.022
-0.291,0.129,0.853
-0.302,-0.015,1.029
-0.373,0.015,0.901
-0.354,0.049,0.8
-0.245,0,0.966
-0.264,-0.024,1.06
-0.31,0.136,0.936
-0.185,0.092,1.01
-0.262,0.029,1.128
-0.334,0.076,0.874
-0.277,0.01,0.891
-0.286,0.007,0.986
-0.347,-0.009,0.888
-0.28,0.113,0.91
-0.212,-0.017,1.113
-0.287,0.106,1.029
-0.286,0.104,0.842
-0.256,0.014,1.064
-0.354,0.016,0.928
-0.337,0.064,0.821
-0.236,-0.004,0.988
-0.312,-0.011,0.957
-0.324,0.15,0.916
-0.202,0.027,0.977
-0.263,0.045,1.08
-0.337,0.077,0.867
-0.249,0.056,0.942
-0.302,-0.058,1.005
-0.338,0.053,0.835
-0.244,0.036,0.96
-0.24,0.029,1.07
-0.287,0.068,0.98
-0.269,0.151,0.913
-0.217,-0.024,1.074
-0.338,0.034,0.939
-0.331,0.087,0.781
-0.263,-0.045,1.034
-0.307,0.026,0.973
-0.274,0.075,0.933
-0.194,0.084,1.032
-0.268,0.014,1.054
-0.346,0.153,0.89
-0.251,-0.018,0.913
-0.299,0.004,1.055
-0.352,0.054,0.827
-0.261,0.035,0.962
-0.252,-0.004,1.083
-0.286,0.097,0.97
-0.248,0.148,0.953
-0.255,-0.009,1.043
-0.333,0.052,0.953
-0.33,0.044,0.803
-0.228,-0.038,1.045
-0.313,0.003,0.976
-0.275,0.106,0.875
-0.196,0.02,1.086
-0.268,0.083,1.031
-0.293,0.111,0.932
-0.262,0.014,0.925
-0.304,-0.038,1.014
-0.36,0.092,0.867
-0.225,-0.014,0.94
-0.263,-0.012,1.086
-0.301,0.127,0.923
-0.242,0.08,0.959
-0.265,0.073,1.049
-0.336,0.017,0.939
-0.327,0.109,0.811
-0.262,-0.101,1.004
-0.328,0.053,0.974
-0.274,0.038,0.854
-0.189,0.039,1.121
-0.298,0.108,1.01
-0.303,0.141,0.894
-0.234,0.021,1.031
-0.311,-0.033,0.993
-0.363,0.099,0.804
-0.277,-0.051,0.889
-0.258,0.001,1.087
-0.31,0.087,0.894
-0.192,0.103,1.001
-0.254,0.043,1.117
-0.332,0.111,0.89
-0.273,0.03,0.892
-0.281,-0.018,0.975
-0.338,0.003,0.911
-0.329,0.069,0.814
-0.21,-0.025,1.098
-0.288,0.107,1.024
-0.269,0.141,0.884
-0.215,0.006,1.085
-0.323,0.052,0.946
-0.353,0.06,0.808
-0.258,0.016,0.969
-0.281,-0.073,1.048
-0.317,0.123,0.891
-0.174,0.029,1.004
-0.231,0.09,1.152
-0.333,0.113,0.881
-0.246,0.028,0.95
-0.284,0.009,1.031
-0.346,0.017,0.857
-0.289,0.07,1.076
-0.228,-0.048,1.009
-0.281,0.094,0.876
-0.263,0.039,1.116
-0.36,0.035,0.951
-0.328,0.094,0.805
-0.245,-0.027,1.032
-0.314,0.011,0.949
-0.322,0.058,0.877
-0.208,0.056,1.02
-0.231,0.041,1.116
-0.324,0.14,0.873
-0.235,0.045,0.954
-0.318,-0.017,1.05
-0.346,0.078,0.832
-0.233,-0.004,0.958
-0.244,0.028,1.076
-0.293,0.042,0.931
-0.263,0.172,0.909
-0.198,-0.034,1.117
-0.328,0.083,0.967
-0.327,0.069,0.801
-0.253,-0.008,1.059
-0.344,0.016,0.944
-0.294,0.07,0.873
-0.194,0.059,1.105
-0.273,0.036,1.014
-0.318,0.175,0.904
-0.233,-0.019,0.981
-0.299,0.017,1.014
-0.37,0.046,0.808
-0.233,0.022,0.937
-0.271,-0.039,1.095
-0.284,0.093,0.95
-0.204,0.116,1.014
-0.221,0.057,1.078
-0.318,0.061,0.951
-0.315,0.067,0.836
-0.23,-0.033,1.048
-0.369,0.01,0.888
-0.307,0.087,0.826
-0.21,-0.009,1.114
-0.285,0.096,1.029
-0.267,0.116,0.923
-0.228,0.078,1.015
-0.315,-0.05,0.973
-0.37,0.125,0.829
-0.232,-0.062,0.92
-0.289,-0.011,1.037
-0.328,0.088,0.896
-0.188,0.061,1.036
-0.225,0.076,1.127
-0.315,0.091,0.935
-0.293,0.114,0.901
-0.294,-0.077,0.987
-0.347,0.043,0.89
-0.284,0.027,0.868
-0.202,-0.003,1.099
-0.275,0.058,1.052
-0.262,0.167,0.89
-0.21,0.031,1.112
-0.326,0.049,0.969
-0.345,0.085,0.838
-0.27,-0.018,0.941
-0.287,-0.036,1.023
-0.323,0.096,0.916
-0.172,0.033,0.997
-0.243,0.043,1.132
-0.308,0.158,0.897
-0.265,0.042,0.95
-0.291,0.009,1.01
-0.339,0,0.877
-0.315,0.074,0.82
-0.242,-0.085,1.04
-0.304,0.097,1.006
-0.259,0.103,0.896
-0.196,0.03,1.12
-0.306,0.063,0.991
-0.322,0.088,0.83
-0.26,-0.006,1.008
-0.32,-0.05,0.955
-0.321,0.123,0.888
-0.193,-0.022,1.018
-0.217,0.07,1.125
-0.305,0.126,0.903
-0.219,0.054,0.978
-0.262,-0.024,1.106
-0.345,0.084,0.84
-0.288,0.026,0.894
-0.264,-0.032,1.037
-0.283,0.042,0.99
-0.257,0.112,0.908
-0.205,0.032,1.093
-0.34,0.086,0.986
-0.323,0.089,0.822
-0.234,-0.053,1.062
-0.318,0.052,0.953
-0.332,0.045,0.814
-0.224,0.025,1.008
-0.258,0,1.087
-0.288,0.172,0.912
-0.205,0.018,0.958
-0.306,0.022,1.029
-0.368,0.054,0.827
-0.264,0.017,1.092
-0.257,0.007,0.905
-0.32,0.07,0.912
-0.25,0.001,1.132
-0.295,0.13,0.983
-0.327,0.062,0.83
-0.252,-0.008,1.045
-0.347,0,0.971
-0.31,0.069,0.809
-0.188,-0.036,1.115
-0.269,0.057,1.008
-0.289,0.124,0.895
-0.207,0.067,1.025
-0.279,0.005,1.056
-0.359,0.081,0.827
-0.249,-0.005,0.898
-0.299,-0.033,1.058
-0.334,0.092,0.874
-0.201,0.044,1.032
-0.206,0.075,1.119
-0.297,0.092,0.944
-0.288,0.133,0.895
-0.24,-0.065,1.093
-0.355,0.058,0.893
-0.322,0.038,0.802
-0.222,-0.033,1.066
-0.306,0.029,0.998
-0.265,0.125,0.909
-0.189,0.076,1.101
-0.285,0.021,1.012
-0.328,0.106,0.841
-0.253,-0.031,0.934
-0.309,0,0.991
-0.367,0.033,0.808
-0.226,0.044,0.956
-0.24,0.018,1.142
-0.287,0.135,0.907
-0.243,0.093,0.945
-0.284,-0.003,1.015
-0.349,0.015,0.871
-0.326,0.068,0.827
-0.231,-0.059,1.074
-0.31,0.002,0.988
-0.262,0.13,0.858
-0.185,0.039,1.146
-0.292,0.101,1.012
-0.314,0.076,0.864
-0.258,0.029,0.954
-0.336,-0.049,0.941
-0.359,0.07,0.815
-0.229,-0.032,0.982
-0.259,0.013,1.087
-0.297,0.132,0.928
-0.21,0.085,0.988
-0.268,0.022,1.085
-0.349,0.038,0.844
-0.283,0.056,0.869
-0.276,-0.063,1.004
-0.329,0.04,0.92
-0.27,0.083,0.916
-0.192,0.036,1.11
-0.283,0.067,1.043
-0.3,0.13,0.831
-0.24,-0.029,1.067
-0.336,0.013,0.93
-0.328,0.053,0.854
-0.236,-0.022,0.97
-0.288,-0.01,1.003
-0.32,0.146,0.905
-0.206,0.067,0.998
-0.249,0,1.108
-0.336,0.105,0.849
-0.27,0.02,0.912
-0.299,-0.018,0.993
-0.316,-0.002,0.938
-0.253,0.108,0.935
-0.206,-0.019,1.083
-0.301,0.112,0.98
-0.308,0.098,0.819
-0.233,-0.025,1.054
-0.337,0.04,0.947
-0.338,0.063,0.785
-0.25,-0.005,0.992
-0.305,-0.01,0.989
-0.282,0.139,0.933
-0.211,0.04,1.001
-0.282,0.061,1.037
-0.364,0.079,0.859
-0.249,0.017,0.913
-0.291,-0.038,1.044
-0.34,0.069,0.846
-0.269,0.036,0.945
-0.24,0.017,1.053
-0.281,0.1,0.986
-0.259,0.121,0.887
-0.263,-0.016,0.998
-0.36,0.019,0.942
-0.326,0.079,0.774
-0.245,-0.057,1.054
-0.305,0.046,0.982
-0.273,0.081,0.905
-0.199,0.073,1.041
-0.278,0.04,1.03
-0.359,0.146,0.833
-0.279,-0.033,1.028
-0.306,-0.014,0.842
-0.357,0.009,0.943
-0.235,0.006,1.099
-0.281,0.1,0.927
-0.245,0.124,0.984
-0.255,-0.004,1.04
-0.344,0.058,0.926
-0.339,0.045,0.785
-0.247,-0.04,1.046
-0.306,0.003,1
-0.282,0.114,0.839
-0.185,0.022,1.127
-0.285,0.101,0.994
-0.338,0.115,0.797
-0.297,0.015,0.919
-0.33,-0.042,0.97
-0.378,0.066,0.777
-0.25,-0.015,0.898
-0.262,-0.009,1.117
-0.321,0.127,0.874
-0.222,0.062,0.987
-0.257,0.067,1.061
-0.351,0.044,0.895
-0.319,0.078,0.858
-0.264,-0.079,1.017
-0.332,0.047,0.963
-0.29,0.048,0.831
-0.177,0.015,1.129
-0.29,0.11,1.037
-0.273,0.139,0.906
-0.228,0.018,1.052
-0.327,-0.014,0.957
-0.357,0.084,0.813
-0.269,-0.036,0.916
-0.276,0,1.062
-0.326,0.088,0.893
-0.202,0.1,0.976
-0.257,0.039,1.108
-0.355,0.113,0.853
-0.278,0.013,0.925
-0.299,0.001,0.993
-0.362,0.015,0.854
-0.31,0.069,0.85
-0.213,-0.039,1.1
-0.282,0.082,1.031
-0.255,0.155,0.888
-0.219,-0.001,1.101
-0.359,0.053,0.94
-0.327,0.037,0.817
-0.254,0.02,0.975
-0.308,-0.037,0.982
-0.328,0.117,0.882
-0.2,0.034,1.029
-0.234,0.064,1.122
-0.316,0.11,0.885
-0.262,0.051,0.936
-0.307,-0.005,1.022
-0.359,0.034,0.83
-0.258,0.058,0.941
-0.226,-0.035,1.075
-0.29,0.067,0.981
-0.274,0.131,0.892
-0.203,0.029,1.12
-0.337,0.032,0.94
-0.34,0.106,0.751
-0.277,-0.038,1.02
-0.329,0.016,0.933
-0.287,0.064,0.92
-0.191,0.047,1.047
-0.253,0.022,1.075
-0.323,0.155,0.892
-0.235,0.02,0.946
-0.311,-0.005,1.032
-0.361,0.069,0.809
-0.255,-0.006,0.949
-0.272,0.019,1.043
-0.298,0.048,0.952
-0.242,0.153,0.974
-0.215,-0.025,1.061
-0.33,0.094,0.951
-0.317,0.076,0.802
-0.256,-0.025,1.036
-0.323,-0.005,0.926
-0.308,0.076,0.846
-0.216,0.022,1.082
-0.269,0.045,1.022
-0.286,0.167,0.949
-0.231,0.002,0.978
-0.287,-0.003,1.021
-0.382,0.071,0.809
-0.245,0.019,0.944
-0.272,-0.051,1.077
-0.299,0.12,0.916
-0.206,0.091,1.006
-0.23,0.073,1.077
-0.316,0.057,0.952
-0.321,0.107,0.83
-0.265,-0.063,1.012
-0.362,0.006,0.928
-0.289,0.074,0.839
-0.208,-0.04,1.092
-0.27,0.109,1.034
-0.27,0.136,0.906
-0.22,0.082,0.992
-0.315,-0.033,0.849
-0.357,-0.057,0.904
-0.261,-0.007,1.031
-0.316,0.087,0.893
-0.225,0.055,0.984
-0.223,0.066,1.145
-0.287,0.112,0.947
-0.281,0.094,0.895
-0.289,-0.053,0.99
-0.352,0.039,0.911
-0.319,0.034,0.803
-0.2,-0.023,1.071
-0.306,0.074,1
-0.26,0.161,0.918
-0.182,0.016,1.12
-0.298,0.071,1.009
-0.332,0.075,0.827
-0.29,0.002,0.89
-0.314,-0.036,1.005
-0.373,0.092,0.832
-0.21,-0.003,0.975
-0.252,0.058,1.118
-0.298,0.149,0.917
-0.229,0.041,0.965
-0.278,0.036,1.045
-0.356,0.008,0.823
-0.312,0.093,0.846
-0.239,-0.094,1.051
-0.29,0.08,1.017
-0.252,0.088,0.889
-0.188,0.056,1.126
-0.316,0.072,1.004
-0.31,0.086,0.844
-0.229,0.003,1.043
-0.314,-0.011,0.937
-0.342,0.085,0.839
-0.245,-0.019,0.963
-0.238,0.043,1.131
-0.306,0.133,0.929
-0.199,0.076,0.994
-0.282,0.001,1.061
-0.359,0.096,0.84
-0.268,0.011,0.914
-0.268,0,1.031
-0.313,0.006,0.934
-0.279,0.118,0.888
-0.178,0.019,1.161
-0.292,0.096,0.995
-0.292,0.097,0.858
-0.243,-0.02,1.056
-0.342,0.029,0.931
-0.336,0.053,0.824
-0.232,0.015,1.026
-0.257,-0.034,1.049
-0.308,0.163,0.881
-0.196,0.035,1.038
-0.269,0.071,1.098
-0.349,0.045,0.878
-0.239,0.033,0.942
-0.264,-0.027,1.062
-0.35,0.054,0.844
-0.259,0.066,0.952
-0.216,-0.007,1.098
-0.272,0.096,1.007
-0.278,0.129,0.875
-0.225,-0.005,1.098
-0.354,0.002,0.943
-0.308,0.075,0.779
-0.242,-0.026,1.044
-0.311,0.038,0.963
-0.3,0.095,0.911
-0.195,0.064,1.025
-0.253,0.028,1.079
-0.341,0.15,0.869
-0.243,-0.024,0.958
-0.296,0.001,1.045
-0.346,0.041,0.849
-0.246,0.046,0.96
-0.249,-0.008,1.062
-0.289,0.077,0.95
-0.258,0.154,0.928
-0.225,-0.011,1.1
-0.33,0.054,0.968
-0.336,0.055,0.761
-0.252,-0.013,1.036
-0.325,-0.017,0.963
-0.275,0.118,0.884
-0.208,0.023,1.082
-0.267,0.055,1.013
-0.31,0.142,0.929
-0.21,0.013,0.975
-0.284,-0.027,1.065
-0.374,0.094,0.803
-0.242,-0.003,0.947
-0.263,-0.006,1.088
-0.296,0.068,0.95
-0.234,0.12,0.953
-0.232,0.024,1.06
-0.309,0.082,0.973
-0.31,0.109,0.842
-0.257,-0.061,1.049
-0.344,0.05,0.924
-0.325,0.039,0.833
-0.219,0.027,1.055
-0.252,-0.011,0.919
-0.289,0.001,1
-0.204,0.045,1.082
-0.358,0.092,0.85
-0.263,0.026,0.9
-0.297,-0.037,1.046
-0.33,0.066,0.863
-0.249,0.037,0.955
-0.251,0.014,1.07
-0.276,0.091,1.027
-0.265,0.15,0.879
-0.207,-0.017,1.093
-0.362,0.063,0.934
-0.326,0.07,0.817
-0.236,-0.029,1.064
-0.281,0.015,1.003
-0.294,0.084,0.9
-0.205,0.036,1.027
-0.249,0.016,1.102
-0.325,0.181,0.887
-0.226,-0.007,0.961
-0.275,0.029,1.046
-0.366,0.037,0.831
-0.263,0.053,0.919
-0.268,-0.059,1.055
-0.285,0.067,0.961
-0.263,0.092,0.887
-0.186,0.041,1.126
-0.31,0.098,1.022
-0.31,0.106,0.821
-0.25,-0.036,1.062
-0.36,0.045,0.903
-0.347,0.053,0.799
-0.251,-0.001,0.986
-0.244,-0.025,1.098
-0.297,0.128,0.951
-0.166,0.059,1.014
-0.254,0.071,1.135
-0.347,0.108,0.857
-0.249,0.009,0.941
-0.276,0,1.024
-0.348,0.02,0.868
-0.308,0.077,0.832
-0.221,-0.058,1.106
-0.285,0.092,1.011
-0.264,0.118,0.86
-0.211,0.054,1.117
-0.357,0.022,0.926
-0.353,0.109,0.803
-0.273,-0.042,0.959
-0.33,-0.004,0.964
-0.344,0.045,0.857
-0.206,0.031,0.978
-0.232,0.023,1.173
-0.313,0.162,0.876
-0.212,0.055,0.989
-0.298,0.011,1.022
-0.353,0.033,0.826
-0.325,0.059,0.844
-0.256,-0.066,1.031
-0.311,0.005,0.96
-0.272,0.099,0.841
-0.178,0.023,1.171
-0.295,0.115,1.011
-0.299,0.107,0.838
-0.274,0.037,0.997
-0.366,-0.019,0.92
-0.36,0.073,0.804
-0.245,-0.05,0.942
-0.256,-0.005,1.088
-0.304,0.094,0.925
-0.163,0.107,1.037
-0.246,0.038,1.121
-0.334,0.111,0.861
-0.294,0.038,0.894
-0.298,-0.017,0.959
-0.355,-0.018,0.889
-0.326,0.092,0.802
-0.211,-0.071,1.103
-0.299,0.09,0.999
-0.262,0.135,0.885
-0.214,0.054,1.074
-0.307,0.031,0.978
-0.361,0.099,0.861
-0.249,-0.014,0.927
-0.307,-0.052,0.986
-0.357,0.103,0.839
-0.213,0.006,0.977
-0.245,0.036,1.123
-0.286,0.102,0.924
-0.252,0.142,0.941
-0.278,-0.033,1.027
-0.339,0.066,0.931
-0.324,0.034,0.78
-0.268,-0.031,0.995
-0.323,-0.014,0.999
-0.27,0.114,0.872
-0.189,0,1.115
-0.281,0.086,1.001
-0.314,0.121,0.882
-0.257,0.024,0.95
-0.326,-0.039,0.99
-0.379,0.111,0.835
-0.242,-0.038,1.097
-0.263,-0.017,0.905
-0.311,0.103,0.971
-0.238,0.045,1.095
-0.29,0.087,0.976
-0.298,0.097,0.864
-0.259,-0.077,0.981
-0.365,0.055,0.931
-0.329,0.05,0.81
-0.214,-0.006,1.093
-0.299,0.018,1.002
-0.293,0.179,0.879
-0.218,0.013,1.021
-0.281,0.046,1.065
-0.356,0.082,0.855
-0.263,-0.006,0.881
-0.287,-0.038,1.046
-0.35,0.096,0.833
-0.235,0.015,0.968
-0.235,0.039,1.106
-0.295,0.087,0.983
-0.25,0.137,0.908
-0.219,-0.019,1.079
-0.352,0.055,0.925
-0.33,0.06,0.757
-0.243,-0.036,1.054
-0.309,0.033,1.009
-0.281,0.072,0.895
-0.189,0.049,1.077
-0.237,0.036,1.096
-0.312,0.169,0.879
-0.238,-0.018,0.957
-0.291,0.035,1.043
-0.377,0.044,0.823
-0.231,0.021,0.945
-0.261,-0.029,1.073
-0.326,0.087,0.882
-0.252,0.107,0.946
-0.198,0.018,1.11
-0.316,0.083,0.973
-0.314,0.08,0.793
-0.241,-0.043,1.078
-0.344,0.031,0.929
-0.302,0.055,0.818
-0.221,0.01,1.082
-0.277,0.029,1.008
-0.31,0.127,0.91
-0.175,0.055,1.043
-0.273,0.009,1.081
-0.369,0.117,0.827
-0.259,-0.028,0.907
-0.292,0.005,1.035
-0.344,0.014,0.842
-0.229,0.099,0.973
-0.234,-0.016,1.082
-0.289,0.128,0.947
-0.27,0.109,0.892
-0.219,-0.007,1.108
-0.339,0.011,0.956
-0.344,0.084,0.743
-0.249,-0.014,1.066
-0.321,0.007,0.972
-0.269,0.098,0.918
-0.184,0.03,1.03
-0.257,0.066,1.044
-0.348,0.135,0.865
-0.243,0.013,0.963
-0.299,-0.041,1.055
-0.351,0.091,0.834
-0.24,0.008,0.976
-0.26,0.021,1.074
-0.293,0.028,0.932
-0.252,0.173,0.92
-0.216,-0.017,1.085
-0.33,0.104,0.974
-0.296,0.06,0.831
-0.241,-0.013,1.043
-0.315,-0.004,0.98
-0.29,0.092,0.875
-0.217,0,1.037
-0.264,0.022,1.037
-0.314,0.189,0.92
-0.211,0.029,0.988
-0.282,0.017,1.049
-0.376,0.079,0.814
-0.269,0.044,0.915
-0.301,-0.043,1.045
-0.294,0.07,0.925
-0.255,0.075,0.901
-0.229,0.035,1.059
-0.296,0.085,1.017
-0.269,0.121,0.861
-0.239,-0.052,1.082
-0.34,0.059,0.939
-0.297,0.047,0.845
-0.237,-0.001,1.055
-0.286,0.007,1.011
-0.3,0.145,0.903
-0.216,0.036,0.975
-0.269,0.03,1.097
-0.341,0.126,0.881
-0.241,-0.029,0.906
-0.279,0.01,1.054
-0.338,0.026,0.867
-0.234,0.077,1.078
-0.235,-0.01,0.976
-0.277,0.128,0.857
-0.279,-0.004,1.071
-0.347,0.031,0.96
-0.328,0.087,0.784
-0.237,-0.055,1.078
-0.295,0.024,0.997
-0.28,0.092,0.88
-0.207,0.059,1.055
-0.254,0.044,1.091
-0.332,0.133,0.869
-0.251,0.007,0.92
-0.318,-0.026,1.02
-0.376,0.086,0.819
-0.23,-0.031,0.937
-0.243,0.047,1.114
-0.297,0.064,0.955
-0.235,0.147,0.961
-0.229,-0.013,1.092
-0.322,0.083,0.964
-0.311,0.04,0.8
-0.249,-0.03,1.022
-0.339,0.019,0.941
-0.298,0.055,0.831
-0.184,0.042,1.131
-0.255,0.056,1.033
-0.307,0.159,0.87
-0.251,0.004,0.964
-0.305,0.009,1.026
-0.388,0.047,0.794
-0.25,0.01,0.892
-0.271,-0.032,1.117
-0.322,0.108,0.91
-0.21,0.083,1.012
-0.236,0.069,1.086
-0.324,0.067,0.915
-0.334,0.084,0.815
-0.267,-0.064,1.053
-0.346,0.024,0.916
-0.299,0.06,0.824
-0.178,-0.024,1.148
-0.265,0.079,1.02
-0.254,0.123,0.915
-0.208,0.079,1.07
-0.323,-0.021,0.987
-0.362,0.114,0.833
-0.24,-0.038,0.958
-0.278,-0.014,1.06
-0.337,0.037,0.852
-0.192,0.069,1.008
-0.223,0.057,1.147
-0.302,0.119,0.92
-0.251,0.1,0.958
-0.277,-0.058,1.005
-0.348,0.048,0.88
-0.323,0.053,0.823
-0.195,-0.033,1.129
-0.285,0.026,1.039
-0.25,0.144,0.901
-0.183,0.055,1.143
-0.308,0.084,0.983
-0.35,0.075,0.842
-0.278,0.015,0.92
-0.325,-0.053,0.983
-0.352,0.077,0.836
-0.202,-0.011,0.985
-0.258,0.035,1.068
-0.308,0.149,0.922
-0.223,0.083,0.992
-0.289,0.017,1.042
-0.359,0.017,0.848
-0.307,0.082,0.861
-0.253,-0.096,1.025
-0.306,0.056,0.934
-0.274,0.096,0.881
-0.186,0.049,1.124
-0.291,0.061,1.016
-0.308,0.147,0.857
-0.24,-0.017,1.038
-0.333,-0.006,0.929
-0.351,0.093,0.845
-0.237,-0.03,0.943
-0.262,-0.03,1.077
-0.322,0.147,0.893
-0.187,0.081,1.042
-0.227,0.045,1.124
-0.32,0.088,0.887
-0.312,0.058,0.84
-0.311,-0.039,0.94
-0.365,0.015,0.915
-0.28,0.074,0.864
-0.191,-0.054,1.13
-0.279,0.119,1.047
-0.244,0.111,0.918
-0.198,0.061,1.109
-0.327,-0.004,0.961
-0.364,0.132,0.818
-0.289,-0.051,0.886
-0.287,-0.019,1.046
-0.328,0.062,0.894
-0.199,0.035,0.988
-0.23,0.042,1.14
-0.304,0.148,0.92
-0.242,0.083,1.009
-0.302,0.005,0.9
-0.355,0.074,0.806
-0.208,-0.077,1.07
-0.309,0.064,1.017
-0.259,0.071,0.879
-0.175,0.046,1.154
-0.25,0.088,1.043
-0.317,0.151,0.884
-0.269,0.009,0.92
-0.326,-0.031,1.015
-0.38,0.096,0.787
-0.232,-0.032,0.932
-0.262,0.015,1.098
-0.31,0.057,0.899
-0.208,0.099,1.004
-0.215,0.024,1.109
-0.288,0.109,0.975
-0.312,0.085,0.826
-0.239,-0.021,1.065
-0.363,0.035,0.93
-0.326,0.073,0.79
-0.232,-0.049,1.081
-0.292,0.033,0.99
-0.308,0.077,0.888
-0.205,0.065,0.997
-0.241,0.017,1.131
-0.319,0.169,0.879
-0.21,0.008,0.965
-0.32,0.04,1.026
-0.374,0.029,0.809
-0.307,0.064,0.849
-0.266,-0.065,1.03
-0.327,0.045,0.943
-0.293,0.063,0.831
-0.167,0.023,1.18
-0.295,0.081,1.016
-0.278,0.177,0.903
-0.228,0.001,1.06
-0.32,0.015,0.971
-0.359,0.064,0.816
-0.238,0.003,0.923
-0.277,-0.045,1.07
-0.322,0.09,0.853
-0.209,0.038,1.013
-0.255,0.012,1.08
-0.29,0.066,0.976
-0.231,0.149,0.944
-0.192,0.01,1.131
-0.328,0.066,1.007
-0.313,0.082,0.813
-0.23,-0.007,1.091
-0.34,0.006,0.921
-0.332,0.088,0.847
-0.212,-0.031,0.991
-0.261,-0.033,1.098
-0.323,0.153,0.863
-0.18,0.053,1.031
-0.241,0.082,1.129
-0.298,0.082,0.927
-0.286,0.125,0.889
-0.275,-0.088,1.013
-0.352,0.066,0.931
-0.302,0.047,0.794
-0.222,-0.028,1.077
-0.341,-0.008,0.937
-0.313,0.124,0.862
-0.225,-0.023,0.996
-0.267,0.027,1.07
-0.313,0.151,0.922
-0.165,0.054,1.014
-0.254,0.026,1.123
-0.371,0.089,0.825
-0.292,0.055,0.886
-0.274,-0.053,1.021
-0.34,0.05,0.953
-0.313,0.058,0.79
-0.194,-0.045,1.136
-0.31,0.035,1.004
-0.288,0.121,0.859
-0.204,0.019,1.049
-0.23,0.064,1.141
-0.315,0.149,0.887
-0.18,0.038,0.99
-0.308,0.004,1.084
-0.387,0.104,0.799
-0.303,0.03,0.882
-0.263,-0.05,1.031
-0.339,0.016,0.93
-0.297,0.088,0.812
-0.183,-0.04,1.17
-0.31,0.045,1.004
-0.27,0.13,0.864
-0.204,0.046,1.083
-0.252,0.041,1.064
-0.338,0.145,0.877
-0.211,0.024,0.975
-0.291,-0.014,1.116
-0.353,0.083,0.815
-0.263,0.021,0.908
-0.264,-0.022,1.058
-0.317,-0.005,0.933
-0.285,0.098,0.836
-0.173,-0.055,0.98
-0.307,0.074,0.87
-0.28,0.044,1.04
-0.219,0.033,1.032
-0.378,0.159,0.838
-0.22,-0.006,0.974
-0.288,-0.008,1.12
-0.35,0.097,0.825
-0.264,0.023,0.901
-0.276,-0.041,1.022
-0.315,-0.004,0.975
-0.263,0.115,0.87
-0.174,-0.036,1.177
-0.318,0.114,0.972
-0.279,0.135,0.861
-0.229,0.064,1.039
-0.294,-0.013,1.035
-0.379,0.145,0.839
-0.214,-0.028,0.943
-0.286,-0.02,1.078
-0.371,0.08,0.795
-0.277,0.036,0.895
-0.266,-0.056,1.024
-0.31,0.022,1.023
-0.273,0.115,0.86
-0.148,-0.029,1.209
-0.288,0.116,1.007
-0.311,0.14,0.827
-0.228,0.052,0.999
-0.291,-0.01,1.076
-0.362,0.138,0.848
-0.223,-0.038,0.924
-0.321,0.021,1.061
-0.379,0.079,0.796
-0.278,0.036,0.904
-0.247,-0.052,1.063
-0.301,0.023,1.007
-0.263,0.125,0.831
-0.17,0.01,1.193
-0.317,0.111,0.965
-0.304,0.116,0.828
-0.224,0.053,1.04
-0.313,-0.03,1.006
-0.378,0.136,0.84
-0.225,-0.035,0.928
-0.301,0.02,1.083
-0.376,0.041,0.8
-0.256,0.059,0.929
-0.222,-0.068,1.068
-0.31,0.034,0.964
-0.271,0.126,0.815
-0.181,0.01,1.175
-0.304,0.101,0.984
-0.289,0.134,0.879
-0.228,0.022,0.994
-0.3,-0.026,1.037
-0.378,0.144,0.799
-0.249,-0.028,0.936
-0.302,0.01,1.084
-0.338,0.043,0.863
-0.257,0.076,0.908
-0.248,-0.076,1.055
-0.302,0.049,1.011
-0.252,0.127,0.862
-0.164,-0.006,1.158
-0.311,0.098,0.977
-0.288,0.114,0.875
-0.234,0.037,0.964
-0.307,-0.036,1.041
-0.39,0.148,0.809
-0.232,-0.028,0.948
-0.301,0.001,1.032
-0.351,0.049,0.867
-0.282,0.055,0.867
-0.211,-0.077,1.088
-0.301,0.044,1.037
-0.277,0.118,0.809
-0.189,0.025,1.174
-0.281,0.076,0.997
-0.321,0.148,0.835
-0.224,0.038,0.941
-0.293,0.011,1.094
-0.398,0.137,0.805
-0.229,-0.019,0.942
-0.287,-0.005,1.023
-0.365,0.047,0.844
-0.308,0.052,0.809
-0.203,-0.054,1.138
-0.317,0.026,1.017
-0.293,0.125,0.797
-0.203,-0.013,1.118
-0.288,0.053,0.994
-0.305,0.148,0.885
-0.176,0.048,0.984
-0.269,0.034,1.139
-0.378,0.115,0.801
-0.253,0.06,0.938
-0.289,-0.053,1.028
-0.347,0.063,0.896
-0.302,0.056,0.791
-0.225,-0.041,1.12
-0.347,0.015,0.952
-0.281,0.11,0.857
-0.208,-0.014,1.056
-0.268,-0.031,1.038
-0.331,0.189,1.001
-0.165,0.036,1.104
-0.267,0.102,0.851
-0.344,0.101,0.886
-0.304,-0.06,0.995
-0.36,0.065,0.957
-0.31,0.055,0.77
-0.22,-0.039,1.117
-0.351,0.013,0.905
-0.347,0.103,0.817
-0.2,-0.041,0.992
-0.248,-0.04,1.113
-0.346,0.154,0.882
-0.2,0.002,0.981
-0.256,0.044,1.111
-0.301,0.073,0.955
-0.257,0.143,0.893
-0.187,-0.002,1.143
-0.329,0.079,0.988
-0.329,0.125,0.744
-0.268,-0.022,1.053
-0.321,-0.005,0.981
-0.361,0.09,0.849
-0.195,-0.036,0.924
-0.29,0.015,1.102
-0.375,0.047,0.786
-0.26,0.047,0.921
-0.217,-0.075,1.131
-0.289,0.081,1.014
-0.263,0.084,0.846
-0.169,0.032,1.185
-0.296,0.068,0.986
-0.309,0.159,0.827
-0.211,0.025,1.02
-0.254,0.012,1.103
-0.388,0.174,0.799
-0.246,-0.015,0.915
-0.319,0.004,1.014
-0.377,0.015,0.823
-0.294,0.086,0.846
-0.213,-0.072,1.108
-0.316,0.037,0.996
-0.289,0.098,0.799
-0.218,-0.041,1.095
-0.283,0.001,1.023
-0.315,0.148,0.905
-0.157,0.029,1.027
-0.233,0.038,1.173
-0.322,0.161,0.874
-0.232,0.098,0.951
-0.281,-0.035,1.008
-0.338,0.076,0.964
-0.323,0.083,0.8
-0.223,-0.033,1.123
-0.347,0.002,0.913
-0.347,0.111,0.788
-0.245,-0.058,0.965
-0.272,-0.011,1.069
-0.322,0.102,0.893
-0.176,0.011,0.984
-0.257,0.047,1.135
-0.311,0.119,0.894
-0.253,0.119,0.898
-0.222,-0.028,1.084
-0.327,0.09,0.998
-0.322,0.069,0.764
-0.242,0.004,1.078
-0.35,-0.023,0.913
-0.36,0.109,0.788
-0.213,-0.073,0.987
-0.232,0.019,1.149
-0.337,0.114,0.867
-0.174,0.059,1.018
-0.247,0.04,1.102
-0.35,0.127,0.836
-0.31,0.104,0.877
-0.254,-0.043,1.078
-0.339,0.035,0.984
-0.319,0.08,0.729
-0.238,-0.02,1.067
-0.353,-0.004,0.914
-0.327,0.085,0.844
-0.2,-0.006,1.022
-0.256,0.005,1.073
-0.339,0.165,0.863
-0.19,0.073,1.003
-0.289,0.031,1.073
-0.382,0.064,0.797
-0.294,0.054,0.88
-0.294,-0.042,0.977
-0.349,0.013,0.929
-0.291,0.079,0.838
-0.2,-0.065,1.139
-0.293,0.083,1.023
-0.249,0.142,0.924
-0.201,0.068,1.084
-0.286,0.009,1.007
-0.354,0.154,0.874
-0.228,-0.04,0.948
-0.292,0,1.074
-0.338,0.072,0.836
-0.232,0.046,0.966
-0.259,-0.044,1.052
-0.285,0.093,0.976
-0.255,0.128,1.099
-0.201,0.028,0.968
-0.357,0.086,0.782
-0.329,-0.028,1.074
-0.342,0.04,0.935
-0.334,0.085,0.843
-0.245,-0.015,0.967
-0.25,-0.04,1.108
-0.316,0.161,0.922
-0.169,0.05,1.017
-0.246,0.063,1.139
-0.352,0.101,0.85
-0.284,0.051,0.896
-0.277,-0.034,1.014
-0.346,0.014,0.907
-0.305,0.073,0.796
-0.215,-0.074,1.094
-0.289,0.099,1.023
-0.27,0.127,0.867
-0.186,0.061,1.147
-0.304,0.028,0.996
-0.367,0.125,0.803
-0.278,-0.044,0.911
-0.297,-0.018,1.031
-0.357,0.068,0.845
-0.196,0.008,0.953
-0.249,0.018,1.11
-0.31,0.166,0.913
-0.227,0.073,0.977
-0.259,0.038,1.057
-0.364,0.033,0.899
-0.341,0.097,0.79
-0.247,-0.094,1.045
-0.331,0.056,0.971
-0.286,0.047,0.843
-0.192,0.04,1.14
-0.276,0.074,1.015
-0.304,0.161,0.888
-0.241,0.023,0.992
-0.324,-0.028,0.986
-0.38,0.081,0.798
-0.262,-0.034,0.883
-0.292,0.019,1.071
-0.338,0.055,0.866
-0.199,0.086,1.002
-0.226,0.027,1.09
-0.326,0.123,0.894
-0.307,0.075,0.877
-0.263,-0.028,1.024
-0.347,-0.014,0.933
-0.315,0.082,0.762
-0.213,-0.045,1.124
-0.305,0.062,0.992
-0.266,0.116,0.934
-0.198,0.09,1.056
-0.281,0.022,1.01
-0.371,0.112,0.827
-0.257,-0.029,0.905
-0.291,-0.022,1.044
-0.349,0.075,0.836
-0.233,0.031,0.968
-0.262,0.017,1.07
-0.31,0.088,0.907
-0.252,0.152,0.95
-0.255,-0.03,1.042
-0.349,0.063,0.89
-0.339,0.043,0.772
-0.239,-0.033,1.053
-0.319,-0.001,0.983
-0.271,0.12,0.86
-0.192,0.02,1.087
-0.278,0.074,1
-0.304,0.127,0.92
-0.248,0.016,0.946
-0.3,-0.059,1.006
-0.383,0.09,0.786
-0.231,-0.005,0.935
-0.272,-0.012,1.079
-0.286,0.092,0.941
-0.225,0.11,0.972
-0.226,0.039,1.087
-0.326,0.046,0.955
-0.304,0.102,0.832
-0.272,-0.078,0.992
-0.344,0.034,0.924
-0.313,0.044,0.824
-0.221,0.02,1.09
-0.28,0.024,1.022
-0.286,0.182,0.909
-0.21,0.019,1.035
-0.313,0.017,1.009
-0.35,0.082,0.856
-0.269,-0.014,0.866
-0.288,-0.037,1.05
-0.324,0.075,0.883
-0.2,0.068,0.996
-0.241,0.022,1.083
-0.301,0.123,0.942
-0.299,0.074,0.883
-0.276,-0.008,0.967
-0.376,0.009,0.893
-0.327,0.066,0.787
-0.199,-0.086,1.111
-0.279,0.091,1.017
-0.252,0.123,0.916
-0.198,0.07,0.973
-0.299,0.04,0.818
-0.379,-0.02,0.904
-0.277,-0.063,0.987
-0.352,0.107,0.85
-0.214,-0.012,0.967
-0.221,0.069,1.138
-0.312,0.108,0.887
-0.267,0.124,0.95
-0.289,-0.04,1.003
-0.357,0.062,0.868
-0.347,0.046,0.806
-0.263,-0.066,1.012
-0.308,0.031,0.998
-0.276,0.118,0.857
-0.181,0.051,1.15
-0.304,0.066,0.972
-0.331,0.116,0.834
-0.256,-0.034,0.972
-0.313,0.013,0.967
-0.358,0.051,0.854
-0.244,0.019,0.928
-0.249,0.007,1.15
-0.305,0.173,0.891
-0.199,0.043,1.016
-0.278,0.037,1.04
-0.359,0.054,0.85
-0.308,0.06,0.866
-0.276,-0.036,1.014
-0.321,0.015,0.948
-0.282,0.102,0.859
-0.172,0.003,1.14
-0.276,0.135,1.037
-0.32,0.08,0.832
-0.255,0.017,1.014
-0.352,-0.032,0.894
-0.356,0.092,0.784
-0.24,-0.04,0.978
-0.27,0.033,1.057
-0.311,0.121,0.899
-0.219,0.064,0.946
-0.276,0.025,1.106
-0.373,0.072,0.794
-0.282,0.024,0.881
-0.315,-0.03,0.991
-0.348,0.054,0.863
-0.276,0.058,0.927
-0.193,0.018,1.098
-0.314,0.075,0.968
-0.305,0.142,0.839
-0.23,-0.056,1.092
-0.344,0.05,0.92
-0.326,0.053,0.816
-0.24,0.007,1.039
-0.297,0.004,0.993
-0.312,0.14,0.895
-0.208,0.069,1.009
-0.281,0.015,1.056
-0.368,0.105,0.817
-0.261,-0.018,0.912
-0.297,0.01,1.043
-0.326,0.021,0.865
-0.233,0.083,0.978
-0.222,-0.002,1.109
-0.299,0.139,0.949
-0.28,0.112,0.898
-0.253,-0.026,1.057
-0.33,0.014,0.945
-0.322,0.082,0.778
-0.236,-0.016,1.083
-0.317,0.011,0.964
-0.25,0.111,0.927
-0.197,0.061,1.059
-0.29,0.079,1.008
-0.35,0.083,0.883
-0.271,0.014,0.871
-0.313,-0.052,1.018
-0.378,0.083,0.794
-0.215,-0.025,0.992
-0.254,0.042,1.104
-0.291,0.102,0.942
-0.246,0.139,0.965
-0.261,0.008,1.025
-0.357,0.014,0.904
-0.321,0.076,0.792
-0.241,-0.074,1.06
-0.326,0.054,0.928
-0.294,0.082,0.867
-0.196,0.069,1.107
-0.283,0.058,1.023
-0.299,0.15,0.917
-0.248,-0.006,0.968
-0.342,-0.006,0.928
-0.388,0.075,0.829
-0.225,-0.036,0.949
-0.241,-0.005,1.106
-0.303,0.144,0.905
-0.202,0.113,1.024
-0.273,0.039,1.081
-0.327,0.065,0.895
-0.308,0.057,0.859
-0.287,-0.048,0.972
-0.339,-0.008,0.935
-0.264,0.109,0.868
-0.188,-0.009,1.013
-0.296,0.132,0.872
-0.29,0.097,1.026
-0.251,0.01,0.939
-0.336,0.06,0.813
-0.269,-0.001,0.895
-0.281,-0.039,1.056
-0.308,0.158,0.917
-0.191,0.026,0.993
-0.252,0.083,1.12
-0.338,0.06,0.87
-0.268,0.072,0.913
-0.275,-0.053,1.029
-0.324,0.046,0.898
-0.281,0.069,0.875
-0.223,-0.005,1.1
-0.284,0.104,1.052
-0.25,0.111,0.902
-0.213,0.009,1.075
-0.357,0.026,0.916
-0.33,0.087,0.81
-0.245,-0.044,1.017
-0.274,0.032,1.007
-0.308,0.124,0.924
-0.201,0.057,0.99
-0.256,0.012,1.117
-0.354,0.127,0.843
-0.265,-0.009,0.897
-0.308,0.004,1.025
-0.338,0.046,0.86
-0.248,0.047,0.961
-0.219,0.027,1.085
-0.287,0.088,0.981
-0.298,0.142,0.859
-0.244,-0.044,1.083
-0.36,0.073,0.946
-0.302,0.025,0.822
-0.224,-0.017,1.043
-0.304,0.018,0.992
-0.287,0.127,0.883
-0.201,0.073,1.077
-0.27,0.032,1.041
-0.351,0.133,0.844
-0.262,-0.037,0.929
-0.293,-0.006,1.051
-0.356,0.036,0.83
-0.219,0.027,0.95
-0.229,0.018,1.139
-0.271,0.14,0.963
-0.233,0.108,0.963
-0.274,0.018,1.026
-0.359,0.03,0.881
-0.355,0.079,0.775
-0.252,-0.057,1.053
-0.346,0.026,0.947
-0.278,0.075,0.865
-0.172,0.051,1.158
-0.283,0.103,1.023
-0.321,0.094,0.889
-0.263,0.016,0.96
-0.31,-0.056,1.008
-0.364,0.101,0.818
-0.225,-0.04,0.972
-0.256,0.035,1.1
-0.306,0.111,0.913
-0.193,0.098,1.004
-0.251,0.038,1.097
-0.366,0.046,0.84
-0.301,0.069,0.865
-0.256,-0.084,1.026
-0.334,0.063,0.919
-0.27,0.075,0.884
-0.191,0.047,1.132
-0.288,0.048,1.007
-0.296,0.124,0.835
-0.236,-0.001,1.062
-0.329,0.023,0.929
-0.34,0.068,0.843
-0.225,-0.022,1.02
-0.254,0.012,1.058
-0.308,0.131,0.898
-0.214,0.079,0.973
-0.278,-0.011,1.076
-0.354,0.092,0.837
-0.256,0.001,0.921
-0.287,0.014,1.037
-0.319,-0.004,0.917
-0.249,0.117,0.957
-0.187,0.004,1.129
-0.294,0.102,0.97
-0.309,0.118,0.832
-0.259,-0.064,1.049
-0.341,0.029,0.908
-0.313,0.05,0.807
-0.226,0.03,1.057
-0.287,-0.013,1.003
-0.291,0.178,0.917
-0.207,0.026,1.005
-0.315,0.034,0.999
-0.389,0.063,0.793
-0.281,0.005,0.871
-0.295,-0.033,1.044
-0.327,0.057,0.891
-0.211,0.079,1.001
-0.225,0.03,1.089
-0.292,0.123,0.899
-0.28,0.074,1.007
-0.264,-0.019,0.895
-0.37,0.098,0.805
-0.206,-0.08,1.096
-0.278,0.075,1.012
-0.255,0.143,0.93
-0.204,0.064,1.073
-0.295,0.023,0.961
-0.353,0.089,0.838
-0.273,0.002,0.885
-0.319,-0.066,0.974
-0.337,0.118,0.885
-0.206,-0.006,1.004
-0.216,0.075,1.14
-0.31,0.107,0.892
-0.27,0.115,0.943
-0.288,-0.046,1.037
-0.355,0.051,0.873
-0.311,0.055,0.833
-0.263,-0.064,1.006
-0.298,0.054,1.017
-0.254,0.121,0.879
-0.199,0.049,1.14
-0.305,0.039,0.997
-0.308,0.109,0.827
-0.262,-0.025,0.967
-0.326,0.001,0.939
-0.323,0.038,0.888
-0.229,0.049,0.981
-0.248,0.018,1.09
-0.334,0.182,0.889
-0.236,0.029,0.971
-0.292,-0.02,1.04
-0.357,0.076,0.81
-0.296,0.017,0.874
-0.265,-0.003,1.064
-0.276,0.031,1.018
-0.254,0.16,0.912
-0.21,-0.016,1.101
-0.325,0.099,0.992
-0.306,0.048,0.824
-0.246,-0.015,1.036
-0.335,0.015,0.923
-0.311,0.072,0.861
-0.221,0.024,1.055
-0.252,0.052,1.073
-0.307,0.181,0.923
-0.25,-0.012,0.932
-0.3,0.008,1.047
-0.376,0.046,0.785
-0.273,0.029,0.911
-0.271,-0.033,1.071
-0.313,0.095,0.903
-0.224,0.108,1
-0.231,0.05,1.069
-0.325,0.061,0.948
-0.333,0.072,0.794
-0.246,-0.061,1.026
-0.35,0.022,0.933
-0.302,0.086,0.832
-0.199,-0.024,1.112
-0.267,0.128,1.042
-0.281,0.114,0.9
-0.237,0.071,1.018
-0.307,-0.055,1.007
-0.382,0.116,0.799
-0.252,-0.038,0.884
-0.265,-0.007,1.112
-0.314,0.094,0.872
-0.206,0.068,1.013
-0.242,0.096,1.118
-0.315,0.045,0.924
-0.269,0.107,0.909
-0.276,-0.07,0.988
-0.345,0.049,0.903
-0.321,0.032,0.833
-0.184,0.017,1.146
-0.276,0.089,1.034
-0.266,0.142,0.894
-0.199,0.037,1.103
-0.33,0.015,0.956
-0.332,0.079,0.811
-0.253,-0.033,0.965
-0.276,-0.016,1.031
-0.325,0.088,0.866
-0.19,0.085,1.011
-0.234,0.037,1.169
-0.325,0.123,0.89
-0.227,0.012,0.961
-0.29,0.028,1.02
-0.346,0.017,0.854
-0.283,0.072,0.904
-0.207,-0.054,1.075
-0.298,0.095,0.978
-0.269,0.171,0.881
-0.216,-0.025,1.118
-0.328,0.046,0.931
-0.323,0.049,0.808
-0.225,0.02,1.06
-0.306,-0.027,0.992
-0.301,0.134,0.886
-0.207,0.029,1.023
-0.246,0.063,1.077
-0.345,0.113,0.939
-0.251,0.01,1.073
-0.287,0.035,0.848
-0.339,0.045,0.94
-0.236,-0.011,1.097
-0.288,0.106,0.969
-0.249,0.118,0.955
-0.225,0.014,1.092
-0.349,0.025,0.932
-0.323,0.093,0.8
-0.228,-0.067,1.074
-0.311,0.024,0.988
-0.269,0.075,0.875
-0.209,0.074,1.093
-0.278,0.063,1.022
-0.325,0.126,0.908
-0.237,0.021,0.956
-0.326,-0.041,0.975
-0.378,0.093,0.777
-0.232,-0.05,0.962
-0.247,0.024,1.106
-0.269,0.093,0.948
-0.208,0.162,1.021
-0.26,0.012,1.052
-0.351,0.04,0.918
-0.295,0.065,0.863
-0.249,-0.061,1.026
-0.338,0.036,0.909
-0.303,0.077,0.867
-0.188,0.033,1.133
-0.271,0.067,1.02
-0.292,0.159,0.879
-0.269,-0.01,1
-0.326,0,0.96
-0.339,0.063,0.863
-0.226,-0.013,0.944
-0.274,-0.02,1.067
-0.318,0.139,0.929
-0.181,0.072,1.021
-0.248,0.036,1.108
-0.338,0.096,0.842
-0.31,0.051,0.86
-0.298,-0.035,0.978
-0.326,0.001,0.94
-0.286,0.116,0.879
-0.227,-0.019,1.092
-0.31,0.105,0.994
-0.289,0.094,0.86
-0.23,-0.001,1.081
-0.333,0.017,0.947
-0.35,0.065,0.812
-0.254,-0.006,0.96
-0.293,-0.029,1.021
-0.298,0.154,0.93
-0.211,0.022,0.974
-0.289,0.058,1.051
-0.368,0.07,0.848
-0.274,0.033,0.885
-0.295,-0.046,1.047
-0.311,0.049,0.896
-0.264,0.059,0.925
-0.222,0.015,1.074
-0.288,0.099,0.984
-0.299,0.114,0.837
-0.278,-0.02,0.986
-0.369,-0.002,0.925
-0.323,0.081,0.788
-0.233,-0.06,1.051
-0.29,0.052,0.982
-0.279,0.102,0.925
-0.216,0.07,1.015
-0.289,0.031,1.022
-0.374,0.111,0.828
-0.276,-0.036,0.859
-0.299,-0.026,1.038
-0.328,0.094,0.857
-0.229,0.009,0.971
-0.232,0.05,1.111
-0.288,0.088,0.937
-0.276,0.141,0.891
-0.281,-0.034,1.045
-0.342,0.031,0.897
-0.338,0.049,0.762
-0.235,-0.045,1.053
-0.304,0.037,1.005
-0.277,0.119,0.88
-0.188,0.061,1.122
-0.3,0.055,0.986
-0.347,0.124,0.846
-0.271,-0.043,0.917
-0.303,-0.013,0.968
-0.371,0.055,0.826
-0.23,0.017,0.929
-0.231,0.02,1.177
-0.289,0.149,0.901
-0.213,0.051,0.98
-0.285,0.025,1.045
-0.341,0.037,0.883
-0.303,0.047,0.851
-0.248,-0.04,1.028
-0.312,0.028,0.976
-0.289,0.117,0.837
-0.186,0.006,1.155
-0.31,0.126,0.982
-0.322,0.062,1
-0.254,0.023,0.924
-0.334,0.073,0.819
-0.36,-0.028,0.962
-0.271,0.027,1.088
-0.309,0.139,0.908
-0.211,0.059,0.942
-0.302,0.043,1.082
-0.361,0.042,0.815
-0.271,0.051,0.917
-0.274,-0.037,1.025
-0.319,0.063,0.929
-0.259,0.077,0.96
-0.182,0.037,1.117
-0.3,0.07,1.01
-0.316,0.125,0.802
-0.227,-0.036,1.097
-0.347,0.032,0.888
-0.309,0.06,0.854
-0.206,0.004,1.067
-0.269,0.032,1.007
-0.318,0.142,0.913
-0.22,0.072,0.992
-0.276,-0.031,1.091
-0.371,0.115,0.806
-0.251,-0.011,0.93
-0.305,0.008,1.027
-0.32,0.021,0.907
-0.206,0.091,0.993
-0.212,0.048,1.107
-0.3,0.105,0.966
-0.299,0.103,0.832
-0.253,-0.071,1.016
-0.359,0.046,0.898
-0.327,0.038,0.788
-0.209,0.013,1.115
-0.284,0.025,1.008
-0.263,0.159,0.929
-0.196,0.053,1.064
-0.327,0.039,0.964
-0.369,0.071,0.844
-0.258,-0.026,0.886
-0.297,-0.023,1.029
-0.352,0.07,0.842
-0.191,0.048,1.027
-0.231,0.035,1.14
-0.294,0.15,0.933
-0.276,0.071,0.949
-0.322,-0.01,0.953
-0.372,-0.009,0.885
-0.311,0.09,0.838
-0.203,-0.082,1.104
-0.299,0.092,0.984
-0.266,0.135,0.89
-0.208,0.063,1.123
-0.289,0.04,1.012
-0.325,0.071,0.853
-0.271,0.014,0.942
-0.33,-0.056,0.963
-0.329,0.116,0.884
-0.185,-0.03,1
-0.221,0.077,1.116
-0.321,0.129,0.886
-0.241,0.072,0.973
-0.258,-0.032,1.084
-0.34,0.06,0.852
-0.305,0.065,0.883
-0.28,-0.059,1.032
-0.297,0.06,0.988
-0.254,0.118,0.904
-0.195,0.039,1.123
-0.318,0.055,1.004
-0.31,0.088,0.811
-0.249,-0.03,1.024
-0.321,0.025,0.937
-0.332,0.046,0.877
-0.229,0.026,0.995
-0.254,0.027,1.103
-0.308,0.17,0.924
-0.211,0.021,0.964
-0.306,-0.011,1.048
-0.363,0.083,0.835
-0.262,0.01,0.931
-0.255,0.009,1.057
-0.298,0.036,0.955
-0.262,0.153,0.91
-0.225,-0.015,1.075
-0.332,0.112,0.977
-0.328,0.043,0.812
-0.266,-0.033,0.995
-0.359,0.021,0.914
-0.31,0.066,0.847
-0.2,-0.006,1.096
-0.26,0.062,1.051
-0.31,0.191,0.885
-0.246,-0.005,0.97
-0.313,0.016,1.012
-0.368,0.059,0.813
-0.257,-0.005,0.898
-0.265,-0.05,1.092
-0.311,0.125,0.915
-0.206,0.08,1.02
-0.218,0.059,1.101
-0.327,0.071,0.819
-0.317,0.06,1.02
-0.265,0.016,0.93
-0.35,0.082,0.807
-0.211,-0.039,1.099
-0.288,0.132,1.039
-0.256,0.107,0.898
-0.221,0.059,1.063
-0.325,-0.024,0.94
-0.376,0.11,0.796
-0.271,-0.048,0.915
-0.279,-0.026,1.054
-0.312,0.096,0.872
-0.218,0.054,0.962
-0.23,0.079,1.173
-0.33,0.076,0.891
-0.264,0.078,0.943
-0.271,-0.063,0.991
-0.352,0.062,0.862
-0.309,0.006,0.854
-0.227,0,1.08
-0.276,0.081,1.047
-0.279,0.138,0.828
-0.207,0.013,1.102
-0.347,0.041,0.97
-0.312,0.068,0.824
-0.248,-0.044,0.997
-0.287,0,0.976
-0.314,0.089,0.871
-0.218,0.088,0.997
-0.254,0.011,1.103
-0.352,0.135,0.852
-0.255,-0.015,0.915
-0.304,0.033,1.04
-0.35,0.018,0.84
-0.281,0.041,0.907
-0.238,-0.001,1.066
-0.309,0.086,0.948
-0.266,0.15,0.904
-0.239,-0.036,1.082
-0.35,0.063,0.936
-0.335,0.026,0.747
-0.247,0.006,1.067
-0.329,-0.03,0.946
-0.302,0.126,0.866
-0.203,0.045,1.073
-0.279,0.078,1.008
-0.334,0.115,0.878
-0.266,-0.006,0.913
-0.296,-0.024,1.013
-0.375,0.047,0.798
-0.232,0.035,0.955
-0.256,-0.004,1.087
-0.301,0.126,0.903
-0.26,0.096,0.955
-0.265,0.048,1.039
-0.344,-0.006,0.904
-0.327,0.087,0.795
-0.246,-0.086,1.02
-0.319,0.032,0.971
-0.27,0.087,0.85
-0.18,0.039,1.171
-0.275,0.096,1.006
-0.311,0.096,0.884
-0.26,0.05,0.965
-0.33,-0.046,0.929
-0.373,0.102,0.818
-0.254,-0.06,0.93
-0.252,0.028,1.102
-0.303,0.122,0.918
-0.202,0.099,1.044
-0.263,0.029,1.079
-0.336,0.06,0.861
-0.29,0.05,0.891
-0.292,-0.049,0.984
-0.334,0.031,0.931
-0.277,0.075,0.894
-0.175,0.019,1.121
-0.289,0.075,1.002
-0.3,0.146,0.861
-0.247,-0.022,1.079
-0.327,0.029,0.95
-0.302,0.054,0.845
-0.238,0.008,0.982
-0.286,-0.011,1.025
-0.313,0.144,0.933
-0.173,0.055,1.009
-0.267,0.023,1.082
-0.369,0.119,0.803
-0.269,-0.011,0.936
-0.291,0.011,1.011
-0.311,0.009,0.895
-0.255,0.126,0.947
-0.218,-0.015,1.087
-0.304,0.115,0.995
-0.285,0.098,0.868
-0.226,-0.025,1.097
-0.344,0.03,0.945
-0.313,0.06,0.813
-0.229,0.012,1.061
-0.284,0.007,1.024
-0.286,0.164,0.916
-0.234,0.05,0.984
-0.299,0.037,1.036
-0.383,0.08,0.88
-0.248,0,1.028
-0.304,0.084,0.861
-0.334,0.032,0.99
-0.221,0.04,1.116
-0.285,0.127,0.954
-0.291,0.131,0.897
-0.267,-0.041,1.021
-0.351,0.015,0.937
-0.314,0.081,0.806
-0.224,-0.094,1.068
-0.294,0.089,1
-0.246,0.093,0.929
-0.191,0.094,1.115
-0.273,0.035,1.026
-0.346,0.124,0.86
-0.263,-0.043,0.911
-0.293,-0.026,1.042
-0.34,0.094,0.869
-0.204,-0.022,0.986
-0.219,0.062,1.151
-0.283,0.127,0.944
-0.23,0.117,0.982
-0.26,-0.025,1.059
-0.348,0.058,0.884
-0.333,0.049,0.788
-0.258,-0.049,1.044
-0.308,0.019,1.016
-0.25,0.104,0.904
-0.157,0.034,1.159
-0.3,0.097,1.014
-0.32,0.112,0.85
-0.248,-0.012,1.017
-0.311,-0.019,0.962
-0.353,0.062,0.834
-0.224,0.007,0.966
-0.236,0.008,1.156
-0.3,0.162,0.919
-0.196,0.035,0.989
-0.28,0.044,1.078
-0.354,0.041,0.847
-0.294,0.055,0.891
-0.269,-0.024,1.029
-0.309,0.008,0.944
-0.271,0.108,0.894
-0.187,0,1.135
-0.289,0.13,1.032
-0.31,0.043,0.813
-0.24,0.019,1.05
-0.343,0,0.94
-0.331,0.08,0.846
-0.208,-0.034,1.029
-0.271,0.038,1.031
-0.321,0.149,0.895
-0.231,0.044,0.979
-0.286,0.017,1.079
-0.372,0.049,0.823
-0.243,0.024,0.898
-0.286,-0.017,1.075
-0.32,0.07,0.896
-0.247,0.064,0.982
-0.196,0.045,1.111
-0.294,0.094,0.978
-0.299,0.111,0.861
-0.244,-0.063,1.065
-0.349,0.042,0.912
-0.315,0.037,0.787
-0.209,-0.004,1.122
-0.271,0.024,0.991
-0.3,0.149,0.909
-0.21,0.056,1.017
-0.29,0.004,1.04
-0.355,0.109,0.817
-0.264,-0.039,0.908
-0.29,-0.002,1.081
-0.313,0.018,0.873
-0.201,0.089,1.001
-0.219,0.035,1.114
-0.293,0.117,0.953
-0.256,0.09,0.924
-0.275,-0.044,1.004
-0.371,0.035,0.838
-0.356,0.061,0.766
-0.22,-0.054,1.099
-0.285,0.019,1.009
-0.261,0.157,0.876
-0.203,0.052,1.084
-0.297,0.062,0.991
-0.34,0.071,0.865
-0.26,0.017,0.912
-0.34,-0.049,0.954
-0.371,0.092,0.818
-0.215,-0.033,0.984
-0.244,0.042,1.142
-0.269,0.117,0.95
-0.223,0.128,0.993
-0.263,-0.007,1.03
-0.362,0.032,0.878
-0.321,0.07,0.808
-0.262,-0.092,0.994
-0.327,0.037,0.934
-0.272,0.082,0.882
-0.177,0.048,1.151
-0.264,0.057,1.027
-0.293,0.161,0.881
-0.254,-0.024,0.908
-0.322,0.008,0.845
-0.376,-0.022,0.924
-0.244,-0.053,1.076
-0.327,0.14,0.883
-0.188,0.094,1.037
-0.237,0.056,1.107
-0.317,0.047,0.901
-0.323,0.09,0.817
-0.288,-0.064,0.946
-0.378,0.024,0.9
-0.319,0.064,0.808
-0.218,-0.063,1.081
-0.289,0.103,1.012
-0.265,0.127,0.905
-0.221,0.078,1.066
-0.305,-0.017,0.978
-0.38,0.136,0.802
-0.267,-0.053,0.904
-0.31,-0.011,1.009
-0.354,0.057,0.88
-0.194,0.035,1.002
-0.221,0.013,1.139
-0.294,0.153,0.918
-0.266,0.11,0.922
-0.259,-0.013,1.052
-0.337,0.029,0.9
-0.355,0.088,0.75
-0.255,-0.087,1.029
-0.33,0.058,0.972
-0.289,0.062,0.859
-0.182,0.036,1.118
-0.266,0.046,1
-0.33,0.187,0.873
-0.234,-0.004,0.964
-0.292,-0.011,1.069
-0.362,0.089,0.792
-0.243,-0.022,0.905
-0.258,0.015,1.095
-0.32,0.046,0.915
-0.232,0.097,0.961
-0.21,-0.012,1.098
-0.277,0.128,1.028
-0.29,0.092,0.827
-0.234,0,1.086
-0.358,0.031,0.949
-0.304,0.065,0.814
-0.213,-0.023,1.068
-0.288,0.01,0.98
-0.336,0.1,0.867
-0.205,0.045,0.989
-0.227,0.037,1.182
-0.314,0.165,0.88
-0.23,0.018,0.97
-0.312,0.049,1.048
-0.374,0.028,0.828
-0.295,0.076,0.882
-0.243,-0.106,1.04
-0.324,0.066,0.955
-0.291,0.082,0.825
-0.151,0.045,1.213
-0.296,0.07,0.978
-0.29,0.16,0.863
-0.257,0.005,1.006
-0.347,-0.01,0.953
-0.387,0.078,0.793
-0.237,-0.012,0.929
-0.27,-0.019,1.119
-0.325,0.073,0.852
-0.232,0.032,1.002
-0.22,-0.009,1.068
-0.293,0.088,0.954
-0.253,0.161,0.926
-0.182,-0.03,1.141
-0.346,0.092,0.955
-0.33,0.093,0.751
-0.271,-0.007,1.001
-0.347,-0.019,0.925
-0.338,0.088,0.867
-0.209,-0.033,0.971
-0.24,-0.034,1.141
-0.306,0.158,0.898
-0.166,0.054,1.037
-0.246,0.076,1.094
-0.31,0.061,0.916
-0.291,0.149,0.838
-0.24,-0.077,1.078
-0.358,0.088,0.934
-0.329,0.035,0.773
-0.227,0.001,1.066
-0.325,-0.019,0.963
-0.326,0.115,0.847
-0.22,-0.035,0.971
-0.229,0.024,1.138
-0.32,0.174,0.893
-0.185,0.06,1.001
-0.278,0.028,1.069
-0.387,0.091,0.8
-0.314,0.06,0.839
-0.283,-0.079,0.977
-0.338,0.029,0.956
-0.297,0.075,0.78
-0.201,-0.031,1.146
-0.304,0.046,0.985
-0.304,0.13,1.075
-0.192,0.049,1.074
-0.251,0.133,0.858
-0.338,-0.012,0.885
-0.292,0.012,1.115
-0.355,0.07,0.803
-0.257,0.031,0.924
-0.243,-0.058,1.051
-0.307,0.054,0.972
-0.269,0.119,0.874
-0.181,0.009,1.178
-0.314,0.12,0.995
-0.297,0.113,0.813
-0.242,0.008,1.061
-0.347,-0.017,0.894
-0.394,0.109,0.792
-0.216,-0.042,1.003
-0.242,-0.025,1.132
-0.311,0.096,0.877
-0.183,0.072,1.017
-0.242,0.092,1.154
-0.307,0.087,0.893
-0.274,0.106,0.918
-0.279,-0.077,1.027
-0.356,0.057,0.899
-0.32,0.052,0.772
-0.189,-0.027,1.165
-0.284,0.017,1.016
-0.241,0.141,0.918
-0.18,0.065,1.124
-0.273,0.045,1.044
-0.326,0.117,0.899
-0.227,0.012,0.914
-0.325,-0.012,1.034
-0.385,0.086,0.764
-0.231,-0.019,0.978
-0.25,0.016,1.085
-0.289,0.059,0.947
-0.244,0.17,0.959
-0.233,-0.027,1.063
-0.324,0.094,0.981
-0.307,0.081,0.816
-0.235,-0.013,1.075
-0.353,0.007,0.912
-0.31,0.088,0.815
-0.231,-0.024,1.043
-0.269,0.023,1.023
-0.296,0.146,0.945
-0.196,0.058,0.971
-0.263,-0.002,1.087
-0.374,0.122,0.815
-0.258,0.01,0.934
-0.3,-0.024,1.016
-0.33,0.055,0.852
-0.282,0.077,0.93
-0.232,-0.027,1.066
-0.283,0.069,1.022
-0.269,0.163,0.852
-0.21,-0.031,1.134
-0.329,0.09,0.925
-0.327,0.038,0.79
-0.259,0.004,1.007
-0.318,-0.039,0.954
-0.331,0.123,0.88
-0.22,-0.004,0.989
-0.253,0.058,1.114
-0.32,0.148,0.914
-0.209,0.046,0.981
-0.294,-0.021,1.05
-0.371,0.096,0.815
-0.297,0.019,0.894
-0.255,-0.051,1.025
-0.3,0.036,0.959
-0.288,0.133,0.864
-0.19,0.012,1.14
-0.295,0.088,1.033
-0.295,0.102,0.809
-0.259,-0.031,1.024
-0.366,0.038,0.897
-0.349,0.05,0.838
-0.24,0.004,0.961
-0.261,-0.022,1.095
-0.32,0.191,0.877
-0.209,0.018,0.982
-0.264,0.061,1.129
-0.358,0.051,0.831
-0.274,0.058,0.892
-0.298,-0.044,0.982
-0.339,0.038,0.881
-0.288,0.062,0.869
-0.218,0,1.098
-0.272,0.102,1.071
-0.279,0.11,0.824
-0.222,0.026,1.099
-0.368,0.028,0.932
-0.343,0.067,0.794
-0.243,-0.043,0.993
-0.31,0.024,0.961
-0.341,0.09,0.87
-0.211,0.065,0.989
-0.239,0.003,1.153
-0.324,0.139,0.883
-0.237,0,0.934
-0.304,0.039,1.015
-0.371,0.019,0.888
-0.285,0.047,1.05
-0.239,0.088,0.972
-0.319,0.143,0.881
-0.211,-0.013,1.149
-0.327,0.079,0.98
-0.316,0.052,0.785
-0.243,0.006,1.032
-0.334,-0.041,0.928
-0.32,0.115,0.845
-0.229,0.006,1.008
-0.256,0.04,1.032
-0.327,0.126,0.87
-0.223,0.055,0.954
-0.281,-0.017,1.109
-0.34,0.067,0.828
-0.279,0.03,0.892
-0.285,-0.022,0.991
-0.324,0.027,0.929
-0.263,0.12,0.909
-0.205,0.016,1.102
-0.321,0.086,0.98
-0.324,0.124,0.794
-0.224,-0.045,1.105
-0.333,0.024,0.914
-0.332,0.053,0.832
-0.222,0.028,1.019
-0.303,-0.008,1.008
-0.313,0.175,0.9
-0.207,0.016,0.95
-0.285,0.031,1.056
-0.382,0.079,0.812
-0.27,0.038,0.919
-0.3,-0.054,1.022
-0.327,0.035,0.866
-0.249,0.068,0.933
-0.233,0.001,1.051
-0.297,0.105,1.001
-0.293,0.123,0.867
-0.209,-0.021,1.113
-0.336,0.018,0.923
-0.33,0.102,0.8
-0.259,-0.047,1.02
-0.292,-0.001,0.97
-0.298,0.095,0.887
-0.216,0.09,0.991
-0.281,-0.005,1.053
-0.355,0.143,0.868
-0.234,-0.026,0.954
-0.287,0.015,1.066
-0.352,0.043,0.841
-0.274,0.057,0.934
-0.232,-0.044,1.059
-0.279,0.078,0.978
-0.249,0.14,0.91
-0.23,-0.012,1.064
-0.344,0.075,0.96
-0.329,0.039,0.785
-0.243,-0.002,1.046
-0.329,-0.029,0.928
-0.304,0.109,0.86
-0.216,-0.006,1.025
-0.269,0.061,1.037
-0.319,0.124,0.885
-0.248,0.044,0.91
-0.281,-0.039,1.081
-0.363,0.117,0.821
-0.251,0,0.935
-0.273,-0.023,1.039
-0.307,0.045,0.914
-0.266,0.111,0.92
-0.226,0.033,1.085
-0.31,0.067,0.996
-0.316,0.103,0.792
-0.242,-0.057,1.049
-0.345,0.068,0.95
-0.311,0.036,0.831
-0.212,0.003,1.04
-0.274,0.007,1.035
-0.312,0.19,0.885
-0.228,0.016,0.979
-0.281,0.027,1.096
-0.352,0.075,0.852
-0.244,0.029,0.895
-0.294,-0.011,1.077
-0.345,0.039,0.851
-0.247,0.044,0.942
-0.223,0.035,1.092
-0.303,0.104,0.94
-0.321,0.113,0.845
-0.252,-0.035,1.048
-0.353,0.011,0.955
-0.315,0.082,0.783
-0.227,-0.051,1.081
-0.318,0.059,0.974
-0.296,0.089,0.894
-0.193,0.079,1.027
-0.282,0.01,1.027
-0.365,0.138,0.806
-0.289,-0.036,0.86
-0.291,-0.004,1.074
-0.346,0.049,0.818
-0.237,0.035,0.955
-0.241,0.021,1.116
-0.31,0.09,0.929
-0.266,0.145,1.032
-0.25,-0.036,0.895
-0.371,0.034,0.743
-0.358,-0.024,1.082
-0.324,0.001,0.977
-0.283,0.116,0.889
-0.189,0.035,1.109
-0.273,0.078,0.996
-0.312,0.116,0.894
-0.262,0.008,0.945
-0.308,-0.042,0.976
-0.381,0.07,0.802
-0.233,0.014,0.946
-0.247,-0.011,1.14
-0.285,0.108,0.915
-0.237,0.103,0.95
-0.285,0.067,1.03
-0.365,0.007,0.891
-0.323,0.094,0.822
-0.255,-0.103,0.995
-0.345,0.035,0.917
-0.293,0.073,0.849
-0.173,0.024,1.189
-0.267,0.088,1.02
-0.302,0.127,0.841
-0.273,0.045,0.989
-0.351,-0.028,0.927
-0.365,0.086,0.818
-0.247,-0.051,0.921
-0.284,0.009,1.055
-0.323,0.103,0.897
-0.197,0.101,1.017
-0.248,0.034,1.082
-0.333,0.09,0.857
-0.296,0.05,0.875
-0.32,-0.023,0.958
-0.347,0.013,0.913
-0.289,0.068,0.878
-0.187,-0.015,1.096
-0.297,0.093,0.997
-0.289,0.16,0.862
-0.236,-0.023,1.082
-0.332,0.037,0.929
-0.343,0.049,0.818
-0.272,0.013,0.954
-0.306,-0.05,0.999
-0.298,0.132,0.933
-0.173,0.036,0.998
-0.232,0.043,1.135
-0.345,0.136,0.848
-0.266,0.011,0.95
-0.295,-0.004,1.017
-0.351,0.016,0.84
-0.277,0.096,0.913
-0.232,-0.016,1.079
-0.292,0.12,1.002
-0.28,0.115,0.88
-0.236,-0.018,1.074
-0.343,0.03,0.934
-0.323,0.087,0.811
-0.242,-0.023,1.077
-0.305,0.007,0.983
-0.281,0.124,0.896
-0.234,0.066,1.041
-0.276,0.042,1.047
-0.34,0.081,0.918
-0.246,0.007,0.89
-0.291,-0.041,1.027
-0.367,0.101,0.837
-0.237,-0.007,0.977
-0.226,0.038,1.12
-0.285,0.116,0.943
-0.277,0.147,0.935
-0.265,-0.034,1.004
-0.362,0.006,0.934
-0.325,0.085,0.757
-0.244,-0.08,1.059
-0.302,0.083,1.012
-0.253,0.072,0.898
-0.175,0.085,1.137
-0.274,0.051,1.011
-0.34,0.131,0.862
-0.268,-0.029,0.925
-0.304,-0.036,0.996
-0.353,0.086,0.871
-0.201,-0.024,0.959
-0.232,0.055,1.128
-0.311,0.131,0.932
-0.198,0.108,1.035
-0.254,-0.004,1.082
-0.354,0.084,0.87
-0.33,0.043,0.829
-0.266,-0.054,1.009
-0.304,0.005,1.016
-0.28,0.121,0.86
-0.189,0.034,1.154
-0.289,0.106,1.05
-0.279,0.084,0.878
-0.233,-0.007,1.05
-0.329,0.03,0.922
-0.363,0.054,0.832
-0.24,0.001,0.952
-0.243,-0.014,1.122
-0.307,0.183,0.894
-0.208,0.033,1.107
-0.288,0.048,0.858
-0.345,0.052,0.93
-0.266,-0.012,1.044
-0.335,0.004,0.928
-0.261,0.115,0.889
-0.199,-0.001,1.135
-0.3,0.125,1.008
-0.319,0.058,0.821
-0.248,-0.003,1.037
-0.334,0.014,0.967
-0.308,0.072,0.833
-0.205,-0.009,1.079
-0.289,0.046,0.998
-0.322,0.16,0.911
-0.209,0.028,1.016
-0.276,0.014,1.081
-0.362,0.065,0.823
-0.256,0.024,0.906
-0.269,-0.033,1.115
-0.292,0.09,0.923
-0.201,0.052,1.017
-0.222,0.089,1.09
-0.308,0.079,0.961
-0.302,0.094,0.86
-0.244,-0.073,1.025
-0.361,0.052,0.872
-0.318,0.044,0.799
-0.22,-0.028,1.099
-0.281,0.075,1.008
-0.267,0.135,0.908
-0.205,0.076,1.059
-0.324,-0.015,0.959
-0.371,0.126,0.8
-0.257,-0.06,0.948
-0.286,-0.024,1.029
-0.326,0.04,0.86
-0.2,0.083,0.984
-0.225,0.067,1.167
-0.313,0.11,0.919
-0.27,0.096,0.94
-0.299,-0.05,0.993
-0.354,0.046,0.87
-0.301,0.021,0.852
-0.216,-0.031,1.071
-0.3,0.043,1.012
-0.261,0.159,0.868
-0.173,0.024,1.163
-0.298,0.048,0.99
-0.336,0.075,0.801
-0.287,0,0.937
-0.328,-0.027,0.967
-0.333,0.069,0.884
-0.202,0.03,0.994
-0.244,0.019,1.117
-0.314,0.156,0.89
-0.209,0.027,1.004
-0.294,0.032,1.044
-0.337,-0.001,0.854
-0.28,0.078,0.889
-0.26,-0.054,1.016
-0.316,0.074,0.938
-0.258,0.123,0.934
-0.208,0.012,1.071
-0.34,0.068,0.956
-0.332,0.076,0.803
-0.246,-0.002,1.055
-0.322,-0.04,0.955
-0.303,0.116,0.882
-0.203,0.005,1.035
-0.258,0.076,1.054
-0.32,0.119,0.894
-0.253,0.017,0.91
-0.296,-0.041,1.05
-0.357,0.093,0.828
-0.232,0.01,0.968
-0.266,-0.017,1.067
-0.287,0.085,0.936
-0.236,0.122,0.968
-0.24,0.053,1.054
-0.35,0.015,0.923
-0.328,0.103,0.78
-0.255,-0.081,1.006
-0.337,0.035,0.951
-0.291,0.058,0.867
-0.207,0.032,1.105
-0.267,0.06,1.027
-0.3,0.155,0.889
-0.262,0.027,0.956
-0.334,-0.04,0.968
-0.369,0.092,0.824
-0.255,-0.048,0.898
-0.26,0.016,1.097
-0.297,0.095,0.918
-0.204,0.131,1.006
-0.243,0.01,1.061
-0.347,0.096,0.878
-0.308,0.067,0.869
-0.289,-0.047,0.966
-0.34,0.004,0.919
-0.307,0.063,0.808
-0.205,-0.006,1.097
-0.284,0.109,1.034
-0.273,0.139,0.868
-0.233,-0.017,1.055
-0.32,0.047,0.833
-0.356,0.057,0.916
-0.278,-0.057,1.019
-0.294,0.14,0.904
-0.175,0.036,0.998
-0.255,0.068,1.121
-0.344,0.124,0.877
-0.278,0.005,0.931
-0.292,0.01,1.002
-0.343,0.002,0.886
-0.293,0.101,0.883
-0.221,-0.05,1.078
-0.281,0.112,1.023
-0.274,0.111,0.821
-0.239,0.005,1.063
-0.35,0.037,0.93
-0.337,0.072,0.809
-0.225,-0.016,1.071
-0.282,0.015,1.018
-0.305,0.136,0.919
-0.208,0.03,1.012
-0.253,0.039,1.096
-0.356,0.09,0.859
-0.25,0.021,0.89
-0.292,-0.02,1.046
-0.342,0.073,0.845
-0.228,0.006,0.971
-0.22,0.047,1.113
-0.28,0.107,0.96
-0.275,0.127,0.896
-0.248,-0.022,1.034
-0.346,0.008,0.931
-0.33,0.088,0.758
-0.227,-0.061,1.081
-0.27,0.07,1.041
-0.239,0.092,0.929
-0.168,0.106,1.114
-0.29,0.035,0.991
-0.375,0.125,0.81
-0.264,-0.047,0.913
-0.306,-0.031,1.021
-0.354,0.092,0.83
-0.22,-0.014,0.986
-0.216,0.076,1.15
-0.289,0.106,0.935
-0.217,0.125,0.992
-0.283,-0.011,1.05
-0.371,0.056,0.854
-0.319,0.029,0.832
-0.232,-0.058,1.057
-0.297,0.042,1.016
-0.255,0.097,0.879
-0.187,0.072,1.122
-0.307,0.066,0.994
-0.317,0.108,0.835
-0.266,-0.013,1.013
-0.329,-0.002,0.935
-0.35,0.047,0.836
-0.216,0.007,0.992
-0.229,0.003,1.115
-0.303,0.181,0.865
-0.217,0.042,1
-0.278,0.021,1.097
-0.321,0.039,0.846
-0.276,0.034,0.904
-0.276,-0.008,1.003
-0.326,0.027,0.936
-0.239,0.125,0.923
-0.182,-0.018,1.118
-0.315,0.107,0.953
-0.323,0.055,0.807
-0.234,0.008,1.08
-0.326,-0.006,0.954
-0.311,0.088,0.834
-0.219,0.001,1.045
-0.281,0.026,1.057
-0.28,0.157,0.956
-0.211,0.027,0.976
-0.293,0.005,1.049
-0.378,0.053,0.807
-0.232,0.017,0.939
-0.28,-0.032,1.076
-0.298,0.084,0.897
-0.252,0.089,0.973
-0.222,0.038,1.066
-0.316,0.076,0.953
-0.31,0.084,0.847
-0.259,-0.055,1.008
-0.376,0.023,0.879
-0.31,0.077,0.817
-0.196,-0.014,1.152
-0.259,0.052,1.057
-0.282,0.158,0.915
-0.228,0.083,1.028
-0.327,-0.04,1.002
-0.363,0.102,0.841
-0.269,-0.043,0.879
-0.317,-0.014,0.996
-0.341,0.067,0.878
-0.188,0.075,1.036
-0.217,0.042,1.138
-0.298,0.095,0.921
-0.281,0.112,0.927
-0.298,-0.061,0.992
-0.355,0.042,0.841
-0.31,0.018,1.083
-0.216,0.034,1.03
-0.283,0.183,0.884
-0.189,0.034,1.125
-0.312,0.024,0.963
-0.335,0.082,0.831
-0.289,0,0.879
-0.33,-0.045,0.968
-0.345,0.08,0.87
-0.193,0.01,0.96
-0.234,0.032,1.125
-0.311,0.169,0.929
-0.234,0.023,0.991
-0.278,0.005,1.009
-0.359,0.026,0.845
-0.308,0.077,0.864
-0.253,-0.081,1.035
-0.293,0.073,1.001
-0.262,0.132,0.893
-0.187,0.02,1.1
-0.325,0.078,0.984
-0.331,0.061,0.806
-0.263,-0.015,0.996
-0.329,-0.027,0.935
-0.328,0.11,0.877
-0.225,-0.005,0.993
-0.236,0.047,1.093
-0.294,0.12,0.94
-0.23,0.048,0.916
-0.29,-0.015,1.064
-0.373,0.096,0.815
-0.285,0.014,0.926
-0.256,-0.037,1.029
-0.304,0.076,0.916
-0.289,0.119,0.888
-0.25,0.032,1.041
-0.335,0.017,0.976
-0.33,0.099,0.773
-0.233,-0.065,1.045
-0.329,0.06,0.95
-0.316,0.041,0.861
-0.204,0.037,1.059
-0.255,0.055,1.034
-0.311,0.169,0.907
-0.249,0.011,0.942
-0.302,-0.032,1.021
-0.368,0.096,0.789
-0.261,-0.03,0.91
-0.269,0.03,1.075
-0.31,0.058,0.882
-0.227,0.13,0.977
-0.236,0.02,1.084
-0.34,0.097,0.909
-0.339,0.059,0.823
-0.273,-0.06,0.987
-0.302,0.004,0.996
-0.298,0.057,0.778
-0.209,0.016,1.116
-0.303,0.101,1.014
-0.277,0.135,0.908
-0.234,0.023,1.029
-0.34,0.036,0.925
-0.399,0.059,0.764
-0.279,-0.017,0.875
-0.265,-0.078,1.118
-0.316,0.122,0.868
-0.189,0.069,1.024
-0.243,0.093,1.137
-0.323,0.085,0.911
-0.275,0.062,0.92
-0.293,-0.018,0.979
-0.365,0.006,0.876
-0.314,0.081,0.833
-0.201,-0.055,1.14
-0.281,0.122,1.011
-0.254,0.114,0.888
-0.204,0.045,1.127
-0.329,0.011,0.959
-0.355,0.1,0.812
-0.271,-0.02,0.96
-0.304,-0.025,0.974
-0.333,0.095,0.877
-0.198,0.03,0.999
-0.219,0.078,1.17
-0.339,0.102,0.873
-0.239,0.054,0.957
-0.293,-0.012,1.035
-0.338,0.053,0.857
-0.264,0.024,0.922
-0.234,0.01,1.049
-0.286,0.055,1.007
-0.276,0.152,0.872
-0.21,-0.012,1.115
-0.366,0.058,0.925
-0.32,0.057,0.805
-0.242,-0.006,1.088
-0.278,0.011,1.02
-0.277,0.072,0.918
-0.204,0.075,1.018
-0.276,0.021,1.058
-0.355,0.173,0.86
-0.252,-0.028,0.939
-0.305,0.026,1.031
-0.351,0.036,0.967
-0.232,0.048,1.091
-0.251,0.089,0.946
-0.296,0.142,0.932
-0.231,-0.001,1.029
-0.348,0.076,0.935
-0.321,0.041,0.805
-0.237,-0.028,1.052
-0.319,-0.01,0.969
-0.271,0.116,0.881
-0.174,0.036,1.154
-0.249,0.092,1.055
-0.301,0.123,0.913
-0.259,0.034,0.936
-0.31,-0.045,1.029
-0.366,0.095,0.817
-0.222,-0.017,0.946
-0.272,-0.019,1.085
-0.3,0.108,0.921
-0.196,0.114,1.025
-0.234,0.059,1.064
-0.352,0.042,0.903
-0.325,0.109,0.827
-0.273,-0.088,0.995
-0.339,0.042,0.949
-0.273,0.036,0.884
-0.179,0.006,1.141
-0.259,0.086,1.081
-0.263,0.163,0.905
-0.237,0.051,1.05
-0.324,-0.026,0.983
-0.36,0.106,0.838
-0.248,-0.045,0.916
-0.273,-0.001,1.088
-0.305,0.087,0.943
-0.142,0.065,1.049
-0.218,0.053,1.137
-0.298,0.13,0.915
-0.295,0.069,0.897
-0.295,-0.023,0.984
-0.333,-0.001,0.931
-0.311,0.069,0.833
-0.211,-0.053,1.079
-0.287,0.103,1.051
-0.248,0.134,0.905
-0.205,0.044,1.1
-0.305,0.059,0.945
-0.357,0.062,0.816
-0.283,0.009,0.915
-0.32,-0.059,1.002
-0.329,0.125,0.917
-0.183,-0.014,1.011
-0.226,0.088,1.15
-0.304,0.126,0.92
-0.22,0.049,0.982
-0.268,-0.011,1.054
-0.363,0.047,0.827
-0.31,0.057,0.849
-0.245,-0.075,1.053
-0.276,0.094,0.997
-0.266,0.118,0.863
-0.21,0.035,1.104
-0.318,0.048,1.016
-0.309,0.089,0.822
-0.238,-0.032,1.019
-0.33,0.022,0.932
-0.344,0.072,0.871
-0.225,0.022,1
-0.236,0.028,1.119
-0.316,0.168,0.891
-0.231,0.014,0.929
-0.307,-0.014,1.058
-0.366,0.073,0.808
-0.255,0,0.932
-0.237,0.01,1.075
-0.288,0.032,0.963
-0.247,0.143,0.925
-0.211,-0.017,1.082
-0.324,0.104,0.957
-0.336,0.047,0.757
-0.259,-0.014,1.012
-0.333,0.031,0.963
-0.309,0.072,0.852
-0.2,0.009,1.071
-0.268,0.041,1.024
-0.307,0.174,0.914
-0.236,-0.013,0.967
-0.3,0.018,1.014
-0.387,0.048,0.795
-0.255,0.019,0.902
-0.249,-0.027,1.139
-0.295,0.098,0.925
-0.202,0.086,0.98
-0.243,0.078,1.049
-0.331,0.067,0.912
-0.328,0.054,0.82
-0.268,-0.052,0.996
-0.374,0.019,0.889
-0.313,0.058,0.811
-0.189,-0.019,1.147
-0.276,0.088,0.985
-0.281,0.144,0.942
-0.22,0.045,1.033
-0.308,-0.029,0.982
-0.379,0.115,0.801
-0.261,-0.054,1.043
-0.268,-0.026,0.884
-0.323,0.08,1.007
-0.188,0.09,1.116
-0.34,0.075,0.905
-0.27,0.085,0.907
-0.281,-0.056,1.003
-0.36,0.037,0.865
-0.311,0.027,0.841
-0.217,-0.03,1.099
-0.28,0.045,1.018
-0.256,0.181,0.887
-0.198,0.041,1.138
-0.317,0.042,0.955
-0.337,0.062,0.823
-0.271,-0.006,0.941
-0.306,-0.031,0.973
-0.34,0.079,0.877
-0.193,0.035,0.983
-0.239,0.017,1.133
-0.293,0.168,0.924
-0.242,0.045,0.964
-0.314,0.025,0.973
-0.371,0.002,0.831
-0.302,0.073,0.852
-0.258,-0.074,1.023
-0.325,0.066,0.939
-0.282,0.126,0.896
-0.192,0.028,1.124
-0.304,0.07,1.018
-0.322,0.085,0.814
-0.253,-0.005,0.99
-0.352,-0.032,0.912
-0.317,0.085,0.883
-0.214,-0.013,0.989
-0.255,0.043,1.031
-0.335,0.133,0.912
-0.212,0.05,0.968
-0.282,-0.01,1.09
-0.369,0.091,0.806
-0.286,0.018,0.901
-0.266,-0.033,1.031
-0.291,0.027,0.961
-0.262,0.127,0.917
-0.215,0.024,1.081
-0.327,0.071,0.964
-0.318,0.1,0.802
-0.258,-0.04,1.033
-0.336,0.029,0.904
-0.335,0.051,0.83
-0.228,0.03,1.025
-0.255,-0.016,1.05
-0.301,0.189,0.923
-0.208,0.018,0.96
-0.279,0.011,1.068
-0.348,0.086,0.871
-0.235,0.003,0.943
-0.267,-0.031,1.04
-0.322,0.065,0.907
-0.248,0.097,0.942
-0.233,0.008,1.102
-0.285,0.104,1
-0.311,0.076,0.838
-0.262,-0.028,1.034
-0.329,0.015,0.972
-0.316,0.097,0.812
-0.223,-0.054,1.085
-0.283,0.058,0.997
-0.274,0.135,0.936
-0.229,0.084,0.987
-0.297,0.01,0.997
-0.395,0.103,0.826
-0.273,-0.018,0.866
-0.296,-0.03,1.065
-0.334,0.096,0.864
-0.221,0.01,0.978
-0.228,0.08,1.108
-0.299,0.08,0.922
-0.301,0.138,0.874
-0.289,-0.058,1.012
-0.358,0.042,0.93
-0.313,0.023,0.798
-0.216,-0.035,1.093
-0.294,0.059,1.02
-0.263,0.113,0.904
-0.182,0.065,1.118
-0.304,0.042,0.974
-0.363,0.123,0.835
-0.285,-0.054,0.879
-0.301,-0.025,1.009
-0.351,0.056,0.824
-0.222,0.03,0.944
-0.253,0.033,1.141
-0.293,0.137,0.905
-0.243,0.088,0.989
-0.269,0.012,1.05
-0.342,0.032,0.873
-0.341,0.064,0.821
-0.245,-0.065,1.043
-0.31,0.024,1.018
-0.262,0.12,0.889
-0.183,0.033,1.164
-0.292,0.125,1.016
-0.31,0.055,0.86
-0.258,0.035,0.993
-0.344,-0.038,0.794
-0.385,0.092,0.937
-0.247,0.019,1.108
-0.244,0.155,0.9
-0.19,0.073,1.006
-0.277,0.037,1.076
-0.354,0.038,0.828
-0.276,0.059,0.916
-0.291,-0.04,0.995
-0.334,0.052,0.919
-0.285,0.093,0.881
-0.19,0.043,1.128
-0.311,0.086,0.979
-0.327,0.102,0.801
-0.247,-0.025,1.068
-0.342,0.017,0.908
-0.316,0.07,0.85
-0.222,-0.004,1.035
-0.262,0.022,1.023
-0.317,0.142,0.886
-0.219,0.064,0.98
-0.281,-0.013,1.087
-0.366,0.109,0.811
-0.248,-0.015,0.925
-0.283,0.018,1.054
-0.297,0.009,0.915
-0.243,0.123,0.963
-0.215,0.028,1.077
-0.324,0.104,0.943
-0.323,0.107,0.817
-0.244,-0.071,1.07
-0.34,0.054,0.93
-0.317,0.044,0.842
-0.211,0.022,1.108
-0.272,0.015,1.015
-0.275,0.18,0.92
-0.215,0.044,1.022
-0.307,0.01,1.021
-0.359,0.074,0.865
-0.239,-0.016,0.941
-0.283,-0.02,1.052
-0.318,0.056,0.876
-0.178,0.068,1.026
-0.206,0.044,1.175
-0.282,0.141,0.943
-0.301,0.078,0.916
-0.303,-0.017,0.958
-0.347,-0.011,0.893
-0.313,0.093,0.831
-0.216,-0.067,1.094
-0.296,0.07,1.004
-0.251,0.142,0.926
-0.193,0.076,1.126
-0.311,0.037,0.977
-0.353,0.07,0.823
-0.279,0.002,0.892
-0.326,-0.047,0.972
-0.338,0.111,0.882
-0.191,-0.028,0.985
-0.232,0.087,1.127
-0.299,0.119,0.925
-0.245,0.095,0.961
-0.292,-0.029,1.016
-0.355,0.035,0.847
-0.307,0.065,0.839
-0.244,-0.06,1.073
-0.298,0.075,1.033
-0.272,0.115,0.878
-0.191,0.036,1.114
-0.317,0.037,0.998
-0.309,0.114,0.821
-0.253,-0.022,1.006
-0.316,-0.009,0.921
-0.33,0.048,0.881
-0.211,0.024,0.998
-0.222,0.028,1.137
-0.306,0.165,0.925
-0.223,0.024,0.939
-0.288,-0.009,1.058
-0.334,0.077,0.84
-0.283,0.036,0.915
-0.258,-0.005,1.02
-0.322,0.048,0.948
-0.264,0.148,0.908
-0.216,-0.028,1.087
-0.317,0.094,1.003
-0.313,0.043,0.796
-0.252,-0.019,1.013
-0.314,0.024,0.973
-0.303,0.083,0.866
-0.203,0.011,1.054
-0.245,0.048,1.078
-0.301,0.177,0.9
-0.245,-0.007,0.945
-0.315,0.011,0.981
-0.386,0.043,0.818
-0.255,0.001,0.883
-0.254,-0.032,1.098
-0.306,0.113,0.94
-0.221,0.092,0.998
-0.229,0.04,1.077
-0.328,0.078,0.923
-0.323,0.056,0.799
-0.276,-0.04,0.979
-0.357,-0.01,0.841
-0.294,0.078,1.149
-0.184,0.14,1.05
-0.273,0.118,0.925
-0.236,0.04,1.031
-0.328,-0.006,0.943
-0.393,0.1,0.773
-0.278,-0.048,0.871
-0.283,-0.034,1.046
-0.315,0.109,0.885
-0.192,0.048,0.985
-0.237,0.092,1.117
-0.342,0.058,0.876
-0.294,0.08,0.9
-0.287,-0.056,1.005
-0.356,0.041,0.894
-0.306,0.025,0.841
-0.216,0.008,1.09
-0.279,0.089,1.055
-0.28,0.136,0.86
-0.212,0.025,1.107
-0.352,0.011,0.913
-0.348,0.082,0.794
-0.269,-0.045,0.937
-0.3,-0.005,1
-0.331,0.088,0.912
-0.215,0.078,0.98
-0.234,0.008,1.156
-0.344,0.121,0.839
-0.251,0.018,0.936
-0.307,0.03,1.019
-0.336,0.008,0.863
-0.261,0.037,0.921
-0.223,0.016,1.06
-0.314,0.085,0.967
-0.289,0.153,0.859
-0.242,-0.043,1.066
-0.351,0.067,0.939
-0.325,0.026,0.791
-0.229,0.001,1.066
-0.302,-0.018,0.977
-0.283,0.132,0.894
-0.206,0.064,1.059
-0.281,0.043,1.025
-0.359,0.116,0.849
-0.249,-0.025,0.941
-0.267,-0.005,1.079
-0.35,0.039,0.812
-0.229,0.063,0.975
-0.258,-0.003,1.076
-0.304,0.133,0.921
-0.25,0.095,0.948
-0.264,0.012,1.012
-0.376,0.013,0.868
-0.334,0.076,0.81
-0.206,-0.077,1.098
-0.303,0.029,0.972
-0.252,0.124,0.899
-0.182,0.044,1.137
-0.267,0.105,1.037
-0.318,0.078,0.875
-0.277,0.052,0.916
-0.354,-0.064,0.942
-0.365,0.092,0.821
-0.206,-0.043,0.994
-0.233,0.038,1.125
-0.285,0.13,0.933
-0.204,0.096,1.019
-0.274,0.036,1.041
-0.36,0.028,0.848
-0.299,0.074,0.877
-0.294,-0.078,0.964
-0.323,0.057,0.958
-0.262,0.091,0.931
-0.178,0.05,1.116
-0.301,0.082,1.004
-0.318,0.115,0.839
-0.251,-0.003,1.042
-0.349,0.004,0.943
-0.309,0.067,0.862
-0.239,-0.009,0.975
-0.266,0.01,1.049
-0.322,0.151,0.917
-0.187,0.07,1.003
-0.286,-0.011,1.087
-0.368,0.111,0.83
-0.259,0.006,0.948
-0.278,-0.005,1.04
-0.297,0.026,0.95
-0.264,0.13,0.927
-0.214,0.001,1.083
-0.315,0.097,0.986
-0.299,0.097,0.853
-0.249,-0.05,1.056
-0.314,0.038,0.954
-0.31,0.047,0.854
-0.221,0.031,1.075
-0.262,0.001,1.033
-0.297,0.19,0.892
-0.243,0.035,0.954
-0.316,0.015,1.018
-0.356,0.069,0.85
-0.269,-0.011,0.883
-0.29,-0.017,1.059
-0.317,0.08,1.027
-0.213,0.094,1.101
-0.218,0.095,0.897
-0.318,0.074,0.858
-0.266,-0.033,1.024
-0.349,0.005,0.934
-0.3,0.066,0.811
-0.225,-0.056,1.063
-0.293,0.098,1.005
-0.26,0.138,0.915
-0.219,0.054,1.072
-0.311,0.031,0.977
-0.354,0.075,0.833
-0.25,-0.015,0.927
-0.306,-0.066,1.033
-0.328,0.124,0.901
-0.197,0.005,1.001
-0.228,0.1,1.148
-0.32,0.095,0.904
-0.27,0.083,0.922
-0.281,-0.036,1.024
-0.347,0.024,0.887
-0.307,0.057,0.831
-0.23,-0.056,1.086
-0.27,0.091,1.037
-0.253,0.104,0.876
-0.195,0.056,1.107
-0.331,0.043,0.949
-0.35,0.119,0.798
-0.266,-0.048,0.985
-0.302,-0.021,0.957
-0.343,0.088,0.875
-0.22,0.019,0.979
-0.243,0.047,1.121
-0.331,0.128,0.903
-0.235,0.032,0.924
-0.289,-0.021,1.042
-0.351,0.069,0.82
-0.283,0.015,0.9
-0.247,0.007,1.058
-0.274,0.036,0.998
-0.242,0.157,0.901
-0.213,-0.009,1.1
-0.347,0.077,0.955
-0.327,0.04,0.772
-0.252,-0.021,1.029
-0.325,0.016,0.97
-0.3,0.06,0.895
-0.185,0.041,1.064
-0.25,0.04,1.047
-0.323,0.158,0.877
-0.257,-0.022,0.928
-0.307,0.012,1.016
-0.373,0.039,0.801
-0.235,0.023,0.932
-0.252,-0.006,1.113
-0.306,0.085,0.927
-0.228,0.109,0.986
-0.243,0.035,1.067
-0.362,0.068,0.896
-0.338,0.048,0.791
-0.27,-0.041,1
-0.362,-0.017,0.903
-0.302,0.089,0.806
-0.188,0.012,1.152
-0.274,0.102,1
-0.297,0.12,0.891
-0.255,0.038,0.973
-0.316,-0.039,0.959
-0.389,0.094,0.783
-0.269,-0.032,0.91
-0.265,-0.035,1.083
-0.307,0.099,0.886
-0.192,0.091,1.03
-0.25,0.081,1.102
-0.345,0.054,0.88
-0.296,0.072,0.86
-0.293,-0.073,0.958
-0.364,0.053,0.858
-0.315,0.031,0.842
-0.19,0.001,1.132
-0.263,0.083,1.041
-0.263,0.169,0.879
-0.233,0.025,1.083
-0.34,-0.006,0.929
-0.339,0.08,0.825
-0.256,-0.033,0.942
-0.301,0,0.989
-0.334,0.077,0.883
-0.192,0.076,0.991
-0.244,0.031,1.132
-0.335,0.135,0.855
-0.269,0.029,0.943
-0.296,0,0.987
-0.353,0.013,0.865
-0.294,0.059,0.889
-0.234,-0.038,1.054
-0.315,0.084,0.993
-0.265,0.152,0.886
-0.198,-0.006,1.142
-0.325,0.07,0.934
-0.336,0.051,0.791
-0.289,0.025,0.963
-0.33,-0.046,0.962
-0.304,0.105,0.909
-0.201,0.031,1.075
-0.257,0.059,0.892
-0.329,0.004,0.94
-0.251,-0.013,1.02
-0.366,0.044,0.803
-0.271,0.051,0.933
-0.258,-0.03,1.047
-0.292,0.099,0.962
-0.269,0.126,0.896
-0.237,0.022,1.072
-0.344,0.015,0.951
-0.311,0.106,0.805
-0.239,-0.044,1.071
-0.314,0.027,0.937
-0.293,0.072,0.868
-0.222,0.059,1.065
-0.259,0.05,1.061
-0.304,0.126,0.908
-0.256,0.029,0.908
-0.31,-0.045,1.028
-0.363,0.104,0.807
-0.233,-0.013,0.98
-0.251,0.024,1.071
-0.279,0.072,0.961
-0.238,0.154,0.956
-0.24,0.007,1.062
-0.338,0.062,0.934
-0.325,0.065,0.799
-0.261,-0.057,0.992
-0.338,0.043,0.961
-0.303,0.048,0.843
-0.202,0.018,1.112
-0.256,0.078,1.037
-0.294,0.183,0.907
-0.25,0.01,0.996
-0.321,0.003,0.976
-0.379,0.066,0.816
-0.251,-0.016,0.912
-0.253,-0.034,1.115
-0.318,0.135,0.912
-0.192,0.057,1.033
-0.221,0.074,1.11
-0.328,0.084,0.882
-0.323,0.077,0.86
-0.293,-0.049,0.995
-0.343,-0.007,0.958
-0.292,0.087,0.829
-0.186,-0.036,1.137
-0.285,0.144,1.049
-0.259,0.104,0.898
-0.202,0.056,1.111
-0.321,0.009,0.953
-0.365,0.102,0.823
-0.267,-0.052,0.931
-0.272,-0.034,1.062
-0.31,0.108,0.918
-0.181,0.046,0.994
-0.236,0.084,1.139
-0.314,0.087,0.896
-0.256,0.073,0.938
-0.274,-0.041,1.034
-0.338,0.064,0.887
-0.288,0.026,0.86
-0.214,-0.005,1.111
-0.276,0.07,1.047
-0.268,0.146,0.853
-0.205,0.028,1.112
-0.348,0.055,0.963
-0.313,0.046,0.835
-0.235,-0.009,1.016
-0.309,0.009,0.973
-0.337,0.083,0.872
-0.214,0.047,1.003
-0.237,0.023,1.141
-0.33,0.157,0.871
-0.243,0,0.949
-0.295,0.043,1.042
-0.361,0.011,0.827
-0.258,0.056,0.913
-0.245,-0.038,1.071
-0.309,0.076,0.969
