acc_x[g],acc_y[g],acc_z[g]
-0.241,0.002,1.037
-0.282,0.036,0.959
-0.247,0.048,1.004
-0.274,0.079,0.975
-0.264,0.027,0.973
-0.276,0.039,0.959
-0.298,0.067,0.934
-0.286,0.024,0.996
-0.29,0.08,0.917
-0.236,0.04,1.049
-0.279,0.033,0.978
-0.258,0.004,0.97
-0.291,0.106,0.974
-0.246,0.052,1.012
-0.273,0.018,0.981
-0.293,0.053,0.918
-0.28,0.009,0.975
-0.292,0.064,0.945
-0.256,0.064,0.99
-0.29,0.044,0.937
-0.274,-0.004,0.98
-0.283,0.065,0.981
-0.257,0.073,0.976
-0.263,0.007,1.013
-0.29,0.076,0.911
-0.275,0.016,0.992
-0.308,0.046,0.9
-0.271,0.05,0.967
-0.284,0.076,0.953
-0.262,0.018,1.022
-0.3,0.013,0.948
-0.264,0.091,0.969
-0.228,0.039,1.057
-0.269,0.046,0.949
-0.263,0.014,0.976
-0.301,0.062,0.942
-0.274,0.023,0.99
-0.297,0.097,0.902
-0.271,0.032,0.968
-0.306,0.002,0.949
-0.289,0.072,0.956
-0.256,0.055,1.019
-0.27,0.035,0.948
-0.238,0.043,1.045
-0.265,0.072,0.995
-0.283,0.007,0.931
-0.287,0.069,0.985
-0.264,0.015,0.992
-0.333,0.031,0.894
-0.289,0.053,0.974
-0.273,0.08,0.966
-0.24,-0.009,1.03
-0.284,0.062,0.943
-0.253,0.014,0.976
-0.289,0.054,0.966
-0.28,0.072,0.932
-0.279,0.03,0.965
-0.3,0.021,0.932
-0.278,0.037,0.989
-0.298,0.093,0.921
-0.25,0.01,1.042
-0.275,0.075,0.965
-0.243,0.026,0.996
-0.29,0.031,0.965
-0.277,0.06,0.944
-0.272,0.053,0.972
-0.298,0.044,0.916
-0.305,-0.018,0.947
-0.317,0.089,0.895
-0.252,0.055,1.034
-0.276,0.037,0.962
-0.249,0.024,0.997
-0.278,0.053,0.984
-0.271,0.034,0.994
-0.266,0.062,0.953
-0.282,0.073,0.942
-0.284,-0.04,0.967
-0.311,0.071,0.915
-0.267,0.059,0.973
-0.298,0.043,0.945
-0.269,0.036,0.983
-0.281,0.042,0.965
-0.278,0.031,0.955
-0.267,0.042,0.991
-0.273,0.089,0.949
-0.277,0,0.971
-0.325,0.032,0.891
-0.295,0.04,0.934
-0.3,0.082,0.945
-0.275,0.016,0.982
-0.276,0.029,0.956
-0.277,0.054,0.958
-0.26,0.009,1.029
-0.273,0.103,0.948
-0.236,0.029,1
-0.297,0.026,0.933
-0.284,0.016,0.948
-0.306,0.094,0.92
-0.293,0.019,0.933
-0.302,0.034,0.934
-0.287,0.068,0.956
-0.274,0.002,1.025
-0.293,0.073,0.926
-0.231,0.05,1.046
-0.268,0.053,0.945
-0.269,-0.015,0.946
-0.306,0.085,0.924
-0.28,0.064,0.966
-0.288,0.03,0.979
-0.299,0.035,0.924
-0.28,0.012,0.964
-0.315,0.037,0.928
-0.259,0.06,0.992
-0.274,0.093,0.95
-0.264,-0.02,0.989
-0.29,0.036,0.957
-0.286,0.079,0.924
-0.284,0.018,0.97
-0.289,0.065,0.936
-0.274,0.03,0.97
-0.325,0.039,0.886
-0.283,0.015,0.97
-0.294,0.097,0.937
-0.255,0.029,0.996
-0.292,0.015,0.948
-0.282,0.052,0.926
-0.284,0.06,0.965
-0.298,0.055,0.936
-0.283,0.001,0.937
-0.314,0.065,0.9
-0.29,0.005,0.973
-0.301,0.085,0.926
-0.263,0.058,0.986
-0.285,0.004,0.978
-0.269,0.036,0.978
-0.265,0.058,0.99
-0.278,0.056,0.932
-0.274,0.02,0.984
-0.281,0.082,0.938
-0.294,-0.001,0.945
-0.311,0.055,0.913
-0.274,0.073,0.967
-0.274,0.023,0.971
-0.291,0.021,0.938
-0.285,0.026,0.967
-0.291,0.102,0.948
-0.257,-0.004,0.992
-0.295,0.062,0.957
-0.269,0.021,0.948
-0.305,0.038,0.939
-0.28,0.067,0.928
-0.286,0.032,0.96
-0.282,-0.005,0.973
-0.314,0.111,0.899
-0.263,0.01,1.011
-0.296,0.061,0.936
-0.259,0.037,0.978
-0.312,0.03,0.924
-0.296,0.044,0.92
-0.291,0.069,0.946
-0.297,0.066,0.954
-0.286,-0.009,0.98
-0.299,0.062,0.921
-0.26,0.057,1.022
-0.271,0.045,0.951
-0.255,0.019,0.986
-0.295,0.052,0.932
-0.279,0.024,0.964
-0.296,0.075,0.945
-0.292,0.074,0.935
-0.281,-0.021,0.95
-0.312,0.041,0.919
-0.286,0.065,0.954
-0.314,0.057,0.911
-0.286,0.035,0.985
-0.284,0.063,0.972
-0.28,0.019,0.963
-0.269,0.019,0.983
-0.267,0.102,0.962
-0.278,0.02,0.97
-0.325,0.03,0.893
-0.296,0.027,0.953
-0.312,0.084,0.932
-0.265,0.033,0.996
-0.281,0.036,0.974
-0.271,0.049,0.946
-0.27,0.01,1.001
-0.282,0.092,0.947
-0.249,0.034,1
-0.295,0.039,0.931
-0.288,0.001,0.959
-0.333,0.097,0.881
-0.288,0.035,0.952
-0.3,0.041,0.96
-0.274,0.07,0.974
-0.283,-0.002,0.985
-0.299,0.062,0.936
-0.249,0.055,1.019
-0.281,0.068,0.924
-0.294,-0.008,0.931
-0.324,0.052,0.903
-0.296,0.065,0.945
-0.279,0.043,0.976
-0.284,0.039,0.943
-0.29,0.026,0.959
-0.309,0.045,0.924
-0.285,0.051,0.995
-0.276,0.099,0.944
-0.25,-0.007,1.014
-0.289,0.029,0.957
-0.3,0.076,0.924
-0.281,0.037,0.959
-0.293,0.065,0.964
-0.264,0.042,0.996
-0.313,0.047,0.918
-0.278,0.023,1.003
-0.286,0.101,0.952
-0.257,0.04,1.003
-0.295,0.015,0.95
-0.287,0.04,0.925
-0.292,0.057,0.94
-0.3,0.063,0.929
-0.269,0.008,0.972
-0.308,0.067,0.91
-0.277,0.017,1.025
-0.288,0.081,0.964
-0.244,0.062,1.019
-0.262,0.038,0.984
-0.27,0.02,0.962
-0.31,0.063,0.961
-0.286,0.062,0.95
-0.267,-0.001,0.985
-0.291,0.094,0.927
-0.28,0.008,0.975
-0.318,0.055,0.905
-0.255,0.072,1
-0.289,0.054,0.955
-0.279,0.018,0.957
-0.271,0.021,0.986
-0.286,0.096,0.939
-0.251,0.027,1.017
-0.287,0.051,0.93
-0.269,0.035,0.964
-0.305,0.046,0.946
-0.279,0.058,0.982
-0.273,0.076,0.968
-0.263,0.037,0.986
-0.261,0.001,1.026
-0.283,0.098,0.949
-0.254,0.025,1.001
-0.291,0.061,0.973
-0.255,0.036,0.9
-0.296,0.002,0.95
-0.302,0.08,0.951
-0.292,0.072,0.972
-0.274,-0.008,1.001
-0.3,0.057,0.933
-0.252,0.047,1.042
-0.261,0.064,0.966
-0.249,0.024,0.996
-0.298,0.051,0.925
-0.283,0.021,0.953
-0.292,0.06,0.965
-0.287,0.091,0.939
-0.281,0.012,0.982
-0.308,0.016,0.922
-0.268,0.057,0.998
-0.282,0.083,0.939
-0.255,0.025,1.028
-0.281,0.077,0.989
-0.273,0.026,0.953
-0.296,0.014,0.968
-0.269,0.104,0.974
-0.256,0.032,0.995
-0.307,0.04,0.925
-0.289,0.014,0.998
-0.291,0.083,0.942
-0.234,0.048,1.039
-0.269,0.038,0.986
-0.26,0.048,0.966
-0.263,0.013,0.999
-0.284,0.08,0.947
-0.255,0.041,1.005
-0.282,0.06,0.929
-0.273,-0.007,1.001
-0.318,0.087,0.906
-0.275,0.054,0.976
-0.285,0.037,0.998
-0.247,0.056,0.991
-0.26,0.01,0.989
-0.283,0.046,0.949
-0.246,0.054,1.018
-0.289,0.086,0.938
-0.275,-0.006,0.991
-0.303,0.037,0.918
-0.298,0.07,0.952
-0.283,0.053,0.99
-0.268,0.041,0.957
-0.264,0.034,0.998
-0.285,0.039,0.951
-0.272,0.045,1.013
-0.282,0.094,0.947
-0.248,0.019,0.997
-0.284,0.026,0.983
-0.288,0.056,0.95
-0.294,0.059,0.949
-0.277,0.055,0.976
-0.248,0.038,1.025
-0.292,0.045,0.919
-0.265,0.007,1.012
-0.289,0.09,0.938
-0.246,0.045,1
-0.286,0.024,0.953
-0.28,0.023,0.958
-0.291,0.055,0.965
-0.275,0.072,0.957
-0.254,0.015,1.008
-0.296,0.066,0.916
-0.254,0.001,1.021
-0.286,0.07,0.967
-0.243,0.063,1.024
-0.26,0.048,0.983
-0.258,0.007,0.987
-0.29,0.052,0.952
-0.29,0.077,0.921
-0.262,0.011,0.976
-0.306,0.081,0.921
-0.271,0.011,1.004
-0.315,0.038,0.906
-0.264,0.074,1.001
-0.279,0.063,0.957
-0.274,0.01,0.959
-0.28,0.013,0.984
-0.292,0.082,0.929
-0.248,0.032,1.038
-0.272,0.056,0.942
-0.275,0.028,0.968
-0.308,0.045,0.946
-0.273,0.05,0.994
-0.296,0.075,0.96
-0.26,0.042,0.999
-0.258,-0.01,1.023
-0.282,0.076,0.93
-0.258,0.034,0.988
-0.287,0.066,0.939
-0.258,0.033,0.994
-0.304,0.05,0.895
-0.3,0.025,0.948
-0.284,0.078,0.978
-0.262,0.067,0.971
-0.249,-0.001,1.03
-0.29,0.049,0.935
-0.248,0.039,1.018
-0.278,0.083,0.925
-0.268,0.015,0.906
-0.3,0.052,0.967
-0.282,0.046,0.994
-0.281,0.084,0.94
-0.278,0.026,0.983
-0.313,0.026,0.936
-0.274,0.026,0.982
-0.286,0.092,0.938
-0.239,0.017,1.014
-0.276,0.076,0.976
-0.268,0.019,0.953
-0.284,0.015,0.966
-0.266,0.093,0.968
-0.251,0.03,0.988
-0.309,0.041,0.921
-0.279,0.004,0.988
-0.294,0.074,0.914
-0.243,0.043,1.016
-0.267,0.041,0.992
-0.272,0.037,0.94
-0.288,0.017,0.967
-0.303,0.077,0.922
-0.268,0.042,0.985
-0.288,0.07,0.932
-0.258,-0.021,0.996
-0.327,0.09,0.885
-0.269,0.053,0.99
-0.271,0.035,1.001
-0.261,0.053,0.965
-0.272,0.008,0.975
-0.29,0.044,0.922
-0.268,0.041,0.989
-0.284,0.092,0.933
-0.282,-0.002,0.979
-0.312,0.037,0.917
-0.295,0.062,0.956
-0.282,0.058,0.99
-0.259,0.048,0.962
-0.283,0.033,0.982
-0.292,0.047,0.939
-0.269,0.015,0.999
-0.293,0.107,0.931
-0.265,0.017,0.97
-0.285,0.018,0.958
-0.282,0.043,0.945
-0.299,0.063,0.942
-0.28,0.052,0.973
-0.254,0.021,1.019
-0.289,0.059,0.921
-0.267,0,1.004
-0.281,0.09,0.937
-0.254,0.037,0.976
-0.3,0.035,0.958
-0.294,0.008,0.935
-0.298,0.052,0.979
-0.275,0.08,0.969
-0.263,0.015,1.001
-0.304,0.065,0.925
-0.232,0,1.04
-0.291,0.071,0.941
-0.254,0.057,0.996
-0.262,0.051,0.967
-0.284,0.002,0.962
-0.314,0.048,0.939
-0.303,0.08,0.902
-0.277,0.008,0.985
-0.286,0.058,0.94
-0.271,0.019,0.974
-0.317,0.053,0.911
-0.263,0.056,1.011
-0.277,0.069,0.952
-0.28,0.021,0.976
-0.284,0,0.955
-0.301,0.08,0.921
-0.265,0.027,0.997
-0.286,0.052,0.923
-0.279,0.015,0.955
-0.318,0.043,0.904
-0.277,0.047,1.001
-0.275,0.066,0.974
-0.264,0.053,0.974
-0.266,-0.017,1.013
-0.294,0.074,0.922
-0.279,0.035,0.947
-0.308,0.069,0.925
-0.275,0.026,0.976
-0.317,0.045,0.893
-0.305,0.023,0.948
-0.282,0.069,0.991
-0.259,0.071,0.966
-0.26,-0.006,1.024
-0.276,0.035,0.934
-0.264,0.027,0.995
-0.305,0.099,0.919
-0.267,0.009,0.98
-0.307,0.041,0.892
-0.29,0.025,0.954
-0.286,0.037,0.966
-0.281,0.079,0.928
-0.27,0.038,0.982
-0.297,0.019,0.912
-0.283,0.023,0.984
-0.289,0.096,0.931
-0.248,0.014,0.977
-0.28,0.073,0.936
-0.275,0.026,0.946
-0.297,0.089,0.969
-0.252,0.035,0.978
-0.291,0.038,0.924
-0.268,-0.004,0.987
-0.307,0.078,0.916
-0.262,0.043,0.99
-0.279,0.041,0.961
-0.287,0.036,0.928
-0.299,0.019,0.948
-0.311,0.064,0.934
-0.288,0.044,0.948
-0.294,0.076,0.915
-0.272,-0.028,1.001
-0.313,0.082,0.907
-0.271,0.045,0.97
-0.282,0.05,0.99
-0.267,0.054,0.956
-0.293,0.009,0.935
-0.306,0.042,0.905
-0.284,0.041,0.941
-0.312,0.092,0.907
-0.294,0,0.968
-0.311,0.019,0.898
-0.29,0.058,0.959
-0.292,0.057,0.962
-0.277,0.044,0.956
-0.278,0.02,0.964
-0.293,0.056,0.943
-0.272,0.012,0.985
-0.286,0.099,0.914
-0.266,0.019,0.962
-0.292,0.012,0.95
-0.291,0.06,0.929
-0.3,0.055,0.939
-0.281,0.05,0.973
-0.267,0.029,0.999
-0.303,0.06,0.908
-0.279,-0.01,0.976
-0.307,0.1,0.927
-0.275,0.034,0.967
-0.304,0.022,0.926
-0.291,0.018,0.918
-0.304,0.059,0.941
-0.287,0.072,0.957
-0.269,0.012,0.979
-0.305,0.064,0.922
-0.26,-0.008,1.017
-0.288,0.08,0.939
-0.259,0.046,0.957
-0.28,0.047,0.941
-0.291,0.008,0.948
-0.328,0.064,0.928
-0.295,0.064,0.94
-0.27,0.004,0.983
-0.308,0.083,0.928
-0.274,0.002,0.99
-0.313,0.05,0.912
-0.261,0.069,1.009
-0.283,0.065,0.955
-0.295,0.009,0.947
-0.289,0.006,0.95
-0.295,0.093,0.946
-0.251,0.019,1.001
-0.297,0.055,0.916
-0.302,0.03,0.957
-0.318,0.03,0.918
-0.271,0.047,0.983
-0.271,0.077,0.963
-0.262,0.038,0.969
-0.27,-0.019,1.002
-0.305,0.095,0.906
-0.274,0.023,0.972
-0.286,0.055,0.935
-0.266,0.044,0.979
-0.317,0.039,0.888
-0.288,0.031,0.956
-0.282,0.07,0.967
-0.278,0.069,0.963
-0.267,-0.018,1.004
-0.291,0.058,0.918
-0.261,0.032,0.989
-0.304,0.082,0.92
-0.283,0.008,0.961
-0.32,0.056,0.906
-0.298,0.014,0.945
-0.3,0.072,0.961
-0.287,0.08,0.949
-0.282,0.001,0.987
-0.309,0.034,0.917
-0.287,0.046,0.976
-0.308,0.077,0.915
-0.268,0,1.004
-0.268,0.076,0.967
-0.296,0.023,0.928
-0.307,0.023,0.935
-0.29,0.093,0.935
-0.27,0.026,0.975
-0.312,0.031,0.899
-0.287,0.029,0.991
-0.312,0.087,0.937
-0.257,0.031,1.008
-0.266,0.037,0.922
-0.289,0.045,0.957
-0.304,0.076,0.915
-0.307,0.044,0.972
-0.308,0.048,0.921
-0.285,-0.001,0.999
-0.318,0.092,0.909
-0.266,0.044,0.986
-0.268,0.03,0.989
-0.259,0.057,0.956
-0.296,0.008,0.946
-0.311,0.06,0.894
-0.275,0.05,0.991
-0.293,0.078,0.935
-0.289,-0.007,0.98
-0.317,0.051,0.91
-0.289,0.071,0.966
-0.294,0.031,0.951
-0.274,0.042,0.944
-0.294,0.028,0.971
-0.303,0.044,0.951
-0.267,0.035,0.991
-0.284,0.102,0.924
-0.275,-0.003,0.981
-0.316,0.033,0.938
-0.299,0.083,0.943
-0.289,0.046,0.963
-0.277,0.043,0.966
-0.264,0.041,1
-0.312,0.052,0.9
-0.288,0.011,0.978
-0.302,0.103,0.929
-0.269,0.022,0.968
-0.311,0.019,0.905
-0.313,0.051,0.935
-0.297,0.06,0.976
-0.276,0.051,0.963
-0.273,0.019,0.993
-0.298,0.062,0.921
-0.273,0.005,1.018
-0.305,0.084,0.923
-0.248,0.05,1.001
-0.294,0.021,0.933
-0.284,0.02,0.939
-0.313,0.077,0.926
-0.302,0.054,0.928
-0.278,0.016,0.988
-0.288,0.07,0.927
-0.284,0.006,0.976
-0.322,0.07,0.905
-0.255,0.069,1.015
-0.284,0.056,0.959
-0.28,0.006,0.945
-0.289,0.023,0.952
-0.285,0.098,0.953
-0.248,0.006,1.016
-0.294,0.055,0.909
-0.274,0.034,0.98
-0.317,0.033,0.936
-0.265,0.067,0.991
-0.278,0.07,0.966
-0.274,0.029,0.978
-0.287,0.003,0.993
-0.296,0.103,0.933
-0.254,0.014,0.993
-0.293,0.072,0.934
-0.268,0.045,1.007
-0.32,0.035,0.9
-0.294,0.048,0.97
-0.283,0.071,0.987
-0.262,0.055,0.99
-0.261,-0.007,1.01
-0.299,0.067,0.936
-0.253,0.051,0.996
-0.303,0.068,0.909
-0.293,0.011,0.953
-0.309,0.056,0.907
-0.298,0.019,0.968
-0.287,0.067,0.966
-0.271,0.081,0.952
-0.284,0.01,0.985
-0.302,0.042,0.927
-0.289,0.065,0.973
-0.29,0.065,0.953
-0.247,0.01,1.008
-0.254,0.08,0.981
-0.291,0.018,0.933
-0.314,0.033,0.913
-0.298,0.096,0.956
-0.26,0.02,0.996
-0.303,0.033,0.912
-0.289,0.025,1.003
-0.297,0.086,0.933
-0.266,0.036,1.01
-0.286,0.05,0.969
-0.278,0.046,0.948
-0.293,0.017,0.97
-0.31,0.087,0.924
-0.277,0.049,0.984
-0.281,0.04,0.934
-0.269,0.006,1.007
-0.307,0.105,0.908
-0.255,0.036,1.019
-0.274,0.044,0.996
-0.248,0.063,0.944
-0.296,0.014,0.915
-0.301,0.055,0.993
-0.267,0.081,0.925
-0.305,-0.009,0.989
-0.318,0.055,0.894
-0.271,0.075,0.993
-0.289,0.044,0.967
-0.258,0.04,0.974
-0.263,0.04,0.998
-0.277,0.052,0.963
-0.253,0.031,1.009
-0.273,0.099,0.932
-0.278,0.005,0.987
-0.306,0.031,0.929
-0.285,0.078,0.96
-0.3,0.052,0.947
-0.271,0.045,0.983
-0.256,0.045,1.019
-0.289,0.039,0.922
-0.265,0.015,1.003
-0.277,0.101,0.947
-0.243,0.024,0.994
-0.308,0.021,0.913
-0.303,0.044,0.944
-0.284,0.078,0.996
-0.266,0.046,0.979
-0.238,0.023,1.04
-0.266,0.06,0.956
-0.247,0,1.053
-0.281,0.084,0.954
-0.238,0.055,0.991
-0.285,0.04,0.952
-0.27,0.015,0.987
-0.29,0.07,0.964
-0.27,0.055,0.957
-0.255,0.02,1.002
-0.284,0.074,0.948
-0.268,0.009,1.012
-0.289,0.059,0.938
-0.222,0.063,1.038
-0.26,0.074,0.984
-0.269,0.008,0.973
-0.304,0.024,0.944
-0.299,0.086,0.936
-0.26,0.031,1
-0.303,0.06,0.908
-0.285,0.022,0.985
-0.314,0.039,0.945
-0.248,0.048,1.011
-0.266,0.083,0.992
-0.246,0.026,0.99
-0.265,0.007,1.008
-0.306,0.104,0.936
-0.281,0.024,0.977
-0.297,0.069,0.931
-0.253,0.035,1.011
-0.318,0.044,0.916
-0.278,0.026,0.994
-0.269,0.074,1
-0.249,0.06,0.984
-0.251,-0.006,1.01
-0.287,0.055,0.936
-0.255,0.048,1.004
-0.286,0.079,0.938
-0.271,0.016,0.994
-0.301,0.059,0.889
-0.282,0.025,0.997
-0.286,0.053,0.976
-0.261,0.076,0.954
-0.26,0.019,1.004
-0.286,0.035,0.948
-0.278,0.042,0.975
-0.281,0.086,0.956
-0.239,0.007,1.024
-0.278,0.081,0.969
-0.283,0.023,0.938
-0.307,0.037,0.92
-0.286,0.086,0.958
-0.261,0.032,0.998
-0.294,0.032,0.941
-0.273,0,1.001
-0.289,0.096,0.933
-0.237,0.031,1.02
-0.273,0.048,0.964
-0.279,0.049,0.944
-0.277,0.016,1.009
-0.286,0.064,0.946
-0.257,0.058,1
-0.284,0.054,0.941
-0.244,-0.021,1.036
-0.297,0.099,0.942
-0.245,0.028,0.984
-0.274,0.046,0.969
-0.271,0.06,0.97
-0.289,0.013,0.955
-0.303,0.037,0.915
-0.278,0.061,0.995
-0.289,0.08,0.959
-0.248,-0.008,1.044
-0.295,0.047,0.941
-0.251,0.055,1.003
-0.292,0.066,0.95
-0.276,0.033,0.957
-0.275,0.03,0.944
-0.276,0.04,1.009
-0.259,0.12,0.928
-0.278,0.017,0.988
-0.295,0.022,0.923
-0.277,0.053,0.966
-0.276,0.064,0.967
-0.269,0.041,0.97
-0.27,0.039,1.001
-0.286,0.055,0.91
-0.287,-0.008,0.942
-0.301,0.091,0.935
-0.258,0.039,1.009
-0.294,0.032,0.918
-0.285,0.024,0.98
-0.282,0.05,0.994
-0.245,0.077,0.991
-0.237,0.017,1.027
-0.294,0.059,0.925
-0.259,0,1.007
-0.296,0.064,0.914
-0.275,0.052,0.962
-0.295,0.058,0.937
-0.269,-0.005,0.965
-0.31,0.06,0.944
-0.281,0.071,0.928
-0.264,0.015,1.023
-0.275,0.075,0.942
-0.268,0.005,0.969
-0.313,0.052,0.917
-0.254,0.038,0.995
-0.279,0.088,0.968
-0.287,0.015,0.962
-0.296,0.005,0.934
-0.304,0.065,0.906
-0.279,0.052,0.978
-0.3,0.067,0.945
-0.253,-0.001,1.016
-0.288,0.063,0.927
-0.269,0.018,0.995
-0.287,0.083,0.943
-0.273,0.052,0.962
-0.266,-0.011,0.981
-0.307,0.07,0.896
-0.285,0.042,0.948
-0.293,0.061,0.939
-0.259,0.029,1.028
-0.307,0.055,0.916
-0.257,0.005,0.991
-0.284,0.066,0.951
-0.271,0.076,0.962
-0.267,0,0.973
-0.289,0.029,0.914
-0.279,0.029,0.969
-0.302,0.101,0.928
-0.273,0.014,1
-0.314,0.052,0.906
-0.262,0.023,0.983
-0.297,0.041,0.958
-0.271,0.073,0.966
-0.254,0.037,0.998
-0.276,0.039,0.96
-0.3,0.012,0.944
-0.305,0.091,0.901
-0.262,0.014,0.963
-0.289,0.05,0.946
-0.281,0.033,0.915
-0.315,0.029,0.937
-0.281,0.071,0.958
-0.264,0.045,0.985
-0.284,0.054,0.946
-0.263,-0.026,0.983
-0.307,0.083,0.909
-0.29,0.053,0.961
-0.301,0.047,0.929
-0.3,0.028,0.915
-0.297,0.02,0.944
-0.306,0.056,0.941
-0.268,0.049,1.005
-0.283,0.081,0.934
-0.233,-0.025,1.033
-0.306,0.063,0.924
-0.262,0.038,0.962
-0.288,0.06,0.935
-0.287,0.053,0.949
-0.308,0.024,0.906
-0.308,0.032,0.913
-0.285,0.034,0.964
-0.278,0.075,0.933
-0.249,0.002,1.011
-0.295,0.052,0.938
-0.27,0.022,0.984
-0.289,0.091,0.945
-0.296,0.045,0.942
-0.299,0.015,0.932
-0.3,0.047,0.933
-0.28,0.015,0.989
-0.294,0.08,0.893
-0.279,0.047,0.966
-0.313,0.025,0.922
-0.289,0.027,0.961
-0.29,0.076,0.948
-0.263,0.053,0.986
-0.267,0.023,0.99
-0.294,0.057,0.949
-0.286,-0.008,0.92
-0.295,0.044,0.98
-0.269,0.045,0.929
-0.3,0,0.969
-0.299,0.047,0.95
-0.27,0.09,0.961
-0.259,0.015,0.997
-0.299,0.055,0.902
-0.284,0.012,0.976
-0.307,0.066,0.925
-0.281,0.045,0.955
-0.298,0.071,0.906
-0.285,0.002,0.989
-0.315,0.031,0.944
-0.277,0.074,0.943
-0.248,0.02,1.024
-0.276,0.065,0.966
-0.263,0.009,0.981
-0.31,0.052,0.906
-0.277,0.033,0.99
-0.285,0.083,0.949
-0.28,0.027,0.955
-0.311,0,0.93
-0.308,0.063,0.916
-0.29,0.054,0.975
-0.292,0.059,0.954
-0.261,0.008,1.008
-0.289,0.064,0.949
-0.26,0.011,0.996
-0.283,0.08,0.941
-0.283,0.065,0.952
-0.286,-0.002,0.972
-0.314,0.05,0.918
-0.307,0.06,0.955
-0.287,0.058,0.944
-0.261,0.025,1.028
-0.303,0.07,0.919
-0.264,-0.005,0.996
-0.284,0.065,0.961
-0.263,0.07,0.976
-0.278,0.013,0.967
-0.309,0.032,0.909
-0.297,0.028,0.951
-0.302,0.105,0.939
-0.257,0.021,1.012
-0.307,0.047,0.894
-0.269,0.027,0.996
-0.293,0.045,0.955
-0.262,0.073,0.956
-0.269,0.045,0.987
-0.275,0.035,0.965
-0.292,0.015,0.948
-0.317,0.091,0.895
-0.279,0.026,0.989
-0.292,0.049,0.929
-0.291,0.042,0.937
-0.323,0.029,0.937
-0.283,0.07,0.973
-0.258,0.047,1.007
-0.273,0.05,0.952
-0.271,-0.02,0.992
-0.312,0.086,0.901
-0.278,0.062,0.965
-0.303,0.045,0.917
-0.294,0.028,0.933
-0.31,0.035,0.931
-0.297,0.061,0.948
-0.272,0.054,0.973
-0.29,0.079,0.932
-0.26,-0.01,1.023
-0.315,0.067,0.9
-0.281,0.038,0.954
-0.285,0.063,0.965
-0.275,0.043,0.973
-0.299,0.039,0.935
-0.306,0.03,0.923
-0.283,0.048,0.979
-0.287,0.081,0.927
-0.252,0.006,1.032
-0.286,0.044,0.937
-0.263,0.025,0.992
-0.283,0.093,0.964
-0.274,0.034,0.978
-0.288,0.015,0.959
-0.286,0.047,0.939
-0.277,0.027,0.969
-0.296,0.089,0.922
-0.271,0.043,0.989
-0.301,0.023,0.93
-0.282,0.041,0.988
-0.28,0.073,0.948
-0.266,0.051,0.995
-0.272,0.026,0.99
-0.3,0.063,0.896
-0.3,-0.001,0.971
-0.292,0.076,0.944
-0.26,0.057,1.014
-0.289,0.036,0.941
-0.273,0.013,0.972
-0.306,0.058,0.944
-0.273,0.082,0.97
-0.259,0.016,1.01
-0.3,0.06,0.984
-0.281,0.011,0.915
-0.318,0.037,0.978
-0.278,0.072,0.917
-0.275,-0.008,0.99
-0.304,0.048,0.953
-0.278,0.083,0.939
-0.261,0.028,1.031
-0.273,0.072,0.963
-0.261,0.007,0.992
-0.294,0.049,0.944
-0.266,0.035,0.969
-0.289,0.084,0.94
-0.281,0.023,0.954
-0.326,0.014,0.925
-0.305,0.066,0.945
-0.279,0.053,0.996
-0.274,0.057,0.969
-0.257,0.005,1.01
-0.27,0.071,0.967
-0.257,0.021,1.013
-0.283,0.076,0.955
-0.27,0.064,0.971
-0.271,-0.006,0.985
-0.305,0.063,0.942
-0.275,0.054,0.981
-0.278,0.053,0.952
-0.239,0.032,1.048
-0.306,0.066,0.902
-0.267,0.006,0.999
-0.288,0.075,0.947
-0.28,0.075,0.964
-0.288,0.009,0.972
-0.299,0.03,0.919
-0.291,0.038,0.976
-0.294,0.09,0.938
-0.249,0.015,1.026
-0.29,0.058,0.921
-0.25,0.023,1.027
-0.289,0.054,0.975
-0.263,0.075,0.973
-0.256,0.037,0.996
-0.278,0.03,0.963
-0.293,0.025,0.983
-0.305,0.09,0.902
-0.267,0.019,1.01
-0.3,0.057,0.937
-0.268,0.036,0.961
-0.318,0.029,0.938
-0.27,0.073,0.992
-0.261,0.058,1.003
-0.28,0.044,0.97
-0.255,-0.015,1.001
-0.291,0.08,0.934
-0.262,0.058,1
-0.298,0.051,0.931
-0.287,0.035,0.976
-0.273,0.033,0.986
-0.278,0.058,0.989
-0.252,0.064,1.026
-0.281,0.074,0.944
-0.244,-0.015,1.046
-0.3,0.078,0.912
-0.262,0.041,0.979
-0.285,0.061,0.957
-0.275,0.049,0.98
-0.299,0.04,0.931
-0.299,0.033,0.935
-0.271,0.057,1.01
-0.286,0.079,0.955
-0.239,0,1.043
-0.279,0.043,0.935
-0.268,0.043,0.998
-0.276,0.091,0.975
-0.27,0.028,0.972
-0.298,0.02,0.934
-0.296,0.048,0.927
-0.275,0.025,0.978
-0.298,0.09,0.935
-0.251,0.035,1.029
-0.287,0.034,0.949
-0.273,0.041,1
-0.278,0.075,0.965
-0.257,0.046,1.004
-0.255,0.032,1.022
-0.296,0.065,0.912
-0.298,0.003,0.978
-0.31,0.087,0.924
-0.254,0.057,1.032
-0.277,0.036,0.945
-0.27,0.014,0.984
-0.297,0.069,0.972
-0.254,0.073,0.998
-0.248,0.018,1.035
-0.266,0.053,0.938
-0.262,0.011,1.004
-0.303,0.076,0.915
-0.291,0.062,0.96
-0.308,0.064,0.912
-0.271,-0.013,1.016
-0.297,0.053,0.95
-0.257,0.077,0.968
-0.255,0.029,1.043
-0.268,0.07,0.971
-0.257,0.011,0.925
-0.308,0.046,0.98
-0.264,0.088,0.927
-0.289,0.021,0.978
-0.313,0.007,0.937
-0.303,0.073,0.934
-0.279,0.054,1.005
-0.277,0.05,0.952
-0.268,0.015,1.017
-0.286,0.067,0.977
-0.261,0.022,1.006
-0.285,0.086,0.93
-0.266,0.047,0.957
-0.294,0,0.978
-0.32,0.068,0.912
-0.278,0.045,0.981
-0.28,0.052,0.946
-0.251,0.027,1.032
-0.303,0.065,0.926
-0.27,0.001,0.995
-0.283,0.085,0.975
-0.275,0.066,0.976
-0.277,0.001,0.97
-0.289,0.038,0.922
-0.288,0.047,0.977
-0.287,0.089,0.94
-0.255,0.016,1.048
-0.302,0.052,0.939
-0.247,0.016,1.004
-0.283,0.056,0.958
-0.266,0.07,0.953
-0.26,0.037,0.994
-0.278,0.024,0.973
-0.284,0.032,0.98
-0.303,0.086,0.905
-0.274,0.026,1.004
-0.296,0.06,0.922
-0.263,0.025,0.982
-0.294,0.029,0.979
-0.253,0.078,0.99
-0.243,0.05,1.041
-0.279,0.031,0.961
-0.251,-0.006,1.004
-0.283,0.089,0.931
-0.262,0.05,1.003
-0.296,0.059,0.94
-0.274,0.029,0.97
-0.271,0.026,0.994
-0.254,0.059,0.978
-0.244,0.066,1.025
-0.261,0.049,0.966
-0.254,-0.016,1.026
-0.302,0.097,0.917
-0.25,0.034,0.989
-0.285,0.052,0.948
-0.272,0.054,0.989
-0.296,0.033,0.943
-0.288,0.04,0.971
-0.249,0.046,1.03
-0.271,0.078,0.945
-0.243,-0.012,1.04
-0.296,0.062,0.936
-0.251,0.044,0.986
-0.272,0.075,0.958
-0.271,0.031,0.967
-0.295,0.029,0.928
-0.311,0.046,0.925
-0.283,0.039,0.987
-0.297,0.094,0.939
-0.252,0.011,1.028
-0.29,0.034,0.945
-0.266,0.058,0.988
-0.279,0.064,0.976
-0.255,0.037,0.989
-0.248,0.043,1.02
-0.302,0.046,0.915
-0.288,0.01,0.971
-0.289,0.1,0.932
-0.245,0.042,1.037
-0.291,0.022,0.932
-0.27,0.027,0.985
-0.286,0.073,0.979
-0.244,0.054,0.986
-0.243,0.013,1.006
-0.281,0.059,0.912
-0.27,0.003,1.014
-0.303,0.091,0.898
-0.271,0.052,0.97
-0.312,0.045,0.909
-0.269,0.004,1
-0.297,0.077,0.979
-0.259,0.056,0.971
-0.247,0.027,1.036
-0.272,0.078,0.948
-0.27,-0.002,0.981
-0.309,0.068,0.909
-0.266,0.049,0.994
-0.28,0.067,0.959
-0.281,-0.005,0.947
-0.3,0.041,0.938
-0.292,0.093,0.955
-0.272,0.021,1.004
-0.28,0.049,0.938
-0.253,0.023,0.977
-0.29,0.061,0.99
-0.248,0.065,0.941
-0.271,0.013,0.966
-0.267,0.001,0.984
-0.31,0.096,0.914
-0.272,0.029,0.996
-0.292,0.054,0.941
-0.23,0.035,1.045
-0.3,0.057,0.933
-0.26,0.013,0.98
-0.27,0.097,0.967
-0.273,0.047,0.965
-0.289,-0.008,0.976
-0.295,0.062,0.908
-0.284,0.056,0.984
-0.283,0.055,0.958
-0.254,0.015,1.031
-0.3,0.071,0.931
-0.274,0.009,1.001
-0.291,0.067,0.96
-0.258,0.071,0.953
-0.264,0,1.011
-0.294,0.038,0.935
-0.276,0.053,0.984
-0.3,0.066,0.916
-0.27,0.02,0.983
-0.31,0.064,0.923
-0.282,0.013,0.969
-0.306,0.044,0.962
-0.254,0.083,0.976
-0.257,0.033,1.024
-0.275,0.016,0.942
-0.27,0.019,0.973
-0.289,0.102,0.946
-0.255,0.02,1.001
-0.297,0.047,0.912
-0.29,0.04,0.949
-0.297,0.029,0.972
-0.268,0.073,0.966
-0.254,0.049,0.997
-0.282,0.037,0.955
-0.257,-0.009,1.017
-0.3,0.11,0.934
-0.263,0.012,0.983
-0.287,0.056,0.939
-0.267,0.054,0.984
-0.305,0.015,0.937
-0.305,0.054,0.933
-0.26,0.054,1.018
-0.283,0.064,0.935
-0.265,-0.026,1.007
-0.31,0.072,0.894
-0.267,0.042,0.99
-0.287,0.059,0.941
-0.282,0.03,0.944
-0.305,0.022,0.932
-0.294,0.031,0.948
-0.278,0.039,0.974
-0.288,0.094,0.92
-0.256,0,1.036
-0.3,0.042,0.919
-0.266,0.06,1.001
-0.265,0.053,0.97
-0.27,0.032,0.964
-0.262,0.046,0.987
-0.303,0.036,0.916
-0.292,0.013,0.959
-0.28,0.097,0.936
-0.26,0.034,1.014
-0.309,0.024,0.924
-0.272,0.031,0.98
-0.288,0.075,0.973
-0.265,0.044,0.966
-0.261,0.018,0.982
-0.294,0.056,0.922
-0.277,-0.005,0.991
-0.301,0.084,0.924
-0.267,0.048,0.966
-0.305,0.038,0.925
-0.287,0,0.987
-0.304,0.084,0.967
-0.253,0.05,0.975
-0.246,0.019,1.019
-0.278,0.088,0.946
-0.29,-0.016,0.946
-0.324,0.068,0.895
-0.27,0.046,0.969
-0.289,0.061,0.938
-0.282,-0.007,0.94
-0.318,0.043,0.929
-0.302,0.089,0.932
-0.28,0.018,1.008
-0.281,0.053,0.943
-0.259,0.018,1.016
-0.288,0.058,0.961
-0.276,0.033,0.975
-0.289,0.089,0.937
-0.291,0.014,0.94
-0.302,0,0.952
-0.303,0.086,0.917
-0.274,0.026,0.99
-0.29,0.058,0.935
-0.231,0.033,1.044
-0.299,0.058,0.947
-0.274,0.008,0.944
-0.287,0.059,0.959
-0.282,-0.007,0.932
-0.331,0.051,0.885
-0.294,0.047,0.963
-0.296,0.064,0.929
-0.251,0.009,1.004
-0.304,0.077,0.916
-0.265,0.003,1.001
-0.284,0.072,0.948
-0.279,0.07,0.942
-0.278,0.003,0.965
-0.292,0.035,0.933
-0.289,0.052,0.951
-0.305,0.063,0.926
-0.28,0.017,0.967
-0.308,0.08,0.905
-0.293,0.018,0.942
-0.318,0.04,0.944
-0.258,0.078,0.979
-0.255,0.031,1.001
-0.296,0.033,0.927
-0.289,0.003,0.943
-0.302,0.086,0.92
-0.269,0.033,0.971
-0.298,0.052,0.921
-0.3,0.035,0.956
-0.291,0.022,0.975
-0.285,0.071,0.953
-0.261,0.05,0.994
-0.276,0.042,0.94
-0.266,-0.025,0.987
-0.314,0.106,0.894
-0.275,0.025,0.95
-0.285,0.052,0.941
-0.274,0.049,0.971
-0.311,0.026,0.926
-0.297,0.039,0.921
-0.266,0.063,1.003
-0.293,0.076,0.927
-0.265,-0.036,1.005
-0.312,0.067,0.899
-0.283,0.047,0.96
-0.3,0.061,0.927
-0.29,0.028,0.935
-0.299,0.018,0.935
-0.307,0.036,0.927
-0.283,0.032,0.967
-0.282,0.098,0.926
-0.251,0.007,1.016
-0.299,0.043,0.942
-0.279,0.045,0.97
-0.283,0.061,0.958
-0.279,0.035,0.969
-0.277,0.042,0.965
-0.305,0.035,0.901
-0.303,0.015,0.955
-0.294,0.09,0.922
-0.258,0.02,1.001
-0.304,0.033,0.909
-0.28,0.022,0.971
-0.3,0.071,0.932
-0.273,0.048,0.961
-0.279,0.021,0.97
-0.302,0.058,0.907
-0.294,-0.004,0.964
-0.303,0.076,0.889
-0.283,0.054,0.966
-0.301,0.037,0.91
-0.28,-0.002,0.978
-0.301,0.08,0.939
-0.276,0.051,0.949
-0.261,0.014,1.002
-0.283,0.094,0.952
-0.289,-0.009,0.96
-0.314,0.069,0.894
-0.283,0.055,0.965
-0.3,0.067,0.933
-0.286,-0.006,0.951
-0.32,0.034,0.925
-0.293,0.085,0.945
-0.28,0.03,0.999
-0.283,0.051,0.943
-0.252,0.006,0.993
-0.282,0.064,0.948
-0.279,0.04,0.944
-0.303,0.089,0.916
-0.294,0.022,0.94
-0.313,0.004,0.949
-0.293,0.086,0.915
-0.272,0.026,0.991
-0.285,0.05,0.924
-0.238,0.036,1.02
-0.313,0.065,0.932
-0.275,0.011,0.953
-0.295,0.09,0.932
-0.288,0.051,0.937
-0.301,-0.004,0.948
-0.31,0.052,0.907
-0.289,0.049,0.961
-0.305,0.065,0.926
-0.256,0.015,1.005
-0.301,0.068,1.025
-0.268,0,0.953
-0.294,0.075,0.942
-0.27,0.006,0.977
-0.308,0.043,0.934
-0.29,0.064,0.972
-0.299,0.054,0.922
-0.285,0.022,0.992
-0.31,0.074,0.894
-0.3,0.021,0.943
-0.314,0.041,0.954
-0.257,0.084,0.984
-0.26,0.022,0.999
-0.301,0.025,0.903
-0.282,0.015,0.958
-0.288,0.101,0.938
-0.26,0.02,1.018
-0.299,0.049,0.917
-0.292,0.047,0.954
-0.305,0.022,0.963
-0.286,0.074,0.96
-0.266,0.052,1.004
-0.287,0.034,0.939
-0.281,-0.005,0.983
-0.302,0.108,0.91
-0.272,0.015,0.978
-0.293,0.059,0.935
-0.279,0.055,0.986
-0.318,0.026,0.93
-0.307,0.058,0.935
-0.264,0.051,0.997
-0.285,0.061,0.932
-0.273,-0.03,0.983
-0.316,0.087,0.901
-0.28,0.047,0.984
-0.301,0.043,0.927
-0.296,0.029,0.928
-0.301,0.032,0.933
-0.314,0.041,0.951
-0.272,0.055,0.978
-0.272,0.076,0.949
-0.257,-0.003,1.019
-0.308,0.061,0.924
-0.278,0.074,0.978
-0.292,0.041,0.961
-0.28,0.039,0.962
-0.264,0.043,0.977
-0.308,0.039,0.923
-0.286,0.031,0.957
-0.282,0.083,0.947
-0.252,0.033,1.023
-0.317,0.032,0.903
-0.284,0.051,0.986
-0.288,0.078,0.961
-0.274,0.037,0.963
-0.284,0.011,0.965
-0.294,0.055,0.915
-0.29,0.006,0.987
-0.304,0.097,0.894
-0.269,0.035,0.99
-0.31,0.021,0.925
-0.277,0.023,0.995
-0.289,0.094,0.96
-0.264,0.031,0.984
-0.26,0.036,1.009
-0.279,0.074,0.932
-0.303,-0.012,0.943
-0.31,0.085,0.894
-0.271,0.04,0.978
-0.282,0.04,0.962
-0.287,0.005,0.957
-0.304,0.072,0.926
-0.29,0.088,0.959
-0.289,0.008,0.983
-0.297,0.054,0.921
-0.264,0.016,1.013
-0.296,0.06,0.958
-0.265,0.05,0.964
-0.29,0.069,0.939
-0.293,-0.01,0.936
-0.307,0.047,0.935
-0.304,0.087,0.938
-0.279,0.011,0.983
-0.283,0.066,0.935
-0.261,0.03,1.014
-0.303,0.054,0.947
-0.258,0.026,0.983
-0.285,0.08,0.948
-0.28,0.024,0.968
-0.307,0,0.912
-0.314,0.086,0.907
-0.275,0.045,1.004
-0.298,0.046,0.914
-0.277,0.027,1
-0.295,0.06,0.933
-0.268,0.013,1.002
-0.285,0.085,0.93
-0.272,0.055,0.963
-0.295,-0.018,0.977
-0.295,0.076,0.928
-0.269,0.066,0.984
-0.296,0.045,0.926
-0.288,0.034,0.969
-0.312,0.056,0.919
-0.29,0.016,0.911
-0.298,0.076,0.992
-0.263,0.014,1.014
-0.268,0.029,0.919
-0.263,0.046,0.983
-0.286,0.088,0.952
-0.273,0.008,0.973
-0.31,0.053,0.895
-0.291,0.029,0.982
-0.289,0.045,0.983
-0.283,0.091,0.944
-0.264,0.025,1.002
-0.306,0.021,0.922
-0.265,0.038,1.012
-0.276,0.1,0.942
-0.276,0,0.971
-0.305,0.083,0.91
-0.281,0.023,0.97
-0.322,0.038,0.938
-0.285,0.076,0.95
-0.269,0.042,1.021
-0.297,0.038,0.944
-0.276,0,0.987
-0.293,0.11,0.937
-0.236,0.035,1.025
-0.295,0.044,0.951
-0.283,0.03,0.935
-0.3,0.031,0.943
-0.304,0.065,0.937
-0.267,0.067,1.009
-0.275,0.041,0.929
-0.281,0.008,1.002
-0.308,0.085,0.919
-0.258,0.055,1.004
-0.291,0.03,0.966
-0.261,0.051,0.975
-0.284,0.026,0.977
-0.31,0.061,0.925
-0.283,0.047,0.97
-0.286,0.072,0.946
-0.258,0.004,1.02
-0.31,0.044,0.897
-0.27,0.073,0.99
-0.276,0.058,1.001
-0.281,0.035,0.964
-0.282,0.02,0.964
-0.288,0.056,0.957
-0.279,0.018,0.974
-0.302,0.1,0.902
-0.258,0.008,0.998
-0.311,0.03,0.926
-0.274,0.061,0.993
-0.257,0.068,0.984
-0.266,0.035,0.986
-0.267,0.044,1
-0.297,0.055,0.91
-0.297,0.013,0.973
-0.298,0.091,0.912
-0.258,0.025,0.976
-0.296,0.037,0.952
-0.289,0.016,0.957
-0.305,0.086,0.95
-0.268,0.068,0.984
-0.287,0.021,0.977
-0.287,0.051,0.926
-0.253,0.021,1.037
-0.293,0.081,0.963
-0.254,0.045,0.987
-0.274,0.049,0.953
-0.292,0.002,0.943
-0.298,0.075,0.96
-0.278,0.07,0.944
-0.278,0.015,1.008
-0.279,0.072,0.949
-0.239,0.02,1.055
-0.292,0.062,0.951
-0.248,0.05,1
-0.274,0.072,0.957
-0.273,0.014,0.988
-0.31,0.011,0.909
-0.303,0.107,0.929
-0.253,0.028,1.018
-0.293,0.051,0.915
-0.268,0.022,1
-0.299,0.066,0.943
-0.249,0.024,1.025
-0.274,0.089,0.967
-0.253,0.024,0.981
-0.294,-0.002,0.959
-0.295,0.091,0.93
-0.267,0.053,1.001
-0.3,0.042,0.921
-0.26,0.036,0.999
-0.3,0.047,0.933
-0.274,0.018,0.99
-0.288,0.084,0.954
-0.256,0.069,0.985
-0.267,0.009,1.015
-0.293,0.032,0.92
-0.271,0.051,0.996
-0.273,0.084,0.951
-0.272,0.009,0.977
-0.321,0.057,0.903
-0.27,0.024,0.993
-0.289,0.041,0.998
-0.254,0.08,1.017
-0.254,0.048,0.955
-0.285,0.044,1.016
-0.285,0.095,0.955
-0.268,-0.004,0.983
-0.288,0.075,0.935
-0.287,0.024,0.947
-0.321,0.047,0.946
-0.285,0.078,0.953
-0.244,0.029,1.029
-0.289,0.04,0.939
-0.27,-0.003,0.993
-0.293,0.116,0.932
-0.245,0.039,1.034
-0.291,0.039,0.935
-0.282,0.029,0.969
-0.281,0.031,0.973
-0.283,0.065,0.963
-0.254,0.057,0.998
-0.273,0.04,0.941
-0.263,-0.001,1.014
-0.292,0.101,0.954
-0.254,0.041,1.019
-0.284,0.041,0.976
-0.243,0.048,0.983
-0.259,0.026,1.01
-0.289,0.057,0.951
-0.266,0.051,0.978
-0.276,0.076,0.968
-0.246,-0.005,1.052
-0.298,0.048,0.907
-0.243,0.069,1.012
-0.273,0.062,0.986
-0.274,0.032,0.947
-0.282,0.027,0.965
-0.294,0.057,0.949
-0.273,0.026,1.002
-0.296,0.096,0.912
-0.258,0.003,1.006
-0.313,0.035,0.917
-0.265,0.057,0.988
-0.265,0.067,0.996
-0.259,0.033,0.983
-0.252,0.036,1.003
-0.279,0.044,0.956
-0.27,0.02,0.991
-0.288,0.095,0.916
-0.26,0.027,1.006
-0.293,0.036,0.954
-0.273,0.022,0.982
-0.294,0.088,0.967
-0.251,0.059,1.009
-0.268,0.016,0.997
-0.28,0.049,0.921
-0.259,0.018,1.016
-0.276,0.085,0.967
-0.252,0.05,0.992
-0.284,0.042,0.946
-0.291,0.013,0.955
-0.29,0.076,0.963
-0.28,0.064,0.97
-0.268,0.012,1.012
-0.28,0.069,0.948
-0.242,0.007,1.031
-0.3,0.076,0.937
-0.256,0.044,0.991
-0.275,0.057,0.969
-0.266,0.008,0.983
-0.309,0.033,0.918
-0.287,0.103,0.96
-0.251,0.025,1.041
-0.29,0.057,0.921
-0.249,0.006,1.024
-0.293,0.065,0.947
-0.245,0.035,1.011
-0.276,0.075,0.956
-0.263,0.012,0.97
-0.289,0.011,0.972
-0.297,0.091,0.944
-0.257,0.037,1.002
-0.309,0.052,0.925
-0.264,0.044,1.007
-0.307,0.044,0.93
-0.272,0.035,0.997
-0.274,0.081,0.965
-0.245,0.056,1.015
-0.27,-0.005,1.016
-0.295,0.051,0.909
-0.267,0.056,0.996
-0.273,0.062,0.961
-0.26,0.003,0.974
-0.296,0.048,0.891
-0.262,0.033,0.988
-0.28,0.062,0.989
-0.262,0.072,0.969
-0.253,0.005,1.006
-0.295,0.035,0.936
-0.277,0.045,0.986
-0.294,0.082,0.926
-0.271,0.005,0.983
-0.297,0.075,0.926
-0.269,0.007,0.971
-0.301,0.058,0.961
-0.269,0.079,1.018
-0.248,0.026,0.937
-0.296,-0.024,0.977
-0.282,0.116,0.934
-0.256,0.02,1.007
-0.29,0.046,0.924
-0.279,0.015,0.935
-0.284,0.024,0.963
-0.284,0.07,0.945
-0.255,0.057,0.997
-0.283,0.039,0.937
-0.276,-0.002,1.008
-0.296,0.097,0.927
-0.243,0.023,1.02
-0.272,0.051,0.956
-0.264,0.048,0.97
-0.275,0.017,0.972
-0.294,0.055,0.949
-0.263,0.046,0.97
-0.286,0.072,0.943
-0.255,-0.011,1.022
-0.316,0.055,0.894
-0.258,0.059,0.991
-0.273,0.059,0.983
-0.265,0.028,0.938
-0.296,0.023,0.934
-0.307,0.055,0.927
-0.273,0.026,0.982
-0.297,0.094,0.896
-0.246,0,1.015
-0.315,0.032,0.906
-0.258,0.052,1.006
-0.26,0.056,0.989
-0.266,0.029,0.967
-0.27,0.042,0.974
-0.281,0.055,0.942
-0.288,0.007,0.954
-0.303,0.095,0.901
-0.258,0.034,1.012
-0.287,0.031,0.959
-0.286,0.021,0.948
-0.302,0.086,0.973
-0.241,0.056,1.009
-0.278,0.016,0.976
-0.29,0.068,0.934
-0.267,0,1.006
-0.29,0.072,0.944
-0.264,0.046,0.963
-0.298,0.047,0.938
-0.293,-0.006,0.948
-0.299,0.07,0.951
-0.273,0.076,0.956
-0.275,0.01,1.012
-0.27,0.07,0.936
-0.251,0.001,1.01
-0.302,0.07,0.933
-0.266,0.035,0.955
-0.288,0.072,0.953
-0.279,0.006,0.957
-0.318,0.017,0.91
-0.312,0.096,0.931
-0.261,0.031,1.024
-0.299,0.052,0.912
-0.257,0.01,1.009
-0.29,0.059,0.943
-0.263,0.032,1.004
-0.285,0.085,0.931
-0.272,0.012,0.949
-0.313,0,0.935
-0.3,0.086,0.929
-0.269,0.044,0.997
-0.298,0.045,0.926
-0.265,0.038,1.011
-0.301,0.057,0.928
-0.266,0.009,1.006
-0.281,0.082,0.961
-0.258,0.055,1.006
-0.269,0.005,0.986
-0.295,0.033,0.917
-0.271,0.056,0.966
-0.277,0.072,0.945
-0.276,0.002,0.973
-0.305,0.061,0.899
-0.272,0.026,0.989
-0.294,0.052,0.976
-0.258,0.068,0.953
-0.267,0.013,0.981
-0.302,0.029,0.913
-0.297,0.033,0.961
-0.299,0.087,0.931
-0.277,0.005,0.962
-0.307,0.073,0.909
-0.282,0.01,0.932
-0.32,0.05,0.933
-0.284,0.078,0.934
-0.258,0.029,1.023
-0.285,0.045,0.946
-0.292,-0.012,0.95
-0.303,0.109,0.905
-0.26,0.035,1.009
-0.305,0.043,0.914
-0.296,0.035,0.933
-0.295,0.026,0.959
-0.278,0.056,0.962
-0.26,0.053,0.932
-0.288,0.047,1.009
-0.267,0.106,0.928
-0.297,0.029,0.96
-0.302,0.043,0.924
-0.28,0.044,0.933
-0.296,0.029,0.976
-0.309,0.05,0.925
-0.286,0.043,0.965
-0.285,0.068,0.929
-0.26,-0.011,1.009
-0.322,0.062,0.886
-0.275,0.054,0.96
-0.291,0.058,0.971
-0.282,0.025,0.941
-0.304,0.022,0.929
-0.314,0.058,0.937
-0.283,0.024,0.982
-0.303,0.089,0.897
-0.269,-0.005,0.99
-0.313,0.037,0.912
-0.281,0.06,0.977
-0.28,0.062,0.97
-0.267,0.027,0.949
-0.267,0.038,0.967
-0.296,0.046,0.926
-0.307,0.021,0.942
-0.307,0.096,0.885
-0.263,0.028,0.988
-0.305,0.023,0.939
-0.282,0.021,0.937
-0.308,0.092,0.942
-0.264,0.06,0.99
-0.29,0.01,0.969
-0.295,0.057,0.91
-0.274,0.001,0.97
-0.298,0.082,0.927
-0.28,0.043,0.946
-0.306,0.031,0.912
-0.308,0.024,0.927
-0.311,0.065,0.93
-0.281,0.062,0.95
-0.272,0.011,0.996
-0.287,0.072,0.903
-0.27,-0.004,0.999
-0.302,0.084,0.924
-0.27,0.035,0.963
-0.299,0.06,0.939
-0.292,0.004,0.962
-0.312,0.034,0.92
-0.297,0.094,0.918
-0.268,0.021,1.034
-0.29,0.049,0.91
-0.256,0.008,0.989
-0.308,0.072,0.941
-0.258,0.039,1.005
-0.288,0.071,0.936
-0.288,0.007,0.942
-0.311,0.019,0.932
-0.302,0.084,0.932
-0.273,0.042,0.984
-0.304,0.047,0.906
-0.269,0.036,0.994
-0.3,0.044,0.926
-0.269,0.039,0.997
-0.277,0.075,0.964
-0.256,0.041,0.992
-0.279,0.002,0.973
-0.302,0.046,0.909
-0.288,0.065,0.963
-0.301,0.056,0.95
-0.275,0.02,0.966
-0.312,0.045,0.881
-0.286,0.033,0.988
-0.294,0.059,0.968
-0.267,0.073,0.952
-0.257,-0.003,0.992
-0.301,0.051,0.913
-0.282,0.046,0.979
-0.289,0.069,0.942
-0.282,0.017,0.967
-0.306,0.071,0.913
-0.291,0.011,0.972
-0.309,0.05,0.952
-0.289,0.08,0.938
-0.249,0.023,1.033
-0.289,0.029,0.931
-0.278,0.003,0.972
-0.292,0.114,0.926
-0.26,0.023,1.028
-0.298,0.053,0.926
-0.279,0.03,0.962
-0.305,0.036,0.948
-0.296,0.071,0.947
-0.275,0.043,0.969
-0.295,0.037,0.934
-0.269,-0.003,1.004
-0.292,0.111,0.94
-0.266,0.024,0.993
-0.295,0.051,0.946
-0.268,0.042,0.953
-0.278,0.014,0.967
-0.297,0.061,0.949
-0.283,0.055,0.945
-0.294,0.068,1.003
-0.273,-0.021,0.888
-0.315,0.038,0.976
-0.264,0.051,0.966
-0.284,0.034,0.93
-0.309,0.021,0.925
-0.312,0.055,0.937
-0.274,0.037,0.994
-0.302,0.082,0.898
-0.271,0.001,0.989
-0.326,0.051,0.915
-0.291,0.052,0.976
-0.28,0.058,0.966
-0.275,0.035,0.971
-0.282,0.038,0.974
-0.291,0.041,0.948
-0.294,0.035,0.965
-0.293,0.091,0.929
-0.256,0.032,1.01
-0.307,0.027,0.947
-0.267,0.02,0.988
-0.284,0.09,0.961
-0.254,0.061,1.005
-0.276,0.026,0.973
-0.295,0.048,0.921
-0.269,0.007,0.993
-0.296,0.086,0.932
-0.278,0.05,0.957
-0.301,0.033,0.92
-0.3,0.02,0.955
-0.302,0.074,0.951
-0.261,0.056,0.976
-0.263,0.021,1.004
-0.29,0.072,0.938
-0.25,-0.001,1.028
-0.292,0.075,0.934
-0.267,0.039,0.97
-0.295,0.073,0.946
-0.275,-0.005,0.949
-0.327,0.04,0.905
-0.299,0.102,0.943
-0.252,0.027,1.041
-0.286,0.056,0.912
-0.259,0.006,1.003
-0.292,0.07,0.958
-0.251,0.045,1.003
-0.294,0.075,0.916
-0.273,0.005,0.95
-0.305,0.021,0.946
-0.279,0.08,0.958
-0.267,0.054,1.003
-0.297,0.05,0.927
-0.266,0.043,1.027
-0.288,0.052,0.938
-0.27,0.042,0.997
-0.291,0.091,0.957
-0.255,0.037,1.003
-0.279,0.001,0.976
-0.31,0.061,0.903
-0.282,0.057,0.974
-0.283,0.061,0.944
-0.265,0.026,0.976
-0.315,0.056,0.912
-0.269,0.028,1.004
-0.287,0.073,0.968
-0.258,0.069,0.972
-0.263,-0.012,1.001
-0.291,0.053,0.913
-0.288,0.053,0.959
-0.3,0.071,0.912
-0.281,0.014,0.978
-0.313,0.079,0.91
-0.269,0.01,0.984
-0.299,0.057,0.966
-0.268,0.074,0.974
-0.238,0.028,1.047
-0.276,0.04,0.959
-0.288,0.013,0.957
-0.298,0.114,0.932
-0.251,0.015,1.022
-0.299,0.056,0.912
-0.292,0.031,0.949
-0.309,0.045,0.946
-0.292,0.077,0.981
-0.258,0.042,1.001
-0.274,0.032,0.948
-0.277,0.015,1.002
-0.292,0.101,0.944
-0.262,0.019,1.008
-0.295,0.055,0.942
-0.275,0.043,0.947
-0.293,0.03,0.954
-0.302,0.069,0.943
-0.271,0.051,1.003
-0.265,0.057,0.982
-0.245,-0.004,1.037
-0.303,0.076,0.912
-0.256,0.053,1.012
-0.278,0.052,0.969
-0.269,0.034,0.965
-0.288,0.025,0.928
-0.303,0.066,0.943
-0.284,0.041,0.983
-0.298,0.081,0.899
-0.277,-0.002,0.911
-0.306,0.054,1.016
-0.259,0.057,0.979
-0.283,0.042,0.972
-0.265,0.033,0.994
-0.283,0.045,0.962
-0.286,0.043,0.978
-0.292,0.09,0.92
-0.246,0.015,1.024
-0.297,0.039,0.946
-0.26,0.031,0.999
-0.281,0.089,0.965
-0.254,0.048,1.016
-0.277,0.03,0.963
-0.292,0.05,0.916
-0.283,0.012,1.003
-0.277,0.095,0.939
-0.274,0.039,0.975
-0.302,0.025,0.934
-0.282,0.023,0.972
-0.281,0.074,0.972
-0.246,0.045,0.996
-0.27,0.04,1.003
-0.278,0.067,0.948
-0.269,0.009,0.996
-0.306,0.078,0.924
-0.262,0.035,0.978
-0.291,0.068,0.95
-0.286,0.006,0.965
-0.301,0.048,0.925
-0.274,0.088,0.978
-0.251,0.019,1.042
-0.289,0.063,0.914
-0.25,-0.003,1.007
-0.285,0.081,0.963
-0.253,0.064,1.014
-0.288,0.062,0.937
-0.27,0.003,0.965
-0.31,0.041,0.937
-0.289,0.084,0.961
-0.252,0.022,1.021
-0.282,0.064,0.952
-0.253,0.026,1.029
-0.291,0.045,0.954
-0.255,0.041,1.006
-0.275,0.089,0.965
-0.252,0.027,1.011
-0.277,0.007,0.972
-0.311,0.073,0.894
-0.277,0.046,0.985
-0.291,0.057,0.955
-0.259,0.018,1.01
-0.3,0.053,0.897
-0.259,0.033,1.02
-0.263,0.085,0.98
-0.26,0.048,0.976
-0.263,-0.008,0.985
-0.299,0.075,0.912
-0.275,0.042,1
-0.296,0.058,0.915
-0.277,0.034,0.997
-0.304,0.058,0.928
-0.266,0.009,0.993
-0.289,0.076,0.958
-0.254,0.067,0.989
-0.24,0.019,1.033
-0.283,0.04,0.948
-0.27,0.035,0.976
-0.284,0.086,0.939
-0.263,0.019,1.019
-0.308,0.076,0.904
-0.286,0.016,0.957
-0.301,0.045,0.964
-0.26,0.083,0.977
-0.268,0.026,0.997
-0.289,0.021,0.933
-0.249,0.038,1.007
-0.275,0.092,0.966
-0.245,0.008,1.012
-0.29,0.061,0.933
-0.284,0.037,0.948
-0.292,0.02,0.965
-0.286,0.09,0.954
-0.285,0.04,0.966
-0.282,0.053,0.962
-0.254,-0.006,1.035
-0.293,0.082,0.932
-0.234,0.039,1.016
-0.274,0.045,0.973
-0.269,0.055,0.974
-0.294,0.016,0.946
-0.284,0.076,0.966
-0.254,0.048,1.002
-0.307,0.057,0.906
-0.268,-0.019,1.003
-0.309,0.086,0.933
-0.242,0.037,1.01
-0.275,0.047,0.996
-0.258,0.048,0.962
-0.268,0.027,1.011
-0.284,0.049,0.952
-0.266,0.046,0.988
-0.286,0.078,0.929
-0.261,0.008,1.012
-0.304,0.044,1.02
-0.255,0.049,0.993
-0.261,0.035,1.011
-0.245,0.039,0.962
-0.303,0.039,0.901
-0.262,0.026,1.01
-0.28,0.093,0.935
-0.277,0.024,0.976
-0.316,0.022,0.915
-0.282,0.051,0.953
-0.289,0.066,0.981
-0.254,0.035,0.988
-0.26,0.036,1
-0.281,0.057,0.928
-0.264,-0.005,1.016
-0.294,0.097,0.916
-0.257,0.035,0.986
-0.298,0.047,0.936
-0.291,0.019,0.956
-0.305,0.067,0.934
-0.272,0.076,0.983
-0.252,0.011,1.038
-0.273,0.07,0.942
-0.255,-0.009,1.009
-0.282,0.088,0.945
-0.252,0.051,0.995
-0.295,0.052,0.913
-0.301,-0.002,0.951
-0.302,0.045,0.93
-0.286,0.069,0.954
-0.258,0.023,1.037
-0.292,0.073,0.921
-0.258,0.013,1.015
-0.303,0.05,0.925
-0.263,0.048,0.983
-0.275,0.076,0.962
-0.258,0.019,0.984
-0.28,0.01,0.96
-0.295,0.069,0.937
-0.276,0.038,0.979
-0.296,0.055,0.93
-0.273,0.025,1.001
-0.305,0.051,0.913
-0.263,0.034,1.016
-0.263,0.08,0.976
-0.267,0.046,0.969
-0.279,-0.007,0.99
-0.296,0.074,0.905
-0.27,0.033,0.985
-0.301,0.054,0.919
-0.283,0.037,0.984
-0.311,0.055,0.926
-0.261,0.013,1.009
-0.276,0.079,0.986
-0.24,0.061,0.993
-0.248,0.008,1.034
-0.292,0.045,0.936
-0.276,0.037,0.946
-0.295,0.092,0.942
-0.261,0.017,1.018
-0.3,0.072,0.919
-0.268,0.004,0.976
-0.28,0.05,0.989
-0.244,0.077,1.009
-0.254,0.02,0.985
-0.289,0.026,0.925
-0.269,0.018,0.992
-0.277,0.093,0.945
-0.258,0.01,0.996
-0.308,0.068,0.913
-0.281,0.015,0.948
-0.3,0.021,0.955
-0.289,0.083,0.941
-0.26,0.038,1.003
-0.275,0.041,0.971
-0.246,-0.019,1.009
-0.287,0.093,0.921
-0.255,0.042,0.988
-0.288,0.045,0.953
-0.294,0.042,0.929
-0.306,0.011,0.941
-0.302,0.063,0.933
-0.264,0.05,0.992
-0.301,0.068,0.899
-0.265,-0.027,1.031
-0.294,0.08,0.934
-0.242,0.042,1.022
-0.275,0.05,0.974
-0.283,0.045,0.93
-0.288,0.022,0.956
-0.306,0.038,0.908
-0.293,0.046,0.975
-0.294,0.078,0.914
-0.269,0.01,1.024
-0.303,0.043,0.936
-0.246,0.034,0.982
-0.287,0.083,0.97
-0.265,0.042,0.994
-0.282,0.03,0.958
-0.31,0.042,0.918
-0.278,0.008,0.978
-0.287,0.097,0.916
-0.279,0.024,0.954
-0.322,0.033,0.957
-0.293,0.037,0.982
-0.274,0.035,0.977
-0.252,0.026,0.994
-0.298,0.063,0.928
-0.286,-0.01,0.982
-0.295,0.085,0.915
-0.273,0.043,0.952
-0.291,0.043,0.935
-0.287,0.004,0.961
-0.307,0.063,0.939
-0.279,0.081,0.959
-0.26,0.016,1.038
-0.28,0.069,0.932
-0.269,-0.011,0.986
-0.292,0.077,0.937
-0.269,0.046,0.981
-0.296,0.057,0.913
-0.291,-0.002,0.94
-0.309,0.038,0.948
-0.271,0.076,0.955
-0.257,0.027,1.023
-0.285,0.071,0.939
-0.244,0.012,1.028
-0.298,0.055,0.925
-0.27,0.033,0.97
-0.288,0.076,0.938
-0.273,0.028,0.955
-0.295,0.009,0.954
-0.309,0.058,0.907
-0.277,0.047,0.971
-0.281,0.057,0.956
-0.273,0.023,0.978
-0.32,0.062,0.917
-0.264,0.006,1.02
-0.28,0.078,0.958
-0.276,0.051,0.942
-0.287,-0.009,0.953
-0.321,0.061,0.919
-0.294,0.051,0.958
-0.295,0.049,0.928
-0.279,0.015,0.979
-0.303,0.073,0.933
-0.27,0.008,1.004
-0.285,0.067,0.983
-0.25,0.062,0.957
-0.261,0.027,1.005
-0.3,0.035,0.943
-0.299,0.021,0.922
-0.31,0.1,0.916
-0.261,0.012,1.026
-0.301,0.058,0.915
-0.288,0.026,0.958
-0.305,0.046,0.958
-0.264,0.068,0.967
-0.282,0.038,0.958
-0.296,0.037,0.932
-0.284,-0.001,0.977
-0.291,0.1,0.951
-0.27,0.019,0.982
-0.309,0.053,0.916
-0.286,0.041,0.949
-0.305,0.015,0.941
-0.295,0.072,0.951
-0.264,0.045,0.983
-0.277,0.069,0.959
-0.266,-0.025,0.996
-0.311,0.077,0.896
-0.277,0.052,0.98
-0.282,0.053,0.971
-0.282,0.03,0.949
-0.292,0.024,0.938
-0.29,0.049,0.963
-0.27,0.043,0.988
-0.3,0.096,0.932
-0.248,-0.022,1.023
-0.307,0.052,0.903
-0.265,0.053,0.996
-0.281,0.051,0.942
-0.292,0.036,0.955
-0.287,0.045,0.955
-0.29,0.035,0.937
-0.3,0.046,0.971
-0.301,0.085,0.915
-0.241,0.017,1.025
-0.291,0.035,0.94
-0.269,0.015,0.976
-0.292,0.096,0.955
-0.251,0.041,1.005
-0.295,0.032,0.936
-0.31,0.046,0.896
-0.298,0.014,0.961
-0.306,0.081,0.922
-0.267,0.049,0.988
-0.308,0.039,0.904
-0.285,0.007,0.973
-0.301,0.082,0.963
-0.266,0.051,0.981
-0.281,0.011,0.981
-0.281,0.074,0.931
-0.298,0.012,0.957
-0.325,0.072,0.897
-0.265,0.046,0.975
-0.289,0.063,0.938
-0.275,0.001,0.916
-0.325,0.055,0.962
-0.282,0.02,1.039
-0.251,0.059,0.94
-0.252,-0.003,0.975
-0.312,0.068,0.919
-0.266,0.041,1.008
-0.298,0.075,0.913
-0.272,0.015,0.977
-0.321,0.026,0.925
-0.275,0.075,0.971
-0.257,0.043,1.019
-0.291,0.056,0.943
-0.249,0.021,0.998
-0.298,0.056,0.935
-0.281,0.023,0.977
-0.294,0.08,0.92
-0.269,0.044,0.985
-0.287,0.018,0.97
-0.308,0.048,0.909
-0.285,0.062,0.985
-0.268,0.068,0.966
-0.261,0.017,1.015
-0.298,0.059,0.918
-0.263,0.017,0.992
-0.304,0.072,0.957
-0.272,0.062,0.943
-0.287,0.019,0.956
-0.308,0.034,0.927
-0.281,0.054,0.984
-0.3,0.077,0.928
-0.271,0.011,1.009
-0.285,0.07,0.915
-0.268,0.019,0.997
-0.288,0.055,0.959
-0.273,0.067,0.954
-0.265,0.037,0.989
-0.29,0.025,0.939
-0.3,0.016,0.945
-0.302,0.104,0.939
-0.243,0.026,1.044
-0.294,0.061,0.939
-0.255,0.013,0.994
-0.286,0.047,0.972
-0.27,0.062,0.976
-0.279,0.054,0.964
-0.272,0.038,0.956
-0.292,-0.011,0.949
-0.317,0.096,0.904
-0.263,0.036,1.008
-0.306,0.041,0.898
-0.267,0.049,0.984
-0.297,0.035,0.949
-0.285,0.052,0.974
-0.266,0.056,0.996
-0.269,0.075,0.968
-0.255,-0.025,0.994
-0.315,0.067,0.906
-0.272,0.062,0.982
-0.281,0.067,0.959
-0.274,0.016,0.978
-0.291,0.039,0.935
-0.279,0.05,0.977
-0.265,0.04,1.011
-0.282,0.096,0.927
-0.26,-0.001,1.022
-0.31,0.044,0.927
-0.262,0.042,1.001
-0.289,0.074,0.949
-0.278,0.027,0.959
-0.294,0.052,0.942
-0.28,0.03,0.961
-0.279,0.035,1
-0.271,0.082,0.931
-0.234,0.034,1.07
-0.284,0.035,0.972
-0.262,0.013,0.985
-0.291,0.097,0.938
-0.255,0.041,0.999
-0.291,0.034,0.944
-0.306,0.044,0.909
-0.285,0.009,0.969
-0.304,0.083,0.925
-0.26,0.054,1.009
-0.285,0.036,0.935
-0.268,0.011,0.988
-0.294,0.092,0.956
-0.269,0.055,1.001
-0.273,0.015,0.983
-0.282,0.077,0.938
-0.281,0.004,0.994
-0.32,0.065,0.917
-0.254,0.046,1.012
-0.275,0.067,0.969
-0.252,0.007,1.014
-0.293,0.049,0.952
-0.261,0.084,0.992
-0.243,0.04,1.048
-0.273,0.049,0.943
-0.28,0.009,0.965
-0.316,0.076,0.922
-0.276,0.03,0.993
-0.315,0.093,0.893
-0.265,-0.003,0.999
-0.306,0.019,0.991
-0.276,0.083,1.01
-0.254,0.041,0.953
-0.276,0.029,1.017
-0.281,0.058,0.924
-0.291,0.023,0.979
-0.29,0.081,0.923
-0.273,0.034,0.985
-0.298,0.019,0.965
-0.287,0.035,0.955
-0.266,0.075,1.019
-0.256,0.054,0.978
-0.251,0.015,1.017
-0.291,0.063,0.937
-0.252,0.015,1.017
-0.271,0.07,0.959
-0.268,0.063,0.973
-0.283,0.013,0.962
-0.293,0.038,0.949
-0.261,0.055,1.012
-0.27,0.067,0.938
-0.258,0.014,1.025
-0.284,0.069,0.944
-0.248,0.019,1.036
-0.287,0.06,0.975
-0.263,0.067,0.971
-0.264,0.038,0.997
-0.288,0.033,0.945
-0.302,0.027,0.968
-0.301,0.095,0.928
-0.251,0.016,1.041
-0.294,0.063,0.923
-0.254,0.011,0.992
-0.289,0.057,0.951
-0.266,0.053,0.983
-0.269,0.057,0.976
-0.274,0.026,0.949
-0.281,-0.008,0.952
-0.304,0.098,0.915
-0.263,0.038,1.019
-0.309,0.06,0.917
-0.256,0.041,1.001
-0.284,0.025,0.964
-0.263,0.049,0.985
-0.255,0.057,0.992
-0.264,0.075,0.967
-0.256,-0.009,1.028
-0.312,0.058,0.916
-0.277,0.055,0.974
-0.276,0.067,0.969
-0.27,0.019,0.98
-0.292,0.036,0.963
-0.268,0.047,0.979
-0.252,0.035,1.022
-0.269,0.098,0.933
-0.248,0,1.023
-0.29,0.036,0.928
-0.253,0.051,1.009
-0.287,0.078,0.946
-0.278,0.02,0.974
-0.291,0.061,0.955
-0.281,0.027,0.954
-0.281,0.034,1.018
-0.284,0.084,0.928
-0.234,0.025,1.038
-0.282,0.038,0.957
-0.271,-0.005,0.957
-0.303,0.104,0.928
-0.256,0.04,1.014
-0.287,0.025,0.951
-0.285,0.044,0.92
-0.294,0.033,0.979
-0.306,0.069,0.946
-0.251,0.042,1.016
-0.289,0.06,0.951
-0.269,-0.013,0.996
-0.3,0.085,0.936
-0.269,0.059,0.976
-0.271,0.011,0.988
-0.275,0.073,0.949
-0.276,0.019,0.986
-0.326,0.054,0.914
-0.251,0.047,1.013
-0.269,0.076,0.96
-0.25,-0.001,1.023
-0.293,0.033,0.944
-0.271,0.079,0.966
-0.259,0.045,1.021
-0.277,0.047,0.965
-0.273,0.007,0.96
-0.306,0.069,0.899
-0.286,0.019,1.001
-0.297,0.092,0.904
-0.245,0.014,1.014
-0.293,0.012,0.947
-0.281,0.068,0.961
-0.281,0.042,0.959
-0.292,0.046,0.937
-0.27,0.019,0.97
-0.298,0.065,0.929
-0.286,0.014,0.968
-0.319,0.093,0.906
-0.266,0.047,0.987
-0.284,0.017,0.955
-0.277,0.02,0.983
-0.268,0.068,0.97
-0.271,-0.009,0.978
-0.297,0.073,0.911
-0.269,0.008,0.989
-0.304,0.05,0.932
-0.269,0.077,0.969
-0.279,0.038,0.969
-0.291,0.015,0.948
-0.26,0.043,1.02
-0.273,0.096,0.955
-0.246,-0.015,1.018
-0.286,0.083,0.936
-0.252,0.015,1.001
-0.297,0.04,0.938
-0.266,0.05,0.946
-0.272,0.052,0.978
-0.283,0.036,0.947
-0.286,0,0.984
-0.301,0.098,0.916
-0.225,0.034,1.07
-0.275,0.05,0.949
-0.255,0,0.963
-0.292,0.06,0.952
-0.284,0.026,0.956
-0.288,0.071,0.944
-0.285,0.048,0.936
-0.288,-0.032,0.948
-0.307,0.075,0.923
-0.249,0.055,1.011
-0.299,0.051,0.934
-0.243,0.032,1.005
-0.291,0.055,0.97
-0.284,0.016,0.952
-0.28,0.05,0.937
-0.279,0.085,0.965
-0.282,-0.008,0.977
-0.319,0.033,0.877
-0.28,0.048,0.979
-0.296,0.088,0.944
-0.267,0.021,0.985
-0.296,0.038,0.951
-0.274,0.036,0.959
-0.28,0.013,0.977
-0.287,0.101,0.925
-0.257,0.011,0.98
-0.312,0.021,0.909
-0.294,0.03,0.959
-0.31,0.093,0.906
-0.284,0.011,0.977
-0.289,0.054,0.95
-0.278,0.049,0.958
-0.294,0,0.974
-0.286,0.089,0.927
-0.255,0.037,0.994
-0.303,0.051,0.927
-0.299,-0.014,0.934
-0.324,0.091,0.903
-0.287,0.053,0.965
-0.291,0.024,0.943
-0.302,0.046,0.914
-0.294,0.029,0.974
-0.301,0.052,0.942
-0.261,0.043,1.004
-0.27,0.081,0.949
-0.268,-0.034,0.994
-0.292,0.067,0.947
-0.272,0.077,0.971
-0.284,0.012,0.963
-0.283,0.067,0.94
-0.272,0.03,0.994
-0.321,0.042,0.906
-0.265,0.036,1.017
-0.276,0.097,0.957
-0.243,0.003,1.026
-0.291,0.013,0.92
-0.3,0.067,0.913
-0.295,0.058,0.965
-0.295,0.037,0.917
-0.301,0.022,0.934
-0.326,0.055,0.869
-0.289,0.007,0.991
-0.302,0.096,0.915
-0.249,0.034,0.998
-0.287,0.016,0.963
-0.286,0.042,0.951
-0.297,0.064,0.945
-0.296,0.043,0.939
-0.275,0.02,0.96
-0.297,0.076,0.912
-0.298,0.01,0.973
-0.32,0.077,0.885
-0.268,0.065,1.004
-0.283,0.03,0.966
-0.282,0.013,0.95
-0.282,0.048,0.969
-0.278,0.096,0.967
-0.27,-0.006,0.982
-0.3,0.064,0.892
-0.275,0.021,0.965
-0.322,0.044,0.928
-0.283,0.075,0.956
-0.287,0.057,0.959
-0.286,0.007,0.984
-0.277,0.02,0.938
-0.293,-0.013,1.001
-0.264,0.074,0.924
-0.258,0.026,0.971
-0.33,0.032,0.881
-0.29,0.053,0.957
-0.296,0.068,0.942
-0.286,0.049,0.965
-0.302,-0.005,0.975
-0.309,0.08,0.908
-0.258,0.044,1.027
-0.284,0.059,0.944
-0.267,0.002,0.973
-0.305,0.06,0.919
-0.3,0.026,0.96
-0.306,0.078,0.926
-0.287,0.065,0.938
-0.287,-0.019,0.974
-0.311,0.057,0.919
-0.265,0.062,0.996
-0.283,0.051,0.962
-0.245,0.023,1.02
-0.276,0.064,0.948
-0.297,0.015,0.947
-0.305,0.052,0.936
-0.279,0.096,0.965
-0.263,0.014,0.998
-0.31,0.024,0.888
-0.29,0.048,0.981
-0.291,0.102,0.944
-0.259,0.016,1.009
-0.274,0.039,0.962
-0.265,0.046,0.968
-0.284,0.006,0.97
-0.287,0.095,0.945
-0.268,0.042,0.978
-0.297,0.024,0.914
-0.29,0.012,0.975
-0.312,0.102,0.899
-0.269,0.027,0.996
-0.294,0.041,0.982
-0.249,0.054,0.985
-0.273,0.002,0.988
-0.283,0.072,0.926
-0.262,0.052,0.99
-0.297,0.065,0.932
-0.287,-0.008,0.97
-0.318,0.066,0.911
-0.277,0.07,0.994
-0.278,0.035,0.988
-0.263,0.038,0.962
-0.273,0.037,0.991
-0.302,0.047,0.948
-0.264,0.045,0.998
-0.278,0.086,0.941
-0.26,-0.025,0.977
-0.295,0.055,0.943
-0.297,0.081,0.947
-0.295,0.034,0.965
-0.276,0.051,0.987
-0.251,0.042,1.019
-0.305,0.049,0.923
-0.269,0.016,0.978
-0.282,0.111,0.941
-0.251,0.024,1.011
-0.3,0.015,0.944
-0.286,0.04,0.937
-0.294,0.073,0.942
-0.289,0.046,0.939
-0.285,0.02,0.968
-0.295,0.063,0.91
-0.279,0.007,1.028
-0.286,0.097,0.933
-0.247,0.052,0.995
-0.289,0.034,0.968
-0.286,0.016,0.963
-0.302,0.069,0.925
-0.291,0.054,0.941
-0.28,0.017,0.992
-0.289,0.092,0.942
-0.268,0.003,1.031
-0.299,0.065,0.919
-0.237,0.073,1.034
-0.271,0.054,0.968
-0.281,0.003,0.961
-0.289,0.038,0.964
-0.289,0.096,0.952
-0.266,0.011,1.004
-0.297,0.057,0.916
-0.281,0.026,0.975
-0.312,0.051,0.937
-0.261,0.062,0.994
-0.282,0.075,0.982
-0.258,0.015,0.995
-0.268,0.016,0.997
-0.295,0.109,0.933
-0.265,0.001,0.997
-0.294,0.061,0.926
-0.256,0.034,0.994
-0.318,0.037,0.892
-0.283,0.039,0.968
-0.278,0.083,0.989
-0.267,0.046,0.986
-0.28,0,0.914
-0.29,0.069,1.03
-0.255,0.058,0.954
-0.278,0.004,0.963
-0.297,0.075,0.903
-0.305,0.019,0.954
-0.307,0.076,0.954
-0.258,0.068,0.966
-0.273,0.007,0.995
-0.294,0.043,0.942
-0.26,0.059,1.006
-0.281,0.073,0.955
-0.256,0.023,1.013
-0.285,0.08,0.959
-0.284,0.011,0.956
-0.294,0.04,0.949
-0.27,0.098,0.97
-0.251,0.03,1.035
-0.289,0.015,0.923
-0.264,0.03,1.015
-0.29,0.098,0.954
-0.239,0.023,1.015
-0.272,0.045,0.966
-0.267,0.044,0.951
-0.297,0.013,0.958
-0.298,0.084,0.94
-0.271,0.048,0.979
-0.294,0.042,0.944
-0.262,-0.001,1.01
-0.308,0.112,0.926
-0.247,0.019,1.006
-0.277,0.055,1
-0.24,0.051,0.987
-0.276,0.015,0.984
-0.295,0.07,0.916
-0.269,0.054,0.999
-0.28,0.068,0.947
-0.279,-0.008,0.989
-0.306,0.066,0.897
-0.261,0.067,1.013
-0.264,0.037,0.991
-0.257,0.035,0.982
-0.266,0.041,0.991
-0.29,0.041,0.964
-0.259,0.054,0.993
-0.268,0.091,0.965
-0.256,-0.02,0.989
-0.301,0.056,0.922
-0.296,0.086,0.971
-0.304,0.024,0.954
-0.276,0.044,0.965
-0.249,0.044,1.019
-0.286,0.035,0.932
-0.27,0.017,1.001
-0.263,0.106,0.973
-0.244,0.026,1.003
-0.307,0.023,0.925
-0.302,0.051,0.941
-0.289,0.073,0.973
-0.274,0.047,0.956
-0.27,0.018,0.999
-0.289,0.065,0.934
-0.256,0.001,1.057
-0.282,0.098,0.944
-0.238,0.043,0.996
-0.279,0.034,0.966
-0.275,0.023,0.969
-0.304,0.077,0.934
-0.289,0.044,0.939
-0.273,0.021,0.998
-0.286,0.088,0.954
-0.258,-0.003,1.049
-0.294,0.072,0.93
-0.229,0.067,1.042
-0.28,0.049,0.985
-0.273,0.002,0.95
-0.281,0.049,0.972
-0.273,0.094,0.963
-0.258,0.006,1.006
-0.304,0.054,0.894
-0.268,0.033,1.001
-0.301,0.035,0.942
-0.246,0.068,1.023
-0.276,0.073,0.974
-0.261,0.012,0.98
-0.271,0.013,1.008
-0.281,0.101,0.932
-0.255,0.009,0.987
-0.299,0.071,0.921
-0.261,0.036,0.992
-0.327,0.04,0.904
-0.284,0.041,0.976
-0.284,0.085,0.997
-0.256,0.039,0.992
-0.267,-0.012,1
-0.279,0.066,0.937
-0.256,0.048,1.001
-0.288,0.063,0.943
-0.263,0.005,0.963
-0.31,0.068,0.911
-0.281,0.011,0.983
-0.287,0.085,0.971
-0.258,0.064,0.968
-0.261,-0.005,0.939
-0.301,0.055,0.997
-0.262,0.078,0.929
-0.277,0.024,1.004
-0.287,0.079,0.954
-0.303,0.021,0.948
-0.291,0.032,0.941
-0.27,0.09,0.969
-0.242,0.014,1.032
-0.298,0.018,0.909
-0.259,0.033,1.008
-0.278,0.101,0.956
-0.242,0.006,1.016
-0.269,0.049,0.964
-0.271,0.038,0.944
-0.299,0.015,0.969
-0.286,0.091,0.932
-0.263,0.039,0.972
-0.313,0.033,0.917
-0.276,0.006,1.002
-0.318,0.109,0.894
-0.266,0.011,1.008
-0.277,0.054,0.969
-0.253,0.046,0.979
-0.273,0.009,0.968
-0.298,0.066,0.916
-0.258,0.051,1.002
-0.292,0.064,0.927
-0.287,-0.009,0.989
-0.321,0.078,0.893
-0.251,0.064,1.033
-0.265,0.028,0.997
-0.262,0.026,0.959
-0.28,0.041,0.984
-0.295,0.036,0.94
-0.273,0.047,0.976
-0.277,0.084,0.945
-0.259,-0.025,1.008
-0.296,0.058,0.929
-0.279,0.076,0.952
-0.298,0.033,0.949
-0.274,0.052,0.969
-0.241,0.033,1.026
-0.284,0.039,0.929
-0.262,0.015,0.991
-0.284,0.104,0.941
-0.255,0.003,0.985
-0.303,0.02,0.912
-0.291,0.061,0.952
-0.289,0.065,0.968
-0.278,0.035,0.953
-0.264,0.024,0.996
-0.288,0.071,0.927
-0.275,-0.004,1.03
-0.28,0.098,0.93
-0.25,0.031,0.99
-0.284,0.02,0.964
-0.28,0.023,0.943
-0.297,0.077,0.924
-0.291,0.042,0.945
-0.285,0.021,0.966
-0.295,0.08,0.933
-0.269,-0.003,1.016
-0.298,0.074,0.908
-0.244,0.063,1.016
-0.287,0.042,0.973
-0.29,-0.006,0.94
-0.274,0.047,0.975
-0.277,0.089,0.969
-0.263,-0.003,0.987
-0.298,0.051,0.906
-0.26,0.025,0.996
-0.308,0.046,0.934
-0.248,0.061,1.003
-0.27,0.059,0.978
-0.27,0.005,0.962
-0.276,0.03,1.008
-0.277,0.096,0.933
-0.265,0.002,0.994
-0.303,0.069,0.93
-0.26,0.031,1.001
-0.325,0.029,0.891
-0.285,0.042,0.955
-0.284,0.075,0.96
-0.272,0.04,0.973
-0.277,-0.012,1.002
-0.293,0.085,0.932
-0.265,0.048,1.008
-0.295,0.055,0.924
-0.288,0.008,0.941
-0.321,0.056,0.909
-0.284,0.022,0.983
-0.287,0.078,0.96
-0.265,0.061,0.957
-0.273,-0.009,1.017
-0.289,0.054,0.938
-0.255,0.045,1.01
-0.268,0.064,0.972
-0.251,0.018,1.008
-0.282,0.075,0.949
-0.296,0.017,0.944
-0.295,0.051,0.932
-0.284,0.093,0.971
-0.272,0.007,0.996
-0.318,0.028,1.007
-0.267,0.047,0.972
-0.279,-0.003,0.998
-0.245,0.059,0.938
-0.292,0.03,0.952
-0.291,0.018,0.96
-0.289,0.088,0.929
-0.273,0.032,0.978
-0.305,0.017,0.934
-0.267,0.018,0.998
-0.296,0.108,0.928
-0.251,0.003,1.001
-0.287,0.059,0.956
-0.269,0.05,0.964
-0.29,0.001,0.97
-0.301,0.068,0.911
-0.263,0.044,0.975
-0.304,0.049,0.909
-0.292,-0.01,0.959
-0.305,0.09,0.907
-0.265,0.058,0.997
-0.289,0.029,0.992
-0.252,0.029,0.95
-0.273,0.032,0.982
-0.289,0.048,0.945
-0.272,0.047,0.971
-0.296,0.078,0.907
-0.277,-0.018,0.989
-0.309,0.056,0.931
-0.277,0.071,0.955
-0.296,0.024,0.948
-0.287,0.058,0.95
-0.257,0.017,1.007
-0.297,0.052,0.936
-0.259,0.025,0.996
-0.278,0.099,0.953
-0.263,0.001,0.994
-0.306,0.025,0.909
-0.297,0.067,0.925
-0.287,0.056,0.977
-0.281,0.038,0.946
-0.282,0.018,0.969
-0.31,0.067,0.93
-0.262,0.004,1.033
-0.274,0.104,0.928
-0.249,0.014,0.985
-0.297,0.018,0.941
-0.284,0.046,0.941
-0.295,0.071,0.921
-0.307,0.042,0.93
-0.287,0.028,0.959
-0.299,0.061,0.917
-0.282,0.013,0.999
-0.304,0.086,0.915
-0.244,0.051,1.026
-0.275,0.021,0.965
-0.291,0.018,0.908
-0.297,0.071,0.93
-0.286,0.08,0.962
-0.274,-0.007,0.976
-0.304,0.051,0.9
-0.287,0.017,0.982
-0.302,0.064,0.93
-0.281,0.076,0.971
-0.287,0.038,0.961
-0.288,-0.003,0.949
-0.276,0.041,0.971
-0.278,0.088,0.935
-0.28,-0.004,0.976
-0.293,0.076,0.923
-0.264,0.021,0.977
-0.322,0.044,0.915
-0.268,0.054,0.957
-0.275,0.063,0.987
-0.264,0.023,0.976
-0.273,-0.001,0.985
-0.29,0.097,0.928
-0.246,0.029,1.016
-0.306,0.057,0.905
-0.288,0.006,0.937
-0.31,0.045,0.916
-0.286,0.039,0.956
-0.298,0.076,0.918
-0.29,0.035,0.952
-0.295,-0.004,0.984
-0.301,0.083,0.933
-0.232,0.034,1.041
-0.284,0.055,0.953
-0.256,0.038,0.986
-0.302,0.044,0.926
-0.319,0.039,0.929
-0.295,0.062,0.944
-0.281,0.062,0.964
-0.274,-0.007,0.986
-0.323,0.049,0.897
-0.267,0.06,1.003
-0.274,0.079,0.986
-0.249,0.009,1.001
-0.299,0.048,0.935
-0.281,0.035,0.954
-0.282,0.033,0.954
-0.289,0.085,0.94
-0.269,-0.005,0.947
-0.326,0.032,0.884
-0.273,0.033,0.93
-0.278,0.088,1.014
-0.258,0.076,0.962
-0.276,0.016,0.987
-0.273,0.026,0.976
-0.279,0.092,0.922
-0.272,0.028,0.989
-0.307,0.029,0.9
-0.308,0.016,0.933
-0.307,0.094,0.924
-0.255,0.03,1.01
-0.292,0.042,0.964
-0.271,0.026,0.944
-0.274,0.02,0.999
-0.289,0.069,0.936
-0.277,0.039,0.956
-0.294,0.054,0.929
-0.295,-0.009,0.942
-0.309,0.088,0.914
-0.286,0.047,0.951
-0.305,0.02,0.945
-0.271,0.058,0.929
-0.271,0.02,0.996
-0.304,0.062,0.95
-0.269,0.035,0.998
-0.286,0.079,0.933
-0.269,-0.008,0.978
-0.322,0.04,0.897
-0.292,0.077,0.949
-0.284,0.045,0.954
-0.295,0.034,0.923
-0.287,0.015,0.959
-0.299,0.049,0.928
-0.261,0.025,1.033
-0.288,0.099,0.951
-0.236,-0.009,1.003
-0.304,0.03,0.927
-0.297,0.055,0.928
-0.295,0.06,0.925
-0.312,0.042,0.93
-0.289,0.032,0.955
-0.311,0.058,0.921
-0.282,0.014,1.003
-0.295,0.08,0.914
-0.229,0.038,1.035
-0.283,0.016,0.955
-0.3,0.025,0.922
-0.292,0.076,0.957
-0.27,0.067,0.986
-0.266,-0.004,0.956
-0.316,0.061,0.877
-0.301,0.026,0.988
-0.308,0.059,0.921
-0.267,0.069,0.981
-0.288,0.028,0.954
-0.283,0.001,0.934
-0.287,0.043,0.97
-0.289,0.084,0.917
-0.29,0.006,0.974
-0.311,0.073,0.902
-0.274,0.016,0.981
-0.313,0.045,0.892
-0.283,0.064,0.961
-0.29,0.061,0.966
-0.281,0.02,0.978
-0.289,0.008,0.968
-0.289,0.104,0.948
-0.254,0.023,1.018
-0.295,0.056,0.899
-0.287,0.013,0.956
-0.31,0.053,0.92
-0.29,0.034,0.97
-0.296,0.078,0.952
-0.269,0.039,0.983
-0.284,-0.005,0.976
-0.297,0.08,0.934
-0.254,0.045,1.01
-0.286,0.055,0.932
-0.262,0.033,0.978
-0.302,0.064,0.936
-0.31,0.022,0.935
-0.305,0.061,0.918
-0.271,0.071,0.976
-0.269,0.005,1.002
-0.304,0.026,0.897
-0.262,0.065,1.004
-0.281,0.081,0.967
-0.254,0.008,1.013
-0.299,0.05,0.944
-0.294,0.032,0.938
-0.31,0.035,0.951
-0.298,0.09,0.926
-0.283,0.022,0.971
-0.311,0.015,0.915
-0.287,0.04,1.008
-0.299,0.099,0.924
-0.248,0.006,1.014
-0.281,0.064,0.967
-0.258,0.041,0.962
-0.299,0.018,0.959
-0.301,0.081,0.933
-0.257,0.038,0.996
-0.304,0.05,0.928
-0.312,0.004,0.905
-0.318,0.088,1.003
-0.257,0.026,0.959
-0.289,0.046,0.95
-0.278,0.032,0.999
-0.293,0.055,0.97
-0.267,0.057,0.974
-0.29,0.069,0.929
-0.281,-0.025,0.984
-0.306,0.076,0.915
-0.27,0.072,0.992
-0.288,0.029,0.974
-0.259,0.06,0.975
-0.265,0.036,1.01
-0.298,0.036,0.937
-0.268,0.034,0.974
-0.289,0.097,0.936
-0.276,0.002,0.982
-0.321,0.024,0.906
-0.281,0.066,0.961
-0.287,0.071,0.976
-0.278,0.028,0.963
-0.28,0.025,0.978
-0.3,0.063,0.933
-0.268,0.006,1.015
-0.288,0.107,0.933
-0.249,0.014,0.993
-0.31,0.019,0.928
-0.297,0.049,0.934
-0.306,0.078,0.951
-0.271,0.026,0.964
-0.272,0.038,0.982
-0.292,0.072,0.952
-0.271,0.012,1.029
-0.287,0.083,0.928
-0.245,0.062,1.036
-0.296,0.033,0.948
-0.292,0.004,0.928
-0.291,0.073,0.968
-0.267,0.077,0.961
-0.271,0.012,0.99
-0.319,0.052,0.894
-0.279,0.018,1.013
-0.298,0.07,0.944
-0.254,0.074,1.023
-0.263,0.046,0.98
-0.282,0.002,0.959
-0.274,0.037,0.991
-0.281,0.086,0.924
-0.287,0.012,0.985
-0.31,0.076,0.911
-0.271,0.029,1.007
-0.332,0.04,0.915
-0.26,0.053,0.995
-0.264,0.079,1.014
-0.257,0.019,1.004
-0.266,0.006,0.996
-0.297,0.102,0.939
-0.249,0.025,1.024
-0.291,0.048,0.907
-0.289,0.024,0.956
-0.306,0.059,0.917
-0.271,0.027,1.001
-0.284,0.092,0.949
-0.255,0.044,0.997
-0.278,-0.001,1.005
-0.283,0.07,0.954
-0.242,0.05,1.01
-0.286,0.055,0.938
-0.266,0.035,0.988
-0.292,0.068,0.928
-0.295,0.016,0.954
-0.298,0.053,0.944
-0.268,0.069,0.964
-0.267,0.019,1.003
-0.311,0.028,0.908
-0.272,0.055,1.012
-0.266,0.087,1.002
-0.245,0.01,0.998
-0.299,0.055,0.931
-0.281,0.037,0.952
-0.292,0.033,0.964
-0.288,0.088,0.928
-0.269,0.02,1.002
-0.3,0.015,0.924
-0.259,0.04,1.025
-0.288,0.104,0.939
-0.257,0.011,1.018
-0.274,0.074,0.969
-0.274,0.038,0.972
-0.293,0.017,0.977
-0.285,0.08,0.943
-0.264,0.053,0.997
-0.314,0.046,0.92
-0.286,0,0.998
-0.301,0.092,0.912
-0.248,0.055,1.038
-0.279,0.037,0.977
-0.27,0.027,0.959
-0.276,0.038,0.989
-0.286,0.057,0.97
-0.264,0.049,0.994
-0.285,0.061,0.949
-0.272,-0.015,0.907
-0.293,0.083,0.998
-0.261,0,0.983
-0.288,0.051,0.973
-0.279,0.031,1.02
-0.283,0.043,0.962
-0.249,0.039,0.992
-0.263,0.084,0.951
-0.269,0.004,0.988
-0.317,0.035,0.9
-0.277,0.072,0.967
-0.267,0.064,1.005
-0.27,0.032,0.946
-0.277,0.031,0.987
-0.28,0.048,0.948
-0.249,0.008,1.032
-0.27,0.107,0.954
-0.239,0.011,1.01
-0.301,0.02,0.946
-0.278,0.049,0.963
-0.293,0.077,0.948
-0.28,0.033,0.975
-0.269,0.034,0.995
-0.277,0.063,0.965
-0.253,0.004,1.03
-0.279,0.091,0.933
-0.241,0.051,1.025
-0.284,0.027,0.969
-0.293,0.007,0.917
-0.291,0.067,0.946
-0.279,0.08,0.969
-0.264,0.012,0.991
-0.299,0.052,0.912
-0.259,0.02,1.019
-0.296,0.058,0.943
-0.242,0.065,1.013
-0.266,0.051,0.974
-0.278,0.003,0.953
-0.288,0.048,0.965
-0.28,0.088,0.935
-0.275,0,0.989
-0.302,0.079,0.914
-0.261,0.039,1.021
-0.313,0.035,0.925
-0.252,0.052,1.009
-0.279,0.081,0.994
-0.255,0.018,0.991
-0.274,0,0.979
-0.291,0.099,0.937
-0.251,0.035,1.013
-0.297,0.041,0.906
-0.278,0.02,0.968
-0.306,0.061,0.917
-0.264,0.034,1.015
-0.289,0.08,0.961
-0.257,0.038,0.976
-0.272,0.003,1.005
-0.289,0.069,0.953
-0.249,0.042,0.994
-0.291,0.057,0.925
-0.265,0.043,0.983
-0.293,0.054,0.944
-0.301,0.019,0.969
-0.282,0.058,0.942
-0.264,0.08,0.991
-0.26,0.003,1.012
-0.286,0.026,0.933
-0.252,0.042,0.993
-0.278,0.095,0.957
-0.259,0.002,0.976
-0.287,0.054,0.926
-0.283,0.033,0.929
-0.307,0.033,0.953
-0.289,0.081,0.91
-0.275,0.026,0.996
-0.304,0.025,0.914
-0.256,0.03,1.025
-0.278,0.094,0.942
-0.252,0,1.013
-0.278,0.082,0.955
-0.275,0.023,0.957
-0.295,0.018,0.949
-0.279,0.081,0.948
-0.251,0.04,1.01
-0.294,0.044,0.932
-0.279,0,0.992
-0.304,0.098,0.91
-0.237,0.04,1.025
-0.28,0.03,0.976
-0.258,0.024,0.943
-0.275,0.043,0.988
-0.277,0.053,0.963
-0.265,0.052,0.969
-0.286,0.067,0.939
-0.27,-0.019,0.993
-0.301,0.09,0.94
-0.255,0.056,1.016
-0.287,0.021,0.966
-0.261,0.053,0.958
-0.247,0.024,1.015
-0.289,0.043,0.941
-0.263,0.047,0.967
-0.28,0.084,0.945
-0.266,-0.005,0.993
-0.316,0.042,0.938
-0.281,0.07,1.016
-0.272,0.032,0.955
-0.269,0.017,0.995
-0.304,0.056,0.944
-0.259,0.012,1.007
-0.28,0.097,0.921
-0.26,0.003,0.976
-0.301,0.025,0.925
-0.287,0.055,0.962
-0.285,0.064,0.95
-0.284,0.031,0.966
-0.246,0.038,1.022
-0.28,0.059,0.954
-0.257,0.006,1.045
-0.275,0.095,0.92
-0.242,0.042,1.022
-0.288,0.027,0.959
-0.298,0.016,0.91
-0.292,0.07,0.959
-0.269,0.067,0.97
-0.27,0.001,0.993
-0.312,0.047,0.882
-0.264,0.024,1.013
-0.296,0.069,0.937
-0.248,0.05,0.985
-0.281,0.042,0.963
-0.281,-0.001,0.937
-0.291,0.052,0.955
-0.287,0.074,0.917
-0.291,0.001,0.962
-0.302,0.072,0.915
-0.266,0.013,1.021
-0.31,0.055,0.915
-0.256,0.058,0.999
-0.262,0.059,1.005
-0.256,0.01,0.98
-0.29,0.02,0.97
-0.281,0.094,0.943
-0.266,0.021,0.994
-0.314,0.05,0.897
-0.295,0.012,0.948
-0.316,0.046,0.887
-0.283,0.058,0.981
-0.291,0.074,0.95
-0.248,0.013,0.981
-0.274,0.005,0.984
-0.274,0.089,0.952
-0.253,0.024,0.992
-0.298,0.065,0.924
-0.27,0.033,0.98
-0.306,0.038,0.946
-0.289,0.036,0.96
-0.287,0.061,0.944
-0.254,0.047,0.98
-0.259,0.003,1.012
-0.299,0.063,0.919
-0.253,0.052,1.004
-0.266,0.079,0.975
-0.273,0.003,0.965
-0.3,0.053,0.926
-0.295,0.036,0.934
-0.293,0.043,0.945
-0.284,0.069,0.933
-0.274,-0.001,0.992
-0.315,0.046,0.902
-0.248,0.046,1.035
-0.271,0.077,0.968
-0.259,0.012,1.001
-0.273,0.069,0.959
-0.275,0.014,0.965
-0.292,0.039,0.955
-0.292,0.086,0.933
-0.259,0.015,0.99
-0.308,0.033,0.905
-0.298,0.026,0.963
-0.31,0.094,0.918
-0.249,0.025,1.052
-0.275,0.038,0.963
-0.273,0.03,0.944
-0.28,0.038,0.988
-0.276,0.08,0.948
-0.28,0.037,0.962
-0.303,0.025,0.933
-0.287,0.021,0.974
-0.29,0.092,0.942
-0.279,0.03,0.976
-0.305,0.054,0.96
-0.281,0.045,0.959
-0.264,0,1.011
-0.28,0.08,0.936
-0.25,0.039,0.992
-0.285,0.058,0.942
-0.277,-0.006,0.945
-0.319,0.071,0.892
-0.292,0.059,0.961
-0.28,0.029,0.996
-0.288,0.045,0.934
-0.277,0.01,1.001
-0.292,0.073,0.941
-0.242,0.041,1.024
-0.288,0.073,0.926
-0.271,-0.022,0.986
-0.3,0.064,0.934
-0.27,0.058,0.955
-0.289,0.029,0.927
-0.29,0.005,0.971
-0.289,0.048,0.928
-0.245,0.038,1.047
-0.285,0.094,0.92
-0.25,0.013,1.018
-0.288,0.021,0.942
-0.29,0.053,0.92
-0.281,0.055,0.971
-0.271,0.04,0.961
-0.272,0.027,0.967
-0.304,0.043,0.911
-0.274,0.029,0.996
-0.298,0.094,0.932
-0.262,0.032,0.992
-0.31,0.019,0.953
-0.298,0.054,0.94
-0.271,0.05,0.981
-0.28,0.051,0.958
-0.274,0.027,0.974
-0.299,0.055,0.923
-0.284,0,0.993
-0.292,0.094,0.92
-0.257,0.048,1.002
-0.278,0.025,0.993
-0.272,0.032,0.959
-0.276,0.049,0.979
-0.268,0.083,0.969
-0.255,-0.006,1.018
-0.293,0.066,0.91
-0.274,0.003,0.966
-0.301,0.071,0.928
-0.277,0.066,0.978
-0.29,0.034,0.964
-0.294,0.008,0.955
-0.274,0.056,0.985
-0.278,0.079,0.962
-0.245,-0.008,1.012
-0.284,0.093,0.913
-0.273,0.007,0.965
-0.314,0.039,0.92
-0.278,0.067,0.95
-0.284,0.051,0.969
-0.275,0.023,0.972
-0.279,0.016,0.979
-0.301,0.091,0.923
-0.245,0.023,1.04
-0.269,0.057,0.961
-0.26,0.027,0.968
-0.304,0.041,0.933
-0.286,0.041,0.966
-0.273,0.065,0.967
-0.294,0.042,0.942
-0.295,-0.02,0.966
-0.311,0.089,0.892
-0.263,0.038,1.008
-0.293,0.055,0.943
-0.256,0.035,0.992
-0.282,0.043,0.963
-0.276,0.018,0.96
-0.276,0.062,0.962
-0.282,0.07,0.936
-0.282,-0.012,0.963
-0.329,0.05,0.876
-0.288,0.053,0.976
-0.294,0.067,0.931
-0.263,0.026,1.01
-0.293,0.058,0.956
-0.277,0.021,0.952
-0.273,0.048,0.999
-0.265,0.092,0.964
-0.292,-0.007,0.949
-0.318,0.035,0.913
-0.294,0.052,0.95
-0.296,0.057,0.937
-0.267,0.018,0.98
-0.3,0.064,0.938
-0.292,0.036,0.945
-0.259,0.008,1.016
-0.265,0.091,0.953
-0.26,0.026,0.986
-0.29,0.041,0.947
-0.284,0.005,0.946
-0.311,0.085,0.911
-0.288,0.037,0.958
-0.292,0.024,0.956
-0.288,0.052,0.934
-0.288,0.003,0.975
-0.295,0.084,0.938
-0.235,0.042,1.042
-0.282,0.054,0.934
-0.28,-0.008,0.953
-0.32,0.096,0.913
-0.276,0.031,0.962
-0.289,0.021,0.955
-0.295,0.076,0.908
-0.295,0,0.965
-0.31,0.053,0.933
-0.255,0.053,1.028
-0.285,0.076,0.935
-0.253,-0.008,1.016
-0.29,0.042,0.936
-0.283,0.072,0.979
-0.271,0.039,0.963
-0.276,0.011,0.95
-0.289,0.037,0.916
-0.275,0.035,0.979
-0.276,0.098,0.937
-0.283,0.012,0.95
-0.332,0.031,0.932
-0.294,0.063,0.933
-0.26,0.02,0.995
-0.274,0.049,0.941
-0.285,0.041,0.949
-0.327,0.039,0.898
-0.313,0.028,0.946
-0.32,0.083,0.902
-0.279,0.028,0.964
-0.285,0.012,0.968
-0.283,0.055,0.947
-0.275,0.054,0.985
-0.272,0.066,0.968
-0.258,-0.001,0.989
-0.309,0.077,0.902
-0.305,0,0.952
-0.294,0.08,0.929
-0.273,0.057,0.964
-0.296,0.017,0.952
-0.3,0.021,0.93
-0.277,0.067,0.99
-0.269,0.051,0.955
-0.251,-0.001,1.001
-0.285,0.091,0.916
-0.278,0.014,0.982
-0.312,0.056,0.915
-0.29,0.072,0.941
-0.295,0.037,0.962
-0.282,0.018,0.954
-0.289,0.03,0.97
-0.301,0.097,0.915
-0.255,0.012,0.998
-0.278,0.06,0.968
-0.262,0.017,0.985
-0.305,0.042,0.935
-0.267,0.06,0.96
-0.269,0.056,0.959
-0.289,0.016,0.945
-0.294,0.012,0.956
-0.301,0.103,0.912
-0.262,0.008,1.021
-0.307,0.061,0.936
-0.261,0.041,0.975
-0.3,0.034,0.95
-0.285,0.028,0.966
-0.266,0.064,0.974
-0.279,0.055,0.949
-0.285,-0.018,0.963
-0.321,0.076,0.879
-0.286,0.061,0.976
-0.294,0.044,0.925
-0.272,0.021,1
-0.277,0.049,0.979
-0.27,0.019,0.968
-0.258,0.057,0.994
-0.276,0.083,0.941
-0.293,-0.015,0.934
-0.323,0.048,0.885
-0.276,0.066,0.975
-0.299,0.049,0.948
-0.281,0.035,0.957
-0.293,0.051,0.935
-0.302,0.03,0.931
-0.275,0.039,0.989
-0.277,0.098,0.949
-0.269,-0.006,0.99
-0.312,0.04,0.912
-0.288,0.037,0.941
-0.306,0.084,0.934
-0.279,0.018,0.961
-0.295,0.037,0.944
-0.304,0.056,0.915
-0.293,0.014,0.987
-0.289,0.097,0.923
-0.252,0.03,1.015
-0.302,0.039,0.933
-0.273,0.005,0.949
-0.293,0.105,0.935
-0.283,0.012,0.963
-0.287,0.032,0.936
-0.284,0.057,0.931
-0.305,0.01,0.961
-0.304,0.078,0.93
-0.258,0.056,1.009
-0.292,0.039,0.933
-0.263,0.004,1.006
-0.301,0.08,0.935
-0.268,0.056,0.976
-0.276,0.021,0.981
-0.285,0.055,0.959
-0.289,0.03,0.967
-0.31,0.047,0.915
-0.271,0.063,0.984
-0.286,0.058,0.942
-0.28,-0.006,0.967
-0.302,0.052,0.928
-0.264,0.08,0.978
-0.27,0.005,0.928
-0.297,0.074,0.953
-0.295,0.05,0.913
-0.303,0.039,0.962
-0.285,0.076,0.929
-0.271,0,0.976
-0.298,0.023,0.957
-0.283,0.086,0.936
-0.269,0.044,1.005
-0.283,0.042,0.939
-0.263,0.006,0.982
-0.306,0.074,0.924
-0.277,0.021,0.963
-0.29,0.088,0.928
-0.261,0.022,0.973
-0.328,0.022,0.92
-0.307,0.06,0.929
-0.277,0.052,0.982
-0.292,0.049,0.983
-0.256,0.018,1.005
-0.301,0.069,0.927
-0.28,-0.002,0.978
-0.294,0.084,0.918
-0.281,0.06,0.937
-0.31,0.017,0.946
-0.301,0.023,0.928
-0.278,0.072,0.97
-0.299,0.074,0.937
-0.264,-0.001,0.989
-0.299,0.07,0.92
-0.262,0.019,1.017
-0.289,0.054,0.954
-0.26,0.073,0.962
-0.266,0.016,0.983
-0.317,0.029,0.903
-0.305,0.041,0.948
-0.293,0.089,0.94
-0.265,0.013,1.021
-0.316,0.066,0.894
-0.279,0.018,0.982
-0.31,0.046,0.956
-0.267,0.064,0.976
-0.254,0.038,0.992
-0.289,0.04,0.933
-0.293,0.001,0.976
-0.293,0.098,0.905
-0.273,0.047,0.993
-0.315,0.039,0.92
-0.28,0.038,0.984
-0.299,0.045,0.967
-0.281,0.049,0.961
-0.272,0.072,0.984
-0.27,0.037,0.971
-0.293,-0.02,0.942
-0.312,0.101,0.88
-0.263,0.051,1.008
-0.31,0.045,0.937
-0.291,0.044,0.95
-0.314,0.036,0.938
-0.291,0.05,0.966
-0.269,0.058,0.995
-0.286,0.073,0.945
-0.266,-0.025,1.002
-0.307,0.052,0.914
-0.27,0.054,0.971
-0.297,0.067,0.933
-0.279,0.019,0.949
-0.286,0.037,0.942
-0.299,0.049,0.955
-0.289,0.042,0.969
-0.28,0.089,0.953
-0.245,-0.007,1.033
-0.306,0.048,0.937
-0.278,0.051,0.979
-0.281,0.064,0.976
-0.26,0.018,0.972
-0.308,0.051,0.913
-0.316,0.048,0.928
-0.292,0.021,0.959
-0.298,0.079,0.919
-0.261,0.035,1.014
-0.303,0.028,0.907
-0.294,0.022,0.965
-0.299,0.088,0.954
-0.258,0.05,0.983
-0.282,0.016,0.955
-0.296,0.06,0.933
-0.296,0.02,0.969
-0.304,0.077,0.924
-0.264,0.056,0.996
-0.28,0.036,0.966
-0.289,0.015,0.963
-0.309,0.081,0.924
-0.266,0.055,0.996
-0.249,0.017,1.022
-0.272,0.074,0.92
-0.278,0.005,0.964
-0.315,0.064,0.897
-0.276,0.052,0.983
-0.297,0.057,0.926
-0.278,0.005,0.973
-0.309,0.048,0.938
-0.27,0.089,1.005
-0.269,0.035,0.946
-0.288,0.016,1.006
-0.241,0.07,0.928
-0.27,0.035,0.965
-0.297,0.085,0.923
-0.267,0.007,0.983
-0.315,0.033,0.93
-0.308,0.074,0.925
-0.278,0.04,0.994
-0.274,0.053,0.979
-0.257,0.024,1.004
-0.295,0.058,0.92
-0.26,0.028,0.994
-0.295,0.082,0.922
-0.278,0.04,0.973
-0.295,0.009,0.954
-0.289,0.049,0.951
-0.26,0.069,1.001
-0.269,0.058,0.959
-0.25,0.014,1.008
-0.286,0.058,0.96
-0.259,0.028,1.008
-0.287,0.073,0.961
-0.26,0.075,0.976
-0.274,0.003,0.982
-0.31,0.04,0.915
-0.309,0.058,0.938
-0.303,0.077,0.936
-0.271,0.022,1.019
-0.3,0.063,0.895
-0.274,0.016,0.98
-0.303,0.065,0.972
-0.257,0.059,0.97
-0.263,0.022,0.991
-0.289,0.035,0.936
-0.297,0.01,0.938
-0.307,0.103,0.903
-0.263,0.032,1.011
-0.294,0.036,0.925
-0.257,0.035,1.014
-0.29,0.055,1.005
-0.262,0.053,0.982
-0.254,0.076,1.001
-0.254,0.025,0.981
-0.277,-0.009,0.956
-0.3,0.112,0.906
-0.262,0.038,0.996
-0.293,0.06,0.953
-0.274,0.035,0.972
-0.303,0.021,0.949
-0.272,0.055,0.977
-0.263,0.062,0.995
-0.277,0.055,0.968
-0.259,-0.02,1.005
-0.303,0.067,0.915
-0.263,0.064,0.992
-0.277,0.056,0.959
-0.278,0.021,0.955
-0.289,0.048,0.931
-0.305,0.054,0.955
-0.27,0.05,1.012
-0.27,0.086,0.95
-0.227,0.003,1.08
-0.306,0.05,0.925
-0.26,0.051,0.967
-0.282,0.074,0.976
-0.261,0.021,0.977
-0.28,0.035,0.937
-0.304,0.043,0.934
-0.29,0.034,0.99
-0.287,0.088,0.919
-0.259,0.03,1.031
-0.292,0.023,0.922
-0.265,0.043,0.999
-0.289,0.084,0.966
-0.252,0.035,0.985
-0.278,0.024,0.982
-0.27,0.054,0.947
-0.288,0.031,0.982
-0.298,0.083,0.925
-0.248,0.044,1.006
-0.284,0.026,0.961
-0.278,0.03,0.967
-0.307,0.084,0.95
-0.254,0.049,1.005
-0.259,0.039,1.015
-0.288,0.063,0.945
-0.279,-0.011,0.964
-0.309,0.091,0.907
-0.28,0.045,0.966
-0.299,0.048,0.922
-0.278,0.006,0.983
-0.304,0.057,0.966
-0.258,0.077,1
-0.252,0.034,1.022
-0.281,0.052,0.962
-0.247,0.01,1.014
-0.3,0.063,0.927
-0.264,0.048,0.97
-0.293,0.084,0.921
-0.275,-0.003,0.991
-0.317,0.039,0.942
-0.279,0.07,0.961
-0.25,0.038,0.967
-0.264,0,1.016
-0.248,0.056,0.929
-0.265,0.051,1.014
-0.295,0.082,0.915
-0.276,0.03,0.978
-0.293,0.009,0.945
-0.292,0.056,0.943
-0.258,0.074,1.022
-0.272,0.05,0.954
-0.263,0.009,0.985
-0.292,0.066,0.932
-0.264,0.025,1.013
-0.289,0.087,0.944
-0.263,0.068,0.975
-0.287,-0.005,0.973
-0.307,0.052,0.931
-0.272,0.055,0.982
-0.291,0.07,0.938
-0.247,0.028,1.046
-0.296,0.06,0.91
-0.266,0.005,1.01
-0.28,0.076,0.991
-0.247,0.06,0.986
-0.248,0.025,1.017
-0.274,0.032,0.953
-0.284,0.025,0.963
-0.301,0.103,0.905
-0.254,0.028,1.024
-0.302,0.049,0.925
-0.25,0.025,0.99
-0.287,0.057,1.007
-0.262,0.049,0.961
-0.256,0.07,0.999
-0.266,0.022,0.975
-0.288,0.003,0.971
-0.301,0.103,0.902
-0.269,0.031,1.012
-0.297,0.059,0.936
-0.269,0.037,0.973
-0.31,0.029,0.955
-0.284,0.05,0.961
-0.259,0.053,1.006
-0.267,0.057,0.959
-0.258,-0.021,0.998
-0.299,0.061,0.924
-0.254,0.062,1.002
-0.269,0.06,0.957
-0.275,0.018,0.95
-0.289,0.052,0.963
-0.286,0.047,0.977
-0.269,0.042,1.011
-0.279,0.098,0.952
-0.242,-0.021,1.06
-0.297,0.049,0.914
-0.268,0.054,0.981
-0.273,0.066,0.977
-0.259,0.017,0.985
-0.294,0.044,0.911
-0.308,0.042,0.923
-0.282,0.031,0.992
-0.29,0.09,0.93
-0.242,0.011,1.044
-0.276,0.043,0.916
-0.269,0.014,0.981
-0.296,0.1,0.951
-0.257,0.038,0.986
-0.28,0.025,0.974
-0.282,0.053,0.935
-0.288,0.02,0.967
-0.317,0.075,0.912
-0.245,0.046,1.013
-0.285,0.042,0.97
-0.263,0,0.995
-0.305,0.08,0.92
-0.269,0.053,0.976
-0.266,0.018,0.991
-0.284,0.058,0.934
-0.268,-0.004,0.977
-0.301,0.064,0.903
-0.285,0.052,0.978
-0.302,0.059,0.919
-0.26,-0.001,1.008
-0.291,0.04,0.965
-0.269,0.081,0.967
-0.258,0.031,1.017
-0.28,0.037,0.935
-0.269,0.013,0.961
-0.311,0.056,0.91
-0.279,0.038,0.963
-0.289,0.09,0.912
-0.258,0.013,1.001
-0.311,0.024,0.966
-0.282,0.059,0.94
-0.255,0.056,1.008
-0.269,0.052,0.976
-0.266,0.015,0.961
-0.299,0.055,0.914
-0.283,0.022,0.996
-0.296,0.08,0.927
-0.262,0.043,0.977
-0.286,0.006,0.965
-0.3,0.038,0.935
-0.261,0.07,0.955
-0.279,-0.025,0.99
-0.268,0.089,0.928
-0.263,0.013,0.979
-0.3,0.067,0.943
-0.275,0.075,0.94
-0.27,0.005,0.978
-0.295,0.02,0.93
-0.286,0.055,0.96
-0.284,0.084,0.953
-0.235,0.002,1.069
-0.286,0.074,0.925
-0.268,0.007,0.988
-0.297,0.062,0.959
-0.266,0.048,0.975
-0.254,0.041,0.978
-0.29,0.033,0.921
-0.295,0.004,0.943
-0.314,0.104,0.913
-0.261,0.029,1.005
-0.315,0.046,0.916
-0.256,0.028,1.001
-0.298,0.052,0.963
-0.287,0.048,0.937
-0.275,0.067,0.963
-0.273,0.028,0.956
-0.302,-0.004,0.918
-0.317,0.087,0.888
-0.256,0.035,1.007
-0.296,0.057,0.949
-0.273,0.034,0.965
-0.308,0.03,0.931
-0.28,0.039,0.952
-0.265,0.045,0.982
-0.278,0.078,0.952
-0.277,-0.017,0.973
-0.313,0.044,0.901
-0.274,0.056,0.955
-0.29,0.06,0.934
-0.283,0.021,0.968
-0.297,0.047,0.956
-0.286,0.042,0.974
-0.272,0.023,1.011
-0.266,0.102,0.958
-0.249,-0.015,1.019
-0.308,0.044,0.919
-0.289,0.04,0.95
-0.296,0.079,0.941
-0.285,0.017,0.952
-0.314,0.042,0.913
-0.308,0.036,0.92
-0.296,0.026,0.976
-0.292,0.087,0.936
-0.25,0.02,1.031
-0.295,0.04,0.926
-0.275,0.003,0.985
-0.308,0.09,0.918
-0.28,0.054,0.962
-0.292,0.014,0.947
-0.293,0.064,0.932
-0.293,0.017,0.976
-0.307,0.057,0.897
-0.262,0.058,0.993
-0.277,0.045,0.969
-0.267,-0.006,0.98
-0.301,0.077,0.927
-0.265,0.069,0.972
-0.283,0.008,0.966
-0.292,0.055,0.921
-0.294,0.019,0.949
-0.319,0.053,0.894
-0.279,0.044,0.98
-0.288,0.072,0.933
-0.261,0.002,1.008
-0.304,0.031,0.944
-0.272,0.089,0.955
-0.265,0.038,1.002
-0.271,0.034,0.956
-0.265,0.016,0.961
-0.315,0.057,0.89
-0.295,0.03,0.955
-0.296,0.087,0.905
-0.276,0.022,0.987
-0.322,0.021,0.95
-0.279,0.053,0.945
-0.261,0.057,1.015
-0.268,0.04,0.975
-0.273,0.015,0.948
-0.308,0.067,0.916
-0.292,0.008,0.979
-0.296,0.077,0.91
-0.27,0.059,0.974
-0.298,0.004,0.961
-0.278,0.012,0.958
-0.269,0.074,1.002
-0.271,0.077,0.958
-0.265,-0.005,0.974
-0.285,0.068,0.937
-0.288,0.013,0.977
-0.316,0.059,0.925
-0.279,0.075,0.943
-0.293,0.028,0.956
-0.311,0.016,0.92
-0.292,0.045,0.949
-0.287,0.092,1.018
-0.256,0.092,0.916
-0.299,0.005,0.974
-0.296,0.043,0.922
-0.28,0.06,0.964
-0.28,0.046,0.942
-0.31,0.026,0.936
-0.297,0.004,0.956
-0.302,0.098,0.917
-0.267,0.048,1.015
-0.308,0.048,0.918
-0.261,0.027,1.021
-0.286,0.05,0.974
-0.285,0.031,0.943
-0.284,0.08,0.981
-0.267,0.044,0.97
-0.294,0,0.952
-0.324,0.066,0.899
-0.261,0.052,0.998
-0.29,0.047,0.964
-0.27,0.031,0.965
-0.294,0.042,0.951
-0.295,0.04,0.958
-0.276,0.036,0.968
-0.269,0.082,0.943
-0.267,-0.004,0.975
-0.332,0.037,0.889
-0.279,0.059,0.98
-0.297,0.068,0.927
-0.274,0.026,0.978
-0.298,0.051,0.955
-0.284,0.039,0.962
-0.276,0.023,0.996
-0.265,0.1,0.953
-0.237,-0.005,1.006
-0.321,0.044,0.882
-0.308,0.045,0.933
-0.293,0.076,0.916
-0.288,0.018,0.965
-0.326,0.047,0.892
-0.304,0.048,0.923
-0.298,0.018,0.982
-0.296,0.076,0.948
-0.252,0.04,1.011
-0.289,0.052,0.94
-0.282,-0.014,0.959
-0.317,0.099,0.902
-0.288,0.067,0.977
-0.297,0.012,0.95
-0.277,0.042,0.952
-0.279,0.035,0.974
-0.315,0.062,0.923
-0.273,0.062,0.989
-0.275,0.055,0.971
-0.268,-0.009,1.013
-0.305,0.069,0.915
-0.267,0.075,0.978
-0.283,0.013,0.965
-0.31,0.058,0.904
-0.298,0.029,0.959
-0.324,0.043,0.884
-0.285,0.051,0.992
-0.296,0.077,0.912
-0.269,0.005,0.996
-0.287,0.033,0.971
-0.252,0.079,0.996
-0.255,0.036,1.003
-0.269,0.04,0.96
-0.282,0.031,0.964
-0.327,0.066,0.895
-0.304,0.024,0.97
-0.3,0.084,0.915
-0.269,0.035,1.017
-0.303,0.024,0.947
-0.297,0.055,0.939
-0.261,0.055,1.001
-0.271,0.052,0.974
-0.28,0.016,0.962
-0.299,0.064,0.926
-0.278,0.009,1.001
-0.29,0.093,0.923
-0.274,0.051,0.994
-0.299,0.013,0.959
-0.297,0.031,0.955
-0.283,0.08,0.976
-0.284,0.072,0.969
-0.268,0.001,0.99
-0.291,0.065,0.94
-0.276,0.014,0.975
-0.306,0.071,0.931
-0.262,0.079,0.98
-0.268,0.014,0.975
-0.3,0.027,0.922
-0.306,0.066,0.965
-0.27,0.075,0.972
-0.259,0.008,1.036
-0.277,0.077,0.934
-0.275,0.009,0.979
-0.303,0.052,0.936
-0.282,0.059,0.939
-0.291,0.047,0.945
-0.3,0.021,0.947
-0.296,0.019,0.95
-0.312,0.109,1.015
-0.264,0.029,0.922
-0.297,0.037,0.996
-0.266,0.044,0.96
-0.296,0.052,0.952
-0.268,0.068,0.979
-0.275,0.026,0.975
-0.301,0.005,0.943
-0.326,0.086,0.902
-0.265,0.039,1.009
-0.281,0.054,0.954
-0.268,0.033,0.986
-0.294,0.029,0.945
-0.278,0.055,0.968
-0.253,0.055,1.011
-0.269,0.067,0.95
-0.263,-0.012,0.984
-0.328,0.053,0.894
-0.274,0.071,0.991
-0.301,0.067,0.937
-0.261,0.014,0.987
-0.28,0.049,0.978
-0.271,0.046,0.981
-0.268,0.047,0.996
-0.275,0.094,0.956
-0.238,-0.021,1.024
-0.31,0.055,0.904
-0.284,0.051,0.947
-0.3,0.072,0.935
-0.281,0.024,0.965
-0.321,0.054,0.913
-0.296,0.027,0.945
-0.276,0.041,1.005
-0.269,0.089,0.962
-0.245,0.016,1.035
-0.282,0.044,0.95
-0.274,0.021,0.983
-0.296,0.092,0.927
-0.277,0.046,0.978
-0.293,0.021,0.946
-0.289,0.045,0.939
-0.282,0.027,0.99
-0.3,0.077,0.929
-0.253,0.054,1.004
-0.274,0.033,0.974
-0.271,0.004,0.999
-0.293,0.088,0.922
-0.272,0.057,0.987
-0.276,0.011,0.977
-0.288,0.062,0.916
-0.285,0.012,0.979
-0.298,0.053,0.924
-0.253,0.056,1.022
-0.294,0.065,0.934
-0.257,0.003,1.026
-0.289,0.043,0.977
-0.263,0.091,0.99
-0.255,0.032,1.013
-0.288,0.044,0.948
-0.272,0.024,0.976
-0.317,0.061,0.903
-0.288,0.042,0.983
-0.296,0.093,0.927
-0.249,0.007,1.041
-0.302,0.031,0.962
-0.273,0.072,0.959
-0.248,0.055,1.029
-0.263,0.045,0.979
-0.268,0.021,0.956
-0.31,0.066,0.914
-0.277,0.017,1.003
-0.29,0.092,0.925
-0.266,0.036,1.004
-0.297,0.017,0.958
-0.284,0.037,0.959
-0.271,0.076,0.991
-0.279,0.073,0.962
-0.268,-0.001,1
-0.288,0.064,0.933
-0.284,0.021,0.986
-0.299,0.073,0.927
-0.264,0.075,0.991
-0.277,0.02,0.995
-0.281,0.025,0.958
-0.277,0.057,0.971
-0.282,0.086,0.966
-0.239,0.003,1.047
-0.288,0.076,0.904
-0.274,0.015,0.98
-0.299,0.042,0.938
-0.264,0.061,0.951
-0.283,0.054,0.953
-0.293,0.022,0.927
-0.286,0.021,0.969
-0.293,0.111,0.933
-0.248,0.028,1.058
-0.285,0.045,0.931
-0.251,0.026,1.007
-0.294,0.054,0.958
-0.276,0.044,0.962
-0.273,0.067,0.955
-0.267,0.036,0.966
-0.286,0.002,0.963
-0.309,0.071,1.023
-0.247,0.045,0.955
-0.296,0.034,0.987
-0.262,0.053,0.954
-0.258,0.027,0.979
-0.272,0.047,0.986
-0.257,0.078,0.981
-0.263,-0.01,0.991
-0.312,0.039,0.921
-0.277,0.068,0.976
-0.298,0.075,0.935
-0.255,0.012,1.012
-0.274,0.057,0.988
-0.279,0.049,0.975
-0.273,0.035,0.995
-0.265,0.094,0.942
-0.249,0.004,1.008
-0.303,0.024,0.906
-0.303,0.044,0.938
-0.3,0.088,0.917
-0.267,0.022,1.012
-0.29,0.045,0.95
-0.267,0.038,0.965
-0.268,0.015,1.01
-0.278,0.088,0.958
-0.239,0.031,1.014
-0.291,0.057,0.935
-0.275,-0.012,0.978
-0.303,0.089,0.901
-0.275,0.059,0.974
-0.3,0.022,0.946
-0.291,0.046,0.949
-0.275,0.027,1.012
-0.293,0.048,0.939
-0.248,0.056,1.016
-0.262,0.059,0.96
-0.273,-0.007,0.973
-0.315,0.07,0.909
-0.27,0.075,0.968
-0.29,0.021,0.951
-0.294,0.054,0.926
-0.267,0.02,0.981
-0.295,0.041,0.935
-0.239,0.032,1.04
-0.27,0.095,0.938
-0.254,0.007,1.008
-0.278,0.017,0.974
-0.275,0.069,0.959
-0.278,0.058,0.976
-0.283,0.035,0.941
-0.273,0.023,0.965
-0.318,0.073,0.889
-0.276,0.005,0.996
-0.296,0.1,0.933
-0.231,0.04,1.037
-0.293,0.022,0.97
-0.295,0.021,0.925
-0.283,0.082,0.962
-0.28,0.035,0.948
-0.297,0.017,0.954
-0.3,0.074,0.894
-0.3,-0.002,0.963
-0.301,0.072,0.947
-0.246,0.062,0.998
-0.288,0.041,0.967
-0.269,0.01,0.974
-0.284,0.046,0.959
-0.282,0.092,0.963
-0.263,0.004,0.989
-0.286,0.057,0.931
-0.277,0.027,0.978
-0.302,0.038,0.927
-0.265,0.066,0.98
-0.275,0.076,0.995
-0.26,0.009,0.985
-0.289,0,0.964
-0.28,0.112,0.941
-0.247,-0.001,1.025
-0.297,0.059,0.933
-0.27,0.039,0.968
-0.312,0.034,0.909
-0.289,0.039,0.968
-0.277,0.068,0.957
-0.279,0.044,0.963
-0.252,-0.006,1.04
-0.272,0.069,0.941
-0.243,0.05,1.04
-0.27,0.067,0.962
-0.257,0.001,1.003
-0.29,0.058,0.929
-0.298,0.021,0.932
-0.296,0.056,0.954
-0.285,0.08,0.951
-0.268,0.004,0.996
-0.307,0.025,0.917
-0.267,0.059,1.005
-0.277,0.066,0.972
-0.255,0.003,0.991
-0.283,0.085,0.94
-0.289,0.015,0.955
-0.303,0.022,0.931
-0.291,0.079,0.934
-0.283,0.03,0.976
-0.308,0.029,0.996
-0.287,0.028,0.914
-0.304,0.002,1.002
-0.259,0.036,0.974
-0.28,0.049,0.94
-0.301,0.011,0.951
-0.305,0.073,0.933
-0.279,0.055,0.941
-0.318,0.045,0.897
-0.293,-0.012,0.978
-0.314,0.086,0.902
-0.244,0.041,1.037
-0.285,0.043,0.969
-0.27,0.058,0.949
-0.281,0.014,0.979
-0.287,0.038,0.951
-0.275,0.051,0.947
-0.297,0.082,0.925
-0.279,-0.006,0.981
-0.319,0.053,0.911
-0.286,0.062,0.965
-0.293,0.062,0.959
-0.269,0.035,0.998
-0.27,0.021,0.982
-0.288,0.043,0.915
-0.278,0.036,0.98
-0.293,0.096,0.912
-0.285,0.017,0.956
-0.314,0.014,0.921
-0.29,0.062,0.963
-0.282,0.049,0.958
-0.271,0.043,0.963
-0.264,0.039,0.987
-0.285,0.051,0.928
-0.258,-0.005,1.015
-0.288,0.109,0.93
-0.257,0.026,0.992
-0.288,0.027,0.933
-0.303,0.03,0.931
-0.313,0.06,0.918
-0.287,0.07,0.951
-0.27,0.011,1.021
-0.301,0.069,0.914
-0.284,-0.001,0.989
-0.3,0.081,0.942
-0.255,0.044,0.99
-0.287,0.058,0.95
-0.294,-0.007,0.955
-0.298,0.043,0.937
-0.296,0.073,0.937
-0.285,0.031,0.981
-0.302,0.059,0.919
-0.274,0.02,0.971
-0.298,0.05,0.933
-0.26,0.043,0.978
-0.289,0.083,0.928
-0.266,0.023,0.985
-0.295,0.002,0.938
-0.298,0.07,0.923
-0.277,0.046,0.983
-0.286,0.052,0.948
-0.279,0.027,0.974
-0.318,0.047,0.888
-0.269,0.027,1.009
-0.267,0.082,0.981
-0.261,0.05,0.966
-0.286,-0.003,0.966
-0.321,0.061,0.895
-0.286,0.048,0.952
-0.303,0.06,0.922
-0.289,0.031,0.963
-0.318,0.047,0.885
-0.28,0.024,0.992
-0.303,0.064,0.96
-0.277,0.065,0.955
-0.252,0.016,1.018
-0.291,0.037,0.946
-0.274,0.02,0.948
-0.3,0.104,0.942
-0.265,0.011,1.004
-0.308,0.062,0.895
-0.29,0.028,0.957
-0.312,0.035,0.956
-0.278,0.078,0.977
-0.261,0.047,1.002
-0.28,0.018,0.944
-0.283,0.018,0.978
-0.29,0.098,0.934
-0.276,0.024,0.976
-0.305,0.054,0.927
-0.266,0.041,0.962
-0.307,0.035,0.955
-0.293,0.066,0.954
-0.275,0.052,0.989
-0.254,0.058,0.988
-0.249,-0.007,1.015
-0.307,0.07,0.901
-0.27,0.058,0.99
-0.275,0.043,0.966
-0.282,0.032,0.937
-0.308,0.033,0.922
-0.31,0.048,0.948
-0.272,0.051,0.996
-0.286,0.078,1.008
-0.25,-0.005,0.947
-0.302,0.056,1.01
-0.264,0.064,0.977
-0.266,0.036,0.985
-0.279,0.038,0.949
-0.314,0.041,0.91
-0.302,0.039,0.964
-0.291,0.083,0.921
-0.256,0.038,1.03
-0.304,0.044,0.924
-0.283,0.028,0.982
-0.289,0.088,0.97
-0.252,0.039,1.004
-0.29,0.02,0.938
-0.297,0.052,0.93
-0.278,0.015,0.985
-0.299,0.084,0.932
-0.268,0.052,0.992
-0.296,0.023,0.923
-0.273,0.017,0.99
-0.279,0.091,0.986
-0.256,0.047,0.998
-0.265,0.023,0.99
-0.279,0.073,0.95
-0.269,-0.005,0.998
-0.292,0.078,0.933
-0.259,0.051,0.979
-0.299,0.059,0.931
-0.271,0.009,1.004
-0.301,0.035,0.923
-0.268,0.092,0.977
-0.251,0.04,1.038
-0.285,0.054,0.944
-0.267,0.013,0.987
-0.297,0.065,0.938
-0.269,0.031,0.972
-0.3,0.084,0.92
-0.276,0.007,0.968
-0.311,0.021,0.935
-0.294,0.084,0.946
-0.276,0.047,1.019
-0.284,0.043,0.947
-0.245,0.037,1.027
-0.27,0.048,0.973
-0.266,0.032,0.969
-0.291,0.094,0.954
-0.262,0.034,0.978
-0.291,0.015,0.958
-0.308,0.049,0.912
-0.279,0.064,0.977
-0.28,0.061,0.949
-0.279,0.031,0.988
-0.313,0.051,0.894
-0.262,0.02,1.014
-0.285,0.075,0.984
-0.257,0.062,1.001
-0.271,0.003,0.976
-0.296,0.046,0.92
-0.292,0.062,0.964
-0.298,0.075,0.926
-0.285,0.026,0.996
-0.307,0.067,0.918
-0.245,0.011,1.032
-0.295,0.067,0.974
-0.255,0.07,0.98
-0.236,0.037,1.053
-0.275,0.029,0.969
-0.274,0.015,0.965
-0.29,0.111,0.928
-0.271,0.025,1.006
-0.311,0.052,0.905
-0.271,0.014,0.977
-0.297,0.046,0.975
-0.267,0.066,0.988
-0.259,0.052,0.999
-0.269,0.019,0.947
-0.271,0.02,0.986
-0.293,0.094,0.94
-0.269,0.03,0.982
-0.296,0.063,0.926
-0.26,0.034,0.996
-0.283,0.036,0.979
-0.28,0.057,0.969
-0.261,0.051,0.988
-0.269,0.067,0.978
-0.262,-0.008,1.026
-0.302,0.063,0.919
-0.257,0.06,0.984
-0.276,0.048,0.964
-0.279,0.038,0.939
-0.298,0.028,0.941
-0.286,0.055,0.962
-0.27,0.06,1.013
-0.279,0.076,0.945
-0.243,-0.016,1.028
-0.303,0.066,0.94
-0.237,0.044,1.025
-0.275,0.064,0.967
-0.269,0.034,0.958
-0.279,0.037,0.952
-0.299,0.035,0.937
-0.29,0.046,0.985
-0.291,0.081,1.03
-0.236,0.023,0.959
-0.285,0.006,1.001
-0.258,0.1,0.974
-0.222,0.035,1.015
-0.291,0.018,0.955
-0.288,0.053,0.926
-0.282,0.017,0.988
-0.289,0.078,0.927
-0.265,0.051,1
-0.28,0.013,0.929
-0.267,0.017,0.991
-0.276,0.083,0.997
-0.236,0.041,1.009
-0.255,0.024,0.994
-0.271,0.065,0.965
-0.248,-0.004,1.015
-0.296,0.078,0.925
-0.267,0.057,0.972
-0.286,0.056,0.934
-0.271,0.004,0.992
-0.312,0.045,0.941
-0.267,0.081,0.981
-0.235,0.023,1.061
-0.257,0.057,0.954
-0.263,0.011,0.98
-0.3,0.072,0.945
-0.261,0.034,0.987
-0.294,0.072,0.919
-0.264,0.003,0.972
-0.305,0.038,0.924
-0.297,0.092,0.948
-0.278,0.038,1.011
-0.287,0.041,0.949
-0.243,0.031,1.007
-0.28,0.048,0.98
-0.25,0.029,0.992
-0.281,0.094,0.955
-0.254,0.035,0.996
-0.298,0.015,0.952
-0.313,0.06,0.93
-0.266,0.053,1.008
-0.268,0.056,0.963
-0.251,0.023,1.005
-0.299,0.055,0.913
-0.264,0.018,1.02
-0.274,0.081,0.992
-0.248,0.049,0.974
-0.271,0.004,0.975
-0.305,0.049,0.916
-0.286,0.057,0.963
-0.303,0.059,0.921
-0.272,0.027,0.996
-0.299,0.068,0.943
-0.243,-0.002,1.025
-0.273,0.069,0.964
-0.278,0.079,0.952
-0.257,0.021,1.007
-0.287,0.024,0.94
-0.274,0.025,0.974
-0.287,0.094,0.932
-0.263,0.02,0.99
-0.315,0.06,0.89
-0.292,0.02,0.973
-0.299,0.04,0.968
-0.263,0.078,0.98
-0.271,0.035,0.991
-0.295,0.019,0.939
-0.277,0.024,0.986
-0.281,0.088,0.943
-0.269,0.026,0.996
-0.295,0.057,0.942
-0.261,0.03,0.976
-0.29,0.026,0.959
-0.282,0.068,0.94
-0.271,0.044,0.992
-0.28,0.051,0.951
-0.257,-0.008,1.002
-0.292,0.076,0.911
-0.269,0.047,0.981
-0.279,0.038,0.961
-0.286,0.045,0.941
-0.315,0.021,0.944
-0.3,0.054,0.944
-0.276,0.066,1.003
-0.285,0.05,0.918
-0.268,-0.022,0.996
-0.317,0.087,0.905
-0.251,0.032,1.007
-0.277,0.047,0.977
-0.269,0.054,0.962
-0.286,0.022,0.954
-0.297,0.039,0.945
-0.276,0.053,0.973
-0.292,0.077,0.938
-0.238,0.007,1.032
-0.303,0.053,0.929
-0.261,0.047,0.998
-0.285,0.07,0.964
-0.265,0.037,0.995
-0.289,0.035,0.94
-0.306,0.036,0.92
-0.275,0.028,0.99
-0.283,0.096,0.923
-0.266,0.02,0.928
-0.31,0.013,0.975
-0.266,0.055,0.993
-0.27,0.033,0.996
-0.28,0.039,0.98
-0.28,0.047,0.94
-0.269,0.002,0.975
-0.291,0.096,0.909
-0.273,0.036,0.99
-0.302,0.024,0.923
-0.292,0.027,0.978
-0.293,0.072,0.965
-0.249,0.059,1.004
-0.251,0.016,1.048
-0.285,0.072,0.933
-0.267,-0.001,1.006
-0.294,0.086,0.949
-0.244,0.031,0.98
-0.285,0.039,0.931
-0.274,0.001,0.961
-0.307,0.071,0.914
-0.277,0.059,0.967
-0.272,0.018,1.003
-0.292,0.076,0.933
-0.255,0.005,1.015
-0.289,0.055,0.968
-0.239,0.047,0.976
-0.282,0.074,0.959
-0.279,0.008,0.964
-0.302,0.029,0.951
-0.282,0.078,0.927
-0.269,0.032,0.99
-0.286,0.048,0.953
-0.263,0.039,1.018
-0.316,0.039,0.911
-0.252,0.048,1.001
-0.26,0.09,0.99
-0.261,0.009,0.966
-0.294,-0.002,0.964
-0.295,0.09,0.92
-0.274,0.016,0.987
-0.295,0.052,0.933
-0.274,0.038,0.975
-0.318,0.047,0.913
-0.263,0.026,1.017
-0.269,0.075,0.974
-0.252,0.049,0.984
-0.26,-0.001,0.996
-0.289,0.056,0.943
-0.265,0.05,0.97
-0.299,0.076,0.935
-0.278,0.009,0.981
-0.318,0.076,0.879
-0.299,0.011,0.964
-0.295,0.055,0.955
-0.244,0.085,0.998
-0.253,-0.014,1.007
-0.298,0.039,0.903
-0.274,0.066,0.985
-0.274,0.05,0.952
-0.265,0.017,0.977
-0.284,0.078,0.924
-0.276,0.012,0.976
-0.294,0.043,0.967
-0.267,0.08,0.957
-0.256,0.013,1.014
-0.291,0.03,0.936
-0.27,0.03,0.995
-0.284,0.089,0.938
-0.26,0.012,0.972
-0.272,0.049,0.97
-0.283,0.047,0.936
-0.311,0.014,0.951
-0.3,0.085,0.927
-0.281,0.057,0.98
-0.316,0.019,0.897
-0.283,0.004,0.998
-0.288,0.107,0.944
-0.249,0.001,1.03
-0.26,0.044,0.989
-0.261,0.055,0.958
-0.289,0.005,0.958
-0.291,0.051,0.928
-0.277,0.063,0.971
-0.303,0.048,0.906
-0.281,-0.011,0.979
-0.319,0.093,0.919
-0.262,0.051,0.996
-0.288,0.033,0.936
-0.275,0.045,0.973
-0.283,0.022,0.954
-0.291,0.049,0.932
-0.266,0.05,0.976
-0.287,0.076,0.947
-0.284,-0.01,0.965
-0.32,0.052,0.91
-0.254,0.066,0.992
-0.271,0.036,1.012
-0.261,0.04,0.976
-0.265,0.03,0.977
-0.297,0.049,0.935
-0.26,0.018,1
-0.275,0.093,0.92
-0.274,0.011,0.968
-0.307,0.009,0.936
-0.284,0.068,0.965
-0.293,0.035,0.951
-0.284,0.021,1.034
-0.283,0.061,0.936
-0.268,0.002,0.993
-0.297,0.111,0.917
-0.264,0.005,0.99
-0.3,0.017,0.924
-0.3,0.047,0.923
-0.289,0.071,0.947
-0.287,0.036,0.956
-0.287,0.028,0.982
-0.301,0.06,0.909
-0.27,0.008,1.02
-0.282,0.074,0.946
-0.233,0.041,1.003
-0.289,0.044,0.952
-0.299,0.007,0.945
-0.299,0.061,0.936
-0.278,0.066,0.955
-0.264,0.003,1
-0.284,0.061,0.928
-0.285,0.034,0.994
-0.307,0.049,0.938
-0.245,0.065,0.983
-0.261,0.054,1.006
-0.274,-0.001,0.957
-0.293,0.045,0.938
-0.278,0.081,0.954
-0.26,-0.009,0.995
-0.302,0.071,0.902
-0.286,0.025,0.977
-0.318,0.045,0.893
-0.274,0.068,0.987
-0.279,0.06,0.98
-0.261,0.02,0.98
-0.289,0.008,0.981
-0.284,0.1,0.931
-0.259,0.025,0.998
-0.298,0.049,0.917
-0.286,0.01,0.943
-0.33,0.053,0.887
-0.295,0.043,0.95
-0.287,0.071,0.94
-0.266,0.031,0.984
-0.273,0,1.011
-0.298,0.084,0.926
-0.244,0.04,1.033
-0.277,0.049,0.97
-0.262,0.031,0.947
-0.304,0.04,0.929
-0.283,0.037,0.944
-0.289,0.065,0.958
-0.282,0.048,0.941
-0.272,-0.003,0.992
-0.307,0.052,0.92
-0.253,0.068,1.03
-0.277,0.066,0.941
-0.272,0.012,0.973
-0.269,0.046,0.974
-0.279,0.036,0.954
-0.291,0.055,0.965
-0.279,0.077,0.927
-0.268,-0.008,0.998
-0.329,0.038,0.891
-0.286,0.055,0.978
-0.293,0.069,0.968
-0.231,0.015,1.049
-0.274,0.068,0.956
-0.278,0.023,0.957
-0.276,0.041,0.976
-0.291,0.083,0.936
-0.267,0.012,0.981
-0.301,0.04,0.924
-0.288,0.016,0.944
-0.304,0.105,0.932
-0.263,0.034,1.005
-0.295,0.022,0.943
-0.269,0.046,0.971
-0.272,0.02,0.993
-0.277,0.085,0.927
-0.264,0.043,0.981
-0.282,0.019,0.948
-0.286,0.016,0.951
-0.309,0.089,0.91
-0.263,0.035,0.994
-0.284,0.046,0.984
-0.288,0.048,0.908
-0.296,0.003,0.974
-0.288,0.077,0.929
-0.245,0.034,1.01
-0.277,0.05,0.944
-0.277,-0.005,0.958
-0.302,0.051,0.916
-0.289,0.075,0.946
-0.286,0.035,0.965
-0.301,0.032,0.924
-0.271,0.018,0.994
-0.302,0.059,0.922
-0.254,0.05,1.02
-0.287,0.086,0.932
-0.235,-0.031,1.03
-0.281,0.059,0.95
-0.278,0.075,0.983
-0.279,0.059,0.938
-0.286,0.028,0.947
-0.324,0.033,0.902
-0.278,0.05,0.983
-0.286,0.09,0.95
-0.257,-0.003,0.989
-0.289,0.029,0.961
-0.277,0.053,0.96
-0.268,0.054,0.986
-0.278,0.056,0.951
-0.277,0.007,0.953
-0.296,0.052,0.921
-0.295,0.032,0.963
-0.309,0.087,0.911
-0.265,0.045,1.005
-0.26,-0.004,1.018
-0.272,0.044,0.966
-0.271,0.053,0.959
-0.285,0.062,0.968
-0.254,0.007,1.002
-0.294,0.066,0.905
-0.294,0.003,0.948
-0.312,0.072,0.906
-0.284,0.065,0.962
-0.304,0.025,0.95
-0.297,0.024,0.933
-0.286,0.033,0.988
-0.262,0.086,0.985
-0.243,0.011,1.021
-0.297,0.066,0.914
-0.269,-0.002,0.955
-0.303,0.055,0.915
-0.291,0.07,0.938
-0.301,0.045,0.927
-0.302,0.017,0.932
-0.301,0.034,0.968
-0.3,0.082,0.912
-0.241,0.015,1.039
-0.287,0.065,0.957
-0.269,0.017,0.955
-0.312,0.046,0.928
-0.281,0.05,0.965
-0.281,0.059,0.942
-0.282,0.041,0.944
-0.288,-0.007,0.955
-0.306,0.068,0.903
-0.263,0.068,1.018
-0.282,0.053,0.944
-0.268,0.003,0.968
-0.283,0.05,0.959
-0.298,0.043,0.94
-0.303,0.062,0.935
-0.294,0.069,0.918
-0.293,-0.022,0.953
-0.33,0.055,0.879
-0.289,0.052,0.964
-0.303,0.067,0.919
-0.257,0.031,1.02
-0.288,0.055,0.946
-0.285,0.013,0.955
-0.291,0.053,0.966
-0.286,0.076,0.943
-0.276,0.005,0.944
-0.301,0.035,0.911
-0.307,0.029,0.944
-0.314,0.098,0.914
-0.272,0.026,1.004
-0.293,0.024,0.945
-0.268,0.048,0.983
-0.269,0.017,0.979
-0.278,0.092,0.942
-0.261,0.044,0.997
-0.289,0.018,0.937
-0.293,0.027,0.941
-0.305,0.079,0.907
-0.273,0.047,0.995
-0.287,0.038,0.966
-0.288,0.043,0.914
-0.287,0.006,0.984
-0.282,0.074,0.959
-0.246,0.038,1.008
-0.284,0.06,0.934
-0.286,0,0.937
-0.317,0.043,0.911
-0.29,0.081,0.967
-0.289,0.031,0.934
-0.304,0.041,0.908
-0.293,0.029,0.98
-0.313,0.054,0.925
-0.268,0.048,0.999
-0.293,0.092,0.938
-0.251,-0.028,1.016
-0.296,0.047,0.933
-0.272,0.074,0.933
-0.284,0.051,0.972
-0.286,0.041,0.94
-0.287,0.038,0.932
-0.33,0.036,0.897
-0.283,0.034,0.98
-0.297,0.096,0.949
-0.26,0.012,0.981
-0.29,0.028,0.947
-0.293,0.044,0.971
-0.283,0.06,0.963
-0.277,0.023,0.959
-0.305,0.054,0.925
-0.264,0.028,0.992
-0.298,0.081,0.92
-0.255,0.054,0.982
-0.279,0.023,0.999
-0.28,0.029,0.952
-0.279,0.059,0.966
-0.271,0.068,0.968
-0.268,0.01,0.989
-0.297,0.063,0.908
-0.287,0.012,0.979
-0.316,0.071,0.905
-0.263,0.064,0.985
-0.294,0.041,0.966
-0.274,0.008,0.951
-0.28,0.023,0.986
-0.278,0.104,0.961
-0.258,0.007,0.995
-0.293,0.065,0.92
-0.276,0.019,0.96
-0.324,0.055,0.907
-0.278,0.057,0.976
-0.277,0.055,0.945
-0.259,0.025,0.99
-0.278,0.022,0.984
-0.304,0.087,0.91
-0.248,0.034,1.036
-0.292,0.055,0.936
-0.288,0.03,0.934
-0.325,0.038,0.923
-0.291,0.051,0.972
-0.29,0.069,0.951
-0.278,0.039,0.964
-0.273,0.001,0.97
-0.298,0.062,0.926
-0.262,0.065,1.011
-0.289,0.067,0.942
-0.279,0.012,0.976
-0.283,0.045,0.956
-0.285,0.034,0.966
-0.284,0.061,0.967
-0.271,0.074,0.952
-0.266,0.003,0.996
-0.323,0.037,0.89
-0.28,0.054,0.978
-0.289,0.084,0.943
-0.254,0.014,1.008
-0.283,0.062,0.948
-0.286,0.027,0.956
-0.289,0.037,0.97
-0.29,0.082,0.925
-0.28,0.023,0.966
-0.318,0.032,0.914
-0.295,0.018,0.975
-0.309,0.107,0.93
-0.254,0.023,1.024
-0.279,0.034,0.965
-0.263,0.052,0.986
-0.285,0.019,0.976
-0.271,0.079,0.946
-0.252,0.055,0.984
-0.293,0.026,0.943
-0.281,0.015,0.986
-0.312,0.083,0.902
-0.25,0.047,1.021
-0.273,0.044,0.981
-0.274,0.044,0.942
-0.293,0.01,0.977
-0.283,0.068,0.954
-0.251,0.049,1.013
-0.279,0.068,0.952
-0.28,0,0.967
-0.323,0.048,0.896
-0.295,0.086,0.961
-0.295,0.043,0.988
-0.283,0.034,0.939
-0.262,0.041,1.016
-0.293,0.046,0.955
-0.248,0.04,1.025
-0.277,0.105,0.958
-0.246,-0.011,1.016
-0.314,0.037,0.906
-0.289,0.07,0.939
-0.286,0.055,0.957
-0.277,0.05,0.976
-0.284,0.041,0.983
-0.293,0.034,0.94
-0.271,0.034,1.024
-0.279,0.09,0.946
-0.262,0.039,0.998
-0.304,0.025,0.949
-0.281,0.025,0.952
-0.288,0.078,0.961
-0.278,0.061,0.973
-0.267,0.008,0.982
-0.288,0.057,0.934
-0.269,0.029,1.017
-0.288,0.066,0.929
-0.248,0.057,0.99
-0.27,0.042,1.009
-0.286,0.014,0.959
-0.296,0.058,0.972
-0.275,0.015,1.01
-0.271,0.067,0.916
-0.265,0.008,0.992
-0.307,0.065,0.932
-0.253,0.062,1.034
-0.278,0.064,0.982
-0.261,0.024,0.973
-0.275,0.015,0.996
-0.279,0.09,0.943
-0.262,0.027,1.004
-0.287,0.048,0.92
-0.27,0.035,0.976
-0.332,0.067,0.911
-0.28,0.035,1.003
-0.268,0.076,0.979
-0.246,0.037,1.022
-0.27,0.002,1.009
-0.283,0.075,0.921
-0.244,0.066,1.031
-0.281,0.036,0.936
-0.287,0.035,0.951
-0.295,0.052,0.929
-0.284,0.027,0.964
-0.299,0.079,0.961
-0.267,0.053,0.988
-0.265,-0.003,0.994
-0.298,0.049,0.938
-0.255,0.058,1.013
-0.261,0.075,0.963
-0.255,0.008,0.97
-0.301,0.056,0.911
-0.291,0.032,0.953
-0.306,0.041,0.951
-0.285,0.086,0.943
-0.258,0.013,1.036
-0.303,0.017,0.922
-0.28,0.051,0.981
-0.27,0.102,0.979
-0.246,-0.006,1.023
-0.272,0.059,0.967
-0.266,0.038,0.978
-0.277,0.02,0.964
-0.296,0.091,0.934
-0.279,0.039,0.976
-0.297,0.026,0.921
-0.265,0.012,1.005
-0.303,0.109,0.946
-0.233,0.021,1.034
-0.269,0.04,0.97
-0.257,0.047,0.973
-0.282,0.03,0.983
-0.282,0.052,0.937
-0.255,0.061,0.994
-0.274,0.058,0.963
-0.269,-0.002,1.01
-0.315,0.068,0.894
-0.258,0.071,1.009
-0.271,0.03,1.005
-0.269,0.045,0.951
-0.27,0.026,0.988
-0.29,0.039,0.939
-0.274,0.041,0.99
-0.284,0.091,0.949
-0.269,-0.005,1
-0.312,0.033,0.908
-0.271,0.081,0.989
-0.27,0.054,0.978
-0.268,0.033,0.968
-0.256,0.034,1.026
-0.285,0.059,0.955
-0.275,0.011,0.967
-0.284,0.104,0.946
-0.249,0.018,0.999
-0.314,0.027,0.909
-0.291,0.044,0.938
-0.287,0.078,0.945
-0.264,0.043,0.99
-0.275,0.029,0.989
-0.289,0.059,0.918
-0.272,0.005,1.016
-0.288,0.077,0.935
-0.263,0.047,0.951
-0.291,0.036,0.941
-0.279,0.001,0.951
-0.291,0.073,0.955
-0.286,0.067,0.963
-0.273,0.011,0.994
-0.287,0.065,0.951
-0.257,0.009,1.017
-0.289,0.06,0.938
-0.257,0.055,0.974
-0.279,0.057,0.976
-0.276,-0.002,0.949
-0.31,0.038,0.914
-0.304,0.091,0.926
-0.289,0.01,0.979
-0.307,0.055,0.911
-0.26,0.024,1.016
-0.301,0.049,0.946
-0.261,0.033,0.996
-0.266,0.085,0.974
-0.26,0.02,0.979
-0.286,-0.005,0.935
-0.305,0.081,0.977
-0.277,0.043,0.953
-0.278,0.015,1.013
-0.283,0.075,0.929
-0.268,0.014,0.999
-0.268,0.08,0.974
-0.248,0.06,0.998
-0.271,-0.013,0.958
-0.309,0.057,0.907
-0.275,0.066,0.985
-0.291,0.033,0.937
-0.287,0.028,0.968
-0.294,0.061,0.911
-0.289,0.009,0.972
-0.277,0.055,0.996
-0.249,0.068,0.979
-0.265,0.019,0.984
-0.302,0.03,0.938
-0.287,0.032,0.956
-0.294,0.09,0.94
-0.265,0.014,0.986
-0.289,0.043,0.915
-0.298,0.04,0.944
-0.302,0.023,0.935
-0.285,0.083,0.929
-0.249,0.043,1.048
-0.271,0.017,0.944
-0.28,0.006,0.969
-0.285,0.115,0.959
-0.261,0,0.97
-0.299,0.055,0.937
-0.279,0.045,0.962
-0.3,0.003,0.94
-0.291,0.067,0.923
-0.269,0.067,0.993
-0.292,0.044,0.939
-0.255,-0.018,1.019
-0.28,0.081,0.95
-0.26,0.051,0.982
-0.286,0.055,0.963
-0.269,0.029,0.98
-0.299,0.04,0.914
-0.311,0.035,0.93
-0.285,0.048,0.983
-0.282,0.088,0.96
-0.262,0.001,1.016
-0.311,0.042,0.899
-0.269,0.067,0.983
-0.272,0.035,0.962
-0.287,0.042,0.936
-0.289,0.051,0.945
-0.301,0.029,0.931
-0.283,0.018,0.967
-0.282,0.095,0.937
-0.252,0.015,1.008
-0.298,0.042,0.942
-0.282,0.045,0.985
-0.294,0.076,0.961
-0.26,0.037,0.982
-0.264,0.015,0.983
-0.301,0.07,0.912
-0.302,0,0.948
-0.303,0.076,0.932
-0.267,0.055,0.984
-0.319,0.034,0.911
-0.3,0,0.947
-0.299,0.083,0.928
-0.259,0.046,0.992
-0.265,0.007,0.997
-0.288,0.088,0.921
-0.28,0.003,0.989
-0.3,0.047,0.922
-0.286,0.067,0.954
-0.302,0.052,0.918
-0.273,0,0.967
-0.316,0.047,0.939
-0.289,0.073,0.95
-0.264,0.026,0.986
-0.285,0.054,0.955
-0.265,0.022,0.976
-0.305,0.052,0.909
-0.272,0.049,1.009
-0.276,0.071,0.948
-0.288,0.021,0.93
-0.319,0.015,0.928
-0.309,0.088,0.923
-0.278,0.03,0.975
-0.299,0.046,0.941
-0.259,0.032,0.999
-0.289,0.059,0.959
-0.267,0.008,0.994
-0.275,0.093,0.947
-0.269,0.046,0.958
-0.293,0.001,0.95
-0.31,0.048,0.907
-0.303,0.057,0.953
-0.29,0.059,0.932
-0.259,0.016,1.01
-0.295,0.079,0.927
-0.275,-0.003,0.988
-0.284,0.066,0.983
-0.249,0.068,0.987
-0.283,0.013,0.936
-0.302,0.03,0.938
-0.292,0.047,0.935
-0.295,0.026,1.012
-0.305,0.073,0.915
-0.284,0.023,0.981
-0.284,0.035,0.959
-0.262,0.077,0.97
-0.276,0.036,0.969
-0.293,0.038,0.945
-0.298,0.01,0.936
-0.321,0.086,0.896
-0.281,0.045,0.984
-0.304,0.044,0.927
-0.289,0.054,0.947
-0.313,0.025,0.947
-0.272,0.057,0.975
-0.237,0.063,1.02
-0.278,0.062,0.946
-0.279,-0.021,0.97
-0.306,0.084,0.911
-0.263,0.039,0.968
-0.298,0.043,0.933
-0.278,0.048,0.965
-0.306,0.035,0.941
-0.279,0.037,0.99
-0.272,0.061,1.009
-0.277,0.078,0.96
-0.239,0.004,1.037
-0.289,0.042,0.922
-0.288,0.045,0.949
-0.284,0.076,0.937
-0.274,0.027,0.981
-0.291,0.051,0.949
-0.298,0.029,0.93
-0.285,0.03,0.988
-0.271,0.095,0.966
-0.261,0.027,1.006
-0.297,0.032,0.941
-0.276,0.031,0.961
-0.296,0.07,0.936
-0.286,0.036,0.955
-0.292,0.037,0.934
-0.301,0.051,0.913
-0.296,0.016,0.971
-0.296,0.074,0.926
-0.247,0.048,1.036
-0.268,0.068,0.994
-0.262,0.004,1.013
-0.307,0.067,0.925
-0.282,0.073,0.964
-0.269,0.017,0.987
-0.299,0.057,0.911
-0.287,0.005,0.965
-0.308,0.051,0.914
-0.263,0.067,1.015
-0.299,0.077,0.916
-0.253,-0.012,1.013
-0.289,0.04,0.962
-0.263,0.073,0.967
-0.277,0.035,0.994
-0.275,0.059,0.955
-0.278,0.023,0.955
-0.317,0.05,0.913
-0.276,0.043,0.992
-0.311,0.084,0.896
-0.258,0.035,1.014
-0.29,0.023,0.98
-0.282,0.05,0.95
-0.26,0.066,0.995
-0.265,0.058,0.986
-0.27,0.006,0.963
-0.3,0.064,0.894
-0.284,0.026,1.001
-0.299,0.075,0.919
-0.274,0.059,0.979
-0.274,0.017,0.969
-0.276,0.029,0.964
-0.262,0.07,1.03
-0.267,0.061,0.973
-0.252,0.013,1.012
-0.271,0.072,0.963
-0.259,-0.001,1.01
-0.291,0.066,0.934
-0.263,0.071,0.98
-0.287,0.049,0.989
-0.273,0.023,0.982
-0.283,0.021,0.979
-0.278,0.097,0.959
-0.235,0.025,1.043
-0.28,0.058,0.954
-0.268,0.012,0.96
-0.301,0.055,0.96
-0.264,0.042,0.989
-0.283,0.073,0.945
-0.273,0.029,0.96
-0.288,-0.004,0.974
-0.285,0.093,0.936
-0.235,0.038,1.047
-0.278,0.045,0.954
-0.242,0.034,0.996
-0.295,0.045,0.959
-0.269,0.04,0.973
-0.274,0.058,0.939
-0.27,0.071,1.018
-0.272,0.036,0.898
-0.309,0.059,1.003
-0.259,0.079,0.961
-0.266,0.018,0.993
-0.288,0.039,0.951
-0.279,0.035,0.964
-0.265,0.035,1.012
-0.272,0.091,0.944
-0.255,0,0.981
-0.326,0.032,0.894
-0.282,0.063,1.009
-0.289,0.071,0.924
-0.263,0.018,0.991
-0.279,0.069,0.98
-0.248,0.028,1.007
-0.255,0.027,1.029
-0.264,0.095,0.949
-0.25,0.034,1.024
-0.286,0.033,0.944
-0.293,0.006,0.946
-0.311,0.095,0.907
-0.266,0.05,1.026
-0.284,0.029,0.984
-0.269,0.033,0.961
-0.266,0.027,1.008
-0.277,0.063,0.975
-0.251,0.047,0.99
-0.274,0.062,0.94
-0.267,-0.01,0.986
-0.296,0.073,0.925
-0.271,0.068,0.979
-0.276,0.016,0.971
-0.263,0.07,0.974
-0.245,0.015,1.029
-0.289,0.042,0.925
-0.244,0.041,0.995
-0.269,0.093,0.99
-0.25,0.003,0.993
-0.295,0.035,0.924
-0.29,0.072,0.96
-0.28,0.046,0.972
-0.297,0.036,0.941
-0.28,0.021,0.975
-0.289,0.051,0.92
-0.262,0.017,1.038
-0.28,0.106,0.947
-0.243,0.01,0.993
-0.306,0.023,0.942
-0.29,0.051,0.946
-0.281,0.064,0.947
-0.277,0.034,0.961
-0.268,0.034,0.973
-0.3,0.065,0.935
-0.268,0.006,1.019
-0.298,0.085,0.911
-0.245,0.066,1.021
-0.278,0.02,0.98
-0.278,0.007,0.938
-0.276,0.064,0.982
-0.282,0.078,0.971
-0.263,0.001,1
-0.279,0.048,0.921
-0.268,0.031,0.99
-0.294,0.057,0.955
-0.256,0.069,0.996
-0.272,0.052,0.983
-0.267,0,0.982
-0.258,0.034,0.996
-0.271,0.094,0.955
-0.269,0,0.968
-0.293,0.061,0.913
-0.273,0.025,0.966
-0.317,0.031,0.909
-0.27,0.055,0.959
-0.28,0.079,0.989
-0.258,0.028,0.978
-0.281,-0.006,0.991
-0.28,0.083,0.917
-0.264,0.039,1.003
-0.29,0.041,0.914
-0.273,0.013,0.936
-0.304,0.063,0.897
-0.302,0.02,0.959
-0.307,0.089,0.935
-0.273,0.048,0.957
-0.273,-0.023,0.992
-0.289,0.067,0.943
-0.251,0.054,1.003
-0.283,0.061,0.945
-0.262,0.03,0.991
-0.29,0.055,0.931
-0.313,0.022,0.949
-0.297,0.036,0.95
-0.271,0.084,0.968
-0.275,0.015,0.978
-0.313,0.025,0.898
-0.275,0.033,0.976
-0.281,0.105,0.958
-0.249,0.006,0.995
-0.291,0.05,0.94
-0.289,0.034,0.932
-0.301,0.011,0.951
-0.294,0.089,0.958
-0.274,0.031,0.889
-0.314,0.027,0.995
-0.283,0.097,0.916
-0.255,0.011,0.99
-0.278,0.054,0.98
-0.269,0.042,0.955
-0.296,0.003,0.939
-0.312,0.074,0.915
-0.277,0.053,0.958
-0.313,0.054,0.919
-0.304,-0.011,0.966
-0.314,0.072,0.898
-0.278,0.071,0.995
-0.276,0.026,0.985
-0.264,0.031,0.954
-0.277,0.034,0.955
-0.293,0.045,0.959
-0.275,0.046,0.941
-0.296,0.085,0.918
-0.287,-0.018,0.954
-0.317,0.056,0.909
-0.29,0.076,0.951
-0.286,0.023,0.955
-0.278,0.064,0.95
-0.26,0.032,1.014
-0.3,0.034,0.934
-0.279,0.023,0.959
-0.283,0.098,0.936
-0.265,0.009,0.972
-0.316,0.019,0.908
-0.302,0.062,0.935
-0.298,0.059,0.959
-0.281,0.039,0.94
-0.282,0.024,0.977
-0.304,0.064,0.908
-0.268,-0.001,1.037
-0.272,0.097,0.944
-0.256,0.031,0.973
-0.302,0.017,0.95
-0.301,0.029,0.922
-0.305,0.076,0.922
-0.287,0.038,0.938
-0.276,0.021,0.972
-0.296,0.08,0.919
-0.28,0,1.005
-0.302,0.077,0.916
-0.248,0.05,1.009
-0.288,0.036,0.957
-0.286,0.007,0.953
-0.298,0.054,0.946
-0.283,0.078,0.956
-0.28,0.009,0.958
-0.309,0.047,0.899
-0.287,0.022,0.976
-0.302,0.055,0.948
-0.263,0.069,0.994
-0.282,0.055,0.95
-0.286,-0.002,0.956
-0.283,0.02,0.963
-0.293,0.111,0.926
-0.288,-0.001,0.962
-0.313,0.052,0.886
-0.291,0.049,0.946
-0.33,0.034,0.896
-0.286,0.045,0.942
-0.278,0.082,0.984
-0.262,0.033,0.981
-0.288,-0.003,0.975
-0.302,0.09,0.922
-0.26,0.038,0.999
-0.297,0.037,0.934
-0.292,0.019,0.941
-0.311,0.052,0.901
-0.301,0.02,0.972
-0.293,0.08,0.948
-0.265,0.054,0.973
-0.27,-0.012,1.002
-0.301,0.073,0.95
-0.257,0.042,0.987
-0.284,0.054,0.952
-0.268,0.037,0.991
-0.294,0.072,0.928
-0.31,0.025,0.939
-0.307,0.039,0.924
-0.272,0.09,0.957
-0.268,0.008,1.004
-0.316,0.026,0.898
-0.278,0.047,0.99
-0.276,0.089,0.979
-0.242,-0.002,0.998
-0.29,0.058,0.926
-0.296,0.038,0.926
-0.306,0.014,0.943
-0.296,0.098,0.922
-0.278,0.033,0.959
-0.305,0.009,0.921
-0.275,0.028,0.995
-0.294,0.099,0.925
-0.251,0.005,0.999
-0.276,0.068,0.971
-0.263,0.04,0.963
-0.299,0.013,0.953
-0.292,0.077,0.943
-0.263,0.042,0.912
-0.311,-0.009,0.961
-0.307,0.079,0.889
-0.262,0.06,0.988
-0.274,0.027,0.977
-0.274,0.038,0.943
-0.281,0.023,0.994
-0.281,0.043,0.953
-0.272,0.057,0.943
-0.293,0.076,0.925
-0.288,-0.016,0.98
-0.307,0.061,0.921
-0.273,0.076,0.979
-0.285,0.015,0.967
-0.268,0.061,0.986
-0.247,0.027,1.028
-0.29,0.042,0.943
-0.276,0.035,0.955
-0.281,0.089,0.943
-0.277,0.001,0.966
-0.317,0.03,0.891
-0.301,0.071,0.935
-0.305,0.071,0.955
-0.289,0.034,0.969
-0.294,0.012,0.95
-0.294,0.057,0.928
-0.266,0.009,1.011
-0.282,0.097,0.937
-0.253,0.028,0.978
-0.297,0.018,0.939
-0.306,0.048,0.936
-0.315,0.076,0.904
-0.294,0.034,0.944
-0.277,0.037,0.981
-0.287,0.074,0.952
-0.275,0.005,1.006
-0.287,0.08,0.914
-0.247,0.061,1.014
-0.278,0.023,0.962
-0.294,0.009,0.923
-0.301,0.068,0.937
-0.292,0.089,0.966
-0.285,0.009,0.968
-0.316,0.05,0.905
-0.278,0.033,0.991
-0.289,0.053,0.968
-0.258,0.068,0.999
-0.275,0.061,0.978
-0.272,-0.005,0.961
-0.292,0.03,0.961
-0.289,0.101,0.932
-0.275,0.001,0.977
-0.296,0.054,0.918
-0.28,0.051,0.976
-0.324,0.035,0.907
-0.277,0.049,0.978
-0.272,0.083,0.982
-0.258,0.039,1.012
-0.278,-0.008,0.983
-0.291,0.095,0.936
-0.256,0.05,1.001
-0.296,0.035,0.902
-0.292,0.021,0.942
-0.31,0.057,0.913
-0.286,0.024,0.987
-0.288,0.077,0.955
-0.271,0.06,0.963
-0.282,0,0.979
-0.303,0.048,0.935
-0.275,0.057,0.971
-0.291,0.055,0.936
-0.27,0.021,0.968
-0.293,0.077,0.929
-0.293,0.014,0.966
-0.3,0.047,0.945
-0.268,0.085,1.007
-0.257,0.028,1.008
-0.292,0.02,0.922
-0.273,0.048,0.975
-0.291,0.094,0.945
-0.261,0.012,0.997
-0.283,0.048,0.936
-0.29,0.048,0.927
-0.317,0.023,0.939
-0.293,0.085,0.954
-0.265,0.048,0.999
-0.288,0.027,0.935
-0.267,0.02,1.015
-0.293,0.105,0.935
-0.256,0.021,1.016
-0.277,0.054,0.988
-0.253,0.052,0.974
-0.304,0.013,0.953
-0.307,0.07,0.939
-0.256,0.056,0.995
-0.284,0.065,0.943
-0.26,-0.016,1.009
-0.305,0.07,0.897
-0.258,0.08,1.019
-0.28,0.03,0.975
-0.268,0.035,0.955
-0.275,0.034,0.974
-0.293,0.044,0.965
-0.275,0.059,0.928
-0.29,-0.008,1.016
-0.265,0.059,0.958
-0.265,0.075,1.009
-0.294,0.039,0.961
-0.267,0.047,0.989
-0.254,0.048,1.023
-0.285,0.033,0.955
-0.274,0.029,0.99
-0.28,0.099,0.929
-0.279,0.038,0.985
-0.317,0.015,0.899
-0.287,0.05,0.954
-0.287,0.093,0.973
-0.265,0.038,0.977
-0.27,0.019,1
-0.278,0.063,0.951
-0.255,0.008,1.029
-0.288,0.098,0.932
-0.267,0.047,0.995
-0.296,0.028,0.937
-0.302,0.035,0.927
-0.328,0.086,0.927
-0.282,0.032,0.969
-0.263,0.033,0.99
-0.265,0.084,0.97
-0.262,-0.008,1.008
-0.298,0.08,0.93
-0.25,0.074,1.019
-0.293,0.043,0.923
-0.306,0.014,0.938
-0.313,0.045,0.944
-0.293,0.088,0.961
-0.272,0.024,1.033
-0.28,0.043,0.927
-0.25,0.024,0.998
-0.28,0.058,0.97
-0.262,0.063,1.002
-0.273,0.08,0.963
-0.265,0.006,0.963
-0.29,0.008,0.958
-0.299,0.101,0.933
-0.27,0.015,0.982
-0.299,0.059,0.926
-0.243,0.048,1.025
-0.3,0.029,0.932
-0.257,0.031,1.008
-0.253,0.097,1.013
-0.237,0.038,0.998
-0.272,-0.006,0.977
-0.298,0.072,0.936
-0.278,0.05,0.994
-0.292,0.051,0.908
-0.278,0.023,0.985
-0.316,0.051,0.91
-0.283,0.018,0.996
-0.277,0.077,0.981
-0.256,0.072,0.973
-0.256,0.004,1.02
-0.267,0.031,0.971
-0.261,0.059,0.973
-0.278,0.063,0.947
-0.259,0.02,0.996
-0.283,0.09,0.953
-0.291,0.017,0.96
-0.306,0.042,0.95
-0.263,0.09,0.981
-0.242,0.029,1.022
-0.288,0.015,0.924
-0.288,0.018,0.974
-0.292,0.096,0.95
-0.254,0.024,0.988
-0.278,0.047,0.943
-0.292,0.046,0.949
-0.306,0.027,0.975
-0.268,0.071,0.955
-0.244,0.056,0.992
-0.273,0.04,0.958
-0.258,-0.012,1.032
-0.288,0.097,0.923
-0.253,0.03,0.996
-0.276,0.054,0.973
-0.262,0.053,0.982
-0.32,0.025,0.937
-0.303,0.036,0.933
-0.254,0.064,1.013
-0.278,0.078,0.958
-0.251,-0.02,1.038
-0.294,0.059,0.927
-0.251,0.058,1.007
-0.278,0.046,0.954
-0.275,0.028,0.933
-0.296,0.037,0.951
-0.283,0.035,0.956
-0.274,0.051,0.992
-0.294,0.078,0.924
-0.256,0.01,1.01
-0.294,0.023,0.959
-0.261,0.06,0.975
-0.288,0.062,0.962
-0.26,0.036,0.98
-0.251,0.034,0.982
-0.288,0.043,0.925
-0.29,0.019,0.914
-0.294,0.09,0.986
-0.273,0.002,0.921
-0.307,0.026,0.99
-0.272,0.086,1.006
-0.251,0.051,0.992
-0.264,0.013,1
-0.276,0.059,0.939
-0.256,-0.008,0.997
-0.291,0.077,0.92
-0.263,0.055,0.975
-0.297,0.036,0.926
-0.287,0.012,0.983
-0.307,0.078,0.961
-0.26,0.047,0.969
-0.247,0.026,1.045
-0.244,0.072,0.987
-0.261,-0.002,0.981
-0.306,0.063,0.908
-0.26,0.056,0.996
-0.291,0.073,0.927
-0.294,0.001,0.949
-0.316,0.027,0.917
-0.288,0.079,0.941
-0.253,0.032,1.026
-0.282,0.052,0.927
-0.26,0.017,0.989
-0.291,0.048,0.933
-0.277,0.038,0.981
-0.268,0.089,0.955
-0.283,0.02,0.953
-0.304,-0.002,0.94
-0.313,0.081,0.921
-0.279,0.033,0.986
-0.289,0.056,0.941
-0.245,0.049,1.052
-0.301,0.046,0.923
-0.283,0.008,0.978
-0.255,0.088,0.987
-0.259,0.049,0.965
-0.271,-0.004,0.981
-0.293,0.047,0.915
-0.277,0.049,0.965
-0.298,0.068,0.921
-0.28,0.02,0.993
-0.313,0.058,0.907
-0.258,0.008,1.02
-0.27,0.055,0.971
-0.255,0.08,0.944
-0.264,0.01,0.978
-0.301,0.021,0.936
-0.298,0.049,0.95
-0.293,0.07,0.918
-0.262,0.005,0.999
-0.286,0.09,0.951
-0.299,0.021,0.956
-0.319,0.022,0.924
-0.267,0.08,0.97
-0.247,0.026,1.015
-0.289,0.036,0.924
-0.284,0.009,0.961
-0.307,0.08,0.895
-0.269,0.036,0.974
-0.291,0.043,0.925
-0.28,0.038,0.948
-0.315,0.034,0.953
-0.291,0.063,0.951
-0.255,0.053,1.008
-0.265,0.046,0.959
-0.257,-0.027,1.025
-0.286,0.096,0.938
-0.248,0.029,0.98
-0.282,0.048,0.968
-0.274,0.053,0.957
-0.316,0.024,0.915
-0.298,0.029,0.923
-0.267,0.065,0.996
-0.277,0.079,0.954
-0.265,-0.023,1
-0.31,0.06,0.902
-0.289,0.052,0.961
-0.286,0.051,0.936
-0.284,0.034,0.938
-0.299,0.024,0.928
-0.284,0.04,0.951
-0.273,0.037,0.986
-0.299,0.087,0.904
-0.267,0.008,0.994
-0.291,0.025,0.943
-0.269,0.051,0.964
-0.287,0.067,0.931
-0.289,0.044,0.956
-0.292,0.04,0.957
-0.303,0.035,0.9
-0.31,0.017,0.936
-0.304,0.087,0.906
-0.279,0.042,0.971
-0.299,0.024,0.929
-0.276,0.015,0.978
-0.287,0.077,0.983
-0.256,0.053,0.965
-0.27,0.019,0.982
-0.306,0.059,0.92
-0.295,0,0.894
-0.314,0.066,0.972
-0.276,0.058,0.929
-0.292,0,0.989
-0.306,0.078,0.957
-0.273,0.06,0.965
-0.253,0.014,1.037
-0.262,0.081,0.966
-0.271,-0.005,0.963
-0.313,0.065,0.906
-0.271,0.051,0.986
-0.289,0.079,0.941
-0.289,0.006,0.971
-0.303,0.012,0.925
-0.296,0.083,0.945
-0.248,0.035,1.031
-0.288,0.055,0.934
-0.275,0.024,0.977
-0.305,0.049,0.927
-0.277,0.035,0.965
-0.289,0.086,0.932
-0.286,0.032,0.966
-0.305,-0.005,0.942
-0.313,0.082,0.907
-0.276,0.035,0.985
-0.294,0.054,0.946
-0.247,0.044,1.036
-0.296,0.048,0.924
-0.271,0.011,0.995
-0.268,0.078,0.986
-0.274,0.057,0.955
-0.288,0,0.957
-0.312,0.04,0.909
-0.309,0.055,0.938
-0.308,0.06,0.93
-0.28,0.012,0.98
-0.315,0.055,0.884
-0.267,0.01,1.01
-0.274,0.055,0.967
-0.259,0.083,0.955
-0.281,0.011,0.997
-0.289,0.013,0.946
-0.298,0.058,0.93
-0.297,0.064,0.913
-0.261,0.015,0.989
-0.286,0.074,0.937
-0.301,0.019,0.93
-0.32,0.038,0.931
-0.279,0.08,0.964
-0.261,0.024,0.99
-0.295,0.036,0.93
-0.286,0.012,0.969
-0.302,0.086,0.909
-0.283,0.036,0.969
-0.306,0.041,0.911
-0.296,0.045,0.923
-0.318,0.026,0.937
-0.299,0.063,0.933
-0.264,0.047,0.991
-0.277,0.043,0.948
-0.271,-0.016,0.996
-0.302,0.103,0.93
-0.277,0.03,0.966
-0.289,0.043,0.956
-0.269,0.055,0.947
-0.324,0.016,0.913
-0.297,0.042,0.944
-0.263,0.059,0.991
-0.273,0.07,0.962
-0.259,-0.02,1.02
-0.311,0.072,0.921
-0.261,0.045,1.001
-0.284,0.042,0.941
-0.297,0.041,0.935
-0.298,0.037,0.935
-0.31,0.038,0.935
-0.282,0.055,0.984
-0.285,0.078,0.926
-0.273,-0.003,0.986
-0.301,0.032,0.935
-0.267,0.077,0.976
-0.289,0.049,0.962
-0.276,0.029,0.967
-0.281,0.042,0.947
-0.314,0.042,0.917
-0.3,0.026,0.963
-0.303,0.084,0.897
-0.286,0.052,0.976
-0.316,0.014,0.903
-0.287,0.031,0.947
-0.272,0.084,1
-0.265,0.042,0.981
-0.279,0.01,0.973
-0.29,0.066,0.923
-0.277,-0.009,0.979
-0.292,0.087,0.909
-0.268,0.055,0.956
-0.301,0.023,0.909
-0.292,0.029,0.967
-0.311,0.092,0.938
-0.273,0.038,0.954
-0.262,0.023,1.011
-0.272,0.082,0.964
-0.282,-0.007,0.91
-0.306,0.077,0.976
-0.269,0.088,0.929
-0.298,-0.005,0.932
-0.341,0.048,0.928
-0.276,0.083,0.968
-0.268,0.015,0.995
-0.304,0.052,0.916
-0.279,0.029,0.97
-0.312,0.041,0.913
-0.283,0.055,0.95
-0.293,0.085,0.927
-0.289,0.003,0.934
-0.324,0.016,0.917
-0.313,0.098,0.915
-0.283,0.01,0.982
-0.295,0.064,0.945
-0.25,0.039,1.015
-0.317,0.047,0.925
-0.274,0.032,0.963
-0.278,0.091,0.966
-0.281,0.035,0.951
-0.295,-0.004,0.94
-0.316,0.068,0.905
-0.293,0.059,0.96
-0.3,0.044,0.916
-0.284,0.017,0.98
-0.313,0.067,0.899
-0.289,0.014,0.991
-0.287,0.077,0.95
-0.256,0.071,0.953
-0.279,-0.007,0.989
-0.302,0.047,0.935
-0.29,0.069,0.949
-0.303,0.047,0.923
-0.284,0.025,0.968
-0.297,0.073,0.943
-0.282,0.013,0.97
-0.299,0.056,0.943
-0.262,0.075,0.965
-0.258,0.013,1.015
-0.287,0.022,0.937
-0.289,0.043,0.953
-0.31,0.098,0.907
-0.294,0.02,0.968
-0.302,0.046,0.909
-0.285,0.038,0.966
-0.312,0.032,0.977
-0.282,0.082,0.965
-0.266,0.052,1.006
-0.284,0.019,0.96
-0.258,0.01,0.997
-0.296,0.109,0.915
-0.274,0.007,0.966
-0.298,0.059,0.92
-0.281,0.058,0.953
-0.325,0.015,0.936
-0.295,0.056,0.939
-0.264,0.068,1
-0.284,0.059,0.963
-0.269,-0.013,1.016
-0.288,0.091,0.925
-0.242,0.051,1.022
-0.275,0.029,0.947
-0.283,0.041,0.934
-0.287,0.033,0.954
-0.3,0.043,0.936
-0.28,0.076,0.996
-0.286,0.062,0.917
-0.28,-0.01,0.987
-0.3,0.056,0.935
-0.267,0.079,0.979
-0.29,0.039,0.971
-0.276,0.043,0.966
-0.277,0.033,0.965
-0.308,0.039,0.908
-0.29,0.038,0.965
-0.283,0.095,0.954
-0.277,0.023,0.997
-0.323,0.026,0.892
-0.284,0.06,0.977
-0.272,0.079,0.997
-0.263,0.031,0.97
-0.279,0.02,0.981
-0.285,0.055,0.95
-0.269,-0.005,0.984
-0.296,0.103,0.923
-0.267,0.038,0.974
-0.308,0.016,0.926
-0.268,0.042,0.999
-0.296,0.09,0.965
-0.27,0.029,0.971
-0.266,0.041,1.008
-0.278,0.062,0.955
-0.271,-0.006,0.982
-0.289,0.088,0.937
-0.262,0.039,0.984
-0.299,0.057,0.934
-0.3,0.009,0.951
-0.306,0.049,0.933
-0.269,0.08,0.994
-0.249,0.015,1.016
-0.289,0.049,0.915
-0.269,0.032,1.007
-0.306,0.052,0.975
-0.255,0.061,0.951
-0.277,-0.022,0.934
-0.285,0.037,0.932
-0.308,0.09,0.921
-0.285,0.018,0.999
-0.269,0.065,0.949
-0.251,0.045,1.027
-0.305,0.034,0.938
-0.269,0.043,0.977
-0.263,0.08,0.979
-0.28,0.035,0.963
-0.296,-0.005,0.938
-0.31,0.078,0.898
-0.279,0.055,1
-0.296,0.046,0.934
-0.285,0.028,0.975
-0.309,0.056,0.92
-0.266,0.027,1.031
-0.268,0.078,0.971
-0.252,0.055,0.988
-0.279,-0.005,0.989
-0.298,0.065,0.915
-0.283,0.059,0.956
-0.306,0.048,0.926
-0.275,0.024,0.999
-0.283,0.068,0.954
-0.271,0.017,0.994
-0.305,0.066,0.947
-0.259,0.078,0.993
-0.254,0.016,1.027
-0.28,0.026,0.937
-0.28,0.051,0.974
-0.293,0.101,0.945
-0.281,0.009,0.965
-0.306,0.042,0.902
-0.283,0.036,0.962
-0.293,0.041,1
-0.267,0.083,0.962
-0.246,0.039,1.022
-0.282,0.019,0.952
-0.252,0.028,1.021
-0.277,0.104,0.935
-0.261,0,0.997
-0.294,0.059,0.926
-0.281,0.06,0.958
-0.328,0.014,0.937
-0.293,0.056,0.918
-0.256,0.072,1.023
-0.258,0.039,0.986
-0.26,-0.01,1.001
-0.296,0.098,0.926
-0.255,0.056,1.01
-0.306,0.035,0.914
-0.287,0.038,0.94
-0.289,0.035,0.943
-0.301,0.045,0.962
-0.267,0.074,1.002
-0.276,0.064,0.942
-0.262,-0.01,1.015
-0.294,0.059,0.923
-0.256,0.072,0.994
-0.289,0.035,0.972
-0.269,0.055,0.951
-0.275,0.038,0.976
-0.301,0.029,0.951
-0.273,0.037,0.985
-0.274,0.099,0.949
-0.261,0.025,1.027
-0.306,0.025,0.916
-0.268,0.06,0.994
-0.273,0.086,1.022
-0.253,0.02,0.991
-0.255,0.017,1.001
-0.275,0.056,0.956
-0.277,0.017,0.996
-0.296,0.096,0.918
-0.255,0.036,1.011
-0.313,0.008,0.918
-0.258,0.048,1.013
-0.278,0.095,0.983
-0.259,0.018,0.995
-0.258,0.042,1.017
-0.268,0.06,0.972
-0.274,0.002,0.986
-0.294,0.087,0.924
-0.246,0.038,1.006
-0.28,0.051,0.969
-0.29,0.005,0.967
-0.302,0.067,0.963
-0.248,0.073,1.011
-0.25,0.006,1.004
-0.282,0.052,0.932
-0.264,0.021,1.005
-0.295,0.053,0.942
-0.261,0.07,0.99
-0.273,0.051,0.953
-0.293,0.001,0.945
-0.303,0.059,0.965
-0.289,0.08,0.949
-0.266,0.009,1.019
-0.278,0.077,0.942
-0.243,0.031,1.036
-0.296,0.042,0.942
-0.259,0.049,0.982
-0.258,0.078,0.974
-0.272,-0.004,0.948
-0.298,0.085,0.913
-0.269,0.051,1.008
-0.298,0.042,0.939
-0.269,0.019,0.997
-0.301,0.055,0.927
-0.249,0.024,1.043
-0.26,0.081,0.979
-0.251,0.04,0.969
-0.274,-0.002,0.99
-0.285,0.074,0.916
-0.286,0.06,0.971
-0.304,0.032,0.933
-0.279,0.034,0.963
-0.287,0.061,0.956
-0.274,0.019,0.98
-0.277,0.068,0.963
-0.256,0.068,0.976
-0.266,0.006,1
-0.289,0.036,0.934
-0.259,0.057,1.01
-0.274,0.077,0.955
-0.29,0.015,0.951
-0.314,0.055,0.902
-0.286,0.024,0.964
-0.285,0.047,0.984
-0.258,0.086,0.976
-0.25,0.022,1.026
-0.279,0.027,0.977
-0.24,0.033,1.026
-0.269,0.097,0.946
-0.251,0.004,1.016
-0.276,0.063,0.925
-0.272,0.041,0.971
-0.307,0.038,0.943
-0.292,0.074,0.939
-0.257,0.043,1.012
-0.272,0.039,0.976
-0.256,-0.002,1.011
-0.286,0.11,0.952
-0.236,0.041,1.035
-0.284,0.034,0.929
-0.279,0.042,0.934
-0.293,0.023,0.964
-0.295,0.063,0.948
-0.267,0.063,1.011
-0.272,0.04,0.953
-0.279,-0.01,0.999
-0.308,0.082,0.934
-0.258,0.055,0.978
-0.284,0.029,0.968
-0.276,0.056,0.955
-0.286,0.023,0.985
-0.297,0.046,0.929
-0.269,0.05,0.974
-0.285,0.075,0.945
-0.263,0.008,1.017
-0.317,0.035,0.912
-0.273,0.08,0.987
-0.262,0.06,1.027
-0.263,0.026,0.941
-0.278,0.025,0.978
-0.296,0.055,0.933
-0.273,0.013,0.989
-0.297,0.105,0.903
-0.263,0.017,0.992
-0.319,0.021,0.902
-0.26,0.064,1.022
-0.27,0.078,1.001
-0.254,0.029,0.981
-0.259,0.045,0.993
-0.275,0.061,0.977
-0.268,-0.004,0.987
-0.286,0.094,0.933
-0.248,0.033,1.009
-0.28,0.035,0.944
-0.291,0.009,0.94
-0.292,0.076,0.937
-0.267,0.074,0.991
-0.262,0,1.006
-0.281,0.051,0.94
-0.266,0.013,0.983
-0.299,0.063,0.936
-0.261,0.056,0.977
-0.279,0.051,0.952
-0.283,-0.002,0.942
-0.299,0.057,0.951
-0.281,0.078,0.934
-0.266,0.009,1.012
-0.279,0.076,0.947
-0.232,0.023,1.05
-0.295,0.055,0.95
-0.246,0.036,0.983
-0.269,0.069,0.97
-0.263,0.022,0.968
-0.301,-0.001,0.935
-0.31,0.085,0.909
-0.261,0.038,0.998
-0.304,0.048,0.919
-0.265,0.015,1.001
-0.29,0.059,0.935
-0.26,0.009,0.948
-0.281,0.082,0.943
-0.272,-0.014,0.964
-0.289,0.07,0.911
-0.301,0.064,0.984
-0.292,0.027,0.926
-0.269,0.026,0.974
-0.288,0.072,0.957
-0.279,0.017,0.98
-0.295,0.068,0.957
-0.257,0.069,0.974
-0.262,0.001,1.003
-0.281,0.017,0.928
-0.289,0.055,0.955
-0.297,0.096,0.931
-0.285,0.001,0.965
-0.305,0.048,0.909
-0.278,0.028,0.979
-0.283,0.026,1.011
-0.249,0.08,0.987
-0.241,0.032,1.025
-0.284,0.017,0.959
-0.272,0.007,0.979
-0.292,0.119,0.926
-0.276,0,0.971
-0.297,0.05,0.923
-0.275,0.052,0.973
-0.32,0.024,0.94
-0.286,0.06,0.925
-0.251,0.048,1.012
-0.268,0.054,0.958
-0.271,-0.024,0.97
-0.3,0.097,0.922
-0.264,0.035,0.995
-0.288,0.04,0.925
-0.301,0.037,0.922
-0.301,0.019,0.931
-0.294,0.026,0.966
-0.257,0.06,1.005
-0.277,0.081,0.928
-0.267,-0.01,1.019
-0.307,0.046,0.912
-0.278,0.069,0.949
-0.283,0.035,0.947
-0.284,0.037,0.947
-0.286,0.049,0.963
-0.31,0.026,0.907
-0.293,0.035,0.968
-0.296,0.098,0.951
-0.249,0.017,1.037
-0.301,0.032,0.934
-0.266,0.033,0.984
-0.277,0.073,0.973
-0.278,0.037,0.936
-0.292,0.024,0.947
-0.312,0.045,0.896
-0.3,0.002,0.951
-0.31,0.087,0.898
-0.273,0.051,0.987
