acc_l_x[mg],acc_l_y[mg],acc_l_z[mg],gyro_x[dps],gyro_y[dps],gyro_z[dps],acc_h_x[mg],acc_h_y[mg],acc_h_z[mg]
279.136,621.224,-758.352,33.11,-2.45,2.66,288.896,671.488,-788.608
278.648,628.056,-762.744,32.13,-2.24,2.52,304.512,694.912,-796.416
279.136,630.984,-761.768,31.22,-2.03,2.52,320.128,679.296,-780.8
279.136,634.888,-762.744,30.24,-1.89,2.24,320.128,671.488,-796.416
279.624,639.28,-762.744,29.26,-1.75,2.03,296.704,702.72,-796.416
278.648,643.672,-766.16,28.0,-1.61,1.89,296.704,687.104,-780.8
278.16,647.088,-766.16,26.81,-1.4,1.68,320.128,710.528,-812.032
277.672,651.48,-766.648,25.48,-1.26,1.54,320.128,694.912,-796.416
277.184,651.48,-765.672,24.08,-1.26,1.54,320.128,718.336,-796.416
277.672,653.92,-761.28,22.75,-1.26,1.47,288.896,718.336,-804.224
277.672,656.848,-760.304,21.42,-1.19,1.33,296.704,702.72,-788.608
275.232,654.896,-757.376,20.3,-1.26,1.26,327.936,702.72,-788.608
276.208,653.432,-754.936,19.18,-1.26,1.05,304.512,687.104,-765.184
276.696,655.872,-754.448,18.27,-1.33,0.91,288.896,694.912,-772.992
277.184,653.432,-754.448,17.22,-1.33,0.77,304.512,694.912,-788.608
274.744,652.456,-756.888,16.52,-1.26,0.84,304.512,718.336,-780.8
273.28,650.016,-761.768,15.96,-1.12,0.98,320.128,726.144,-804.224
271.816,645.624,-764.696,15.12,-1.26,1.05,335.744,710.528,-796.416
271.816,635.864,-761.28,14.42,-1.4,1.19,304.512,687.104,-796.416
270.84,619.76,-758.84,14.28,-1.4,1.19,304.512,679.296,-796.416
266.448,605.608,-752.984,14.21,-1.33,1.47,320.128,624.64,-780.8
264.008,590.48,-746.64,13.51,-1.26,1.75,281.088,648.064,-788.608
254.736,572.912,-742.248,12.04,-1.05,1.96,304.512,624.64,-772.992
239.608,560.224,-731.024,10.57,-0.84,1.82,265.472,624.64,-749.568
219.6,556.32,-718.336,9.59,-0.56,1.54,257.664,609.024,-741.76
194.224,557.784,-694.424,10.15,-0.7,1.05,210.816,593.408,-733.952
169.824,568.032,-670.512,13.02,-0.98,0.84,187.392,640.256,-687.104
152.256,584.136,-646.112,17.5,-1.61,1.4,187.392,601.216,-671.488
139.08,598.776,-623.664,22.96,-2.59,3.15,148.352,640.256,-655.872
131.272,616.832,-610.0,28.42,-3.71,5.39,140.544,663.68,-640.256
134.688,637.816,-615.368,33.11,-5.39,7.0,163.968,694.912,-648.064
146.4,657.336,-637.816,36.05,-6.86,8.05,195.2,726.144,-671.488
163.968,675.88,-662.216,36.82,-8.19,8.33,171.776,718.336,-694.912
184.952,688.568,-691.984,35.7,-9.38,8.26,234.24,710.528,-726.144
204.96,697.352,-714.432,33.18,-10.36,7.7,226.432,765.184,-772.992
224.968,703.696,-722.24,30.1,-11.2,6.79,257.664,726.144,-741.76
247.904,711.504,-731.024,27.16,-11.9,5.88,281.088,749.568,-780.8
269.864,712.968,-736.88,24.15,-12.11,4.97,327.936,757.376,-780.8
288.408,710.528,-741.272,21.49,-12.18,4.62,335.744,772.992,-780.8
303.048,703.696,-742.736,18.83,-11.76,4.69,327.936,749.568,-765.184
314.76,694.424,-745.176,16.45,-11.2,5.11,359.168,749.568,-812.032
317.688,682.712,-748.104,14.07,-10.22,5.74,343.552,726.144,-765.184
318.176,666.12,-749.568,11.48,-9.52,6.3,351.36,679.296,-796.416
312.32,645.624,-750.544,9.1,-8.61,6.72,335.744,687.104,-788.608
302.072,625.128,-750.056,6.93,-7.7,6.86,320.128,663.68,-788.608
285.48,604.632,-748.104,5.18,-6.72,6.72,327.936,655.872,-757.376
267.912,587.064,-746.152,3.57,-6.02,6.16,288.896,616.832,-804.224
246.44,572.424,-746.152,2.24,-5.53,5.74,273.28,632.448,-788.608
227.408,558.76,-750.056,1.05,-5.53,4.9,257.664,609.024,-772.992
213.256,548.024,-757.376,0.07,-5.81,4.27,234.24,601.216,-812.032
204.472,540.704,-762.256,-0.49,-6.23,3.57,234.24,585.6,-788.608
199.104,536.312,-765.672,-0.91,-6.79,2.8,242.048,569.984,-788.608
198.616,535.824,-768.6,-1.33,-7.21,2.1,242.048,554.368,-796.416
200.08,537.288,-770.552,-1.47,-7.63,1.61,218.624,577.792,-812.032
205.448,540.704,-773.48,-1.75,-8.12,1.26,234.24,577.792,-796.416
210.816,543.144,-773.968,-1.96,-8.33,0.98,242.048,616.832,-804.224
220.088,546.072,-777.872,-2.03,-8.68,0.77,242.048,609.024,-812.032
227.408,548.512,-778.848,-2.03,-8.82,0.7,242.048,601.216,-796.416
237.168,551.928,-780.8,-1.96,-8.89,0.63,273.28,585.6,-812.032
242.048,553.392,-783.24,-1.89,-8.89,0.56,273.28,616.832,-819.84
247.904,554.368,-785.68,-1.47,-8.68,0.49,288.896,624.64,-812.032
253.272,557.784,-789.096,-0.84,-8.61,0.42,281.088,585.6,-819.84
257.664,561.2,-794.464,0.0,-8.54,0.35,296.704,616.832,-827.648
259.616,565.104,-794.952,1.12,-8.26,0.42,312.32,616.832,-827.648
263.032,570.96,-795.44,2.59,-7.91,0.7,304.512,632.448,-835.456
263.52,575.84,-793.488,4.06,-7.7,1.26,273.28,648.064,-843.264
264.496,584.624,-790.072,5.67,-7.49,1.82,335.744,624.64,-812.032
262.056,589.992,-784.704,7.07,-7.28,2.38,273.28,655.872,-819.84
259.616,597.8,-777.872,8.33,-7.21,2.94,273.28,648.064,-796.416
257.664,602.68,-770.552,9.31,-7.07,3.43,288.896,648.064,-772.992
254.736,605.12,-765.672,10.15,-7.07,3.85,281.088,671.488,-772.992
254.736,608.536,-760.304,10.78,-7.35,4.13,288.896,655.872,-765.184
252.296,611.464,-757.376,11.2,-7.49,4.2,288.896,679.296,-772.992
252.784,611.464,-755.912,11.62,-7.84,4.27,296.704,655.872,-788.608
252.296,612.44,-757.864,11.83,-8.05,4.2,281.088,655.872,-804.224
256.688,611.952,-760.304,12.11,-8.54,4.13,304.512,648.064,-765.184
259.616,611.952,-762.256,12.25,-8.75,4.06,288.896,671.488,-788.608
263.52,611.464,-762.744,12.32,-8.68,4.06,288.896,663.68,-804.224
266.448,609.024,-763.72,12.53,-8.68,4.13,288.896,648.064,-804.224
271.328,607.56,-764.696,12.53,-8.54,4.06,288.896,648.064,-804.224
273.768,604.632,-763.72,12.6,-8.33,4.2,304.512,640.256,-812.032
273.768,601.216,-761.768,12.6,-8.05,4.34,288.896,655.872,-796.416
268.888,597.8,-762.744,12.6,-7.91,4.41,304.512,632.448,-788.608
268.888,593.896,-760.304,12.6,-7.77,4.48,304.512,632.448,-788.608
265.96,591.456,-761.28,12.6,-7.56,4.55,296.704,648.064,-772.992
262.544,587.552,-757.864,12.32,-7.63,4.48,304.512,640.256,-812.032
260.592,586.088,-759.328,12.04,-7.63,4.27,312.32,632.448,-772.992
260.104,585.112,-759.816,11.55,-7.77,3.99,281.088,632.448,-804.224
259.128,586.576,-759.328,11.06,-7.7,3.71,312.32,655.872,-796.416
258.152,590.48,-764.208,10.29,-7.77,3.22,296.704,640.256,-804.224
258.152,593.408,-768.6,9.59,-7.84,2.87,296.704,616.832,-788.608
260.104,596.824,-774.456,8.75,-7.91,2.52,281.088,640.256,-804.224
261.568,601.704,-779.824,7.91,-7.98,2.1,343.552,640.256,-835.456
262.544,605.12,-781.288,7.21,-7.98,1.82,304.512,648.064,-835.456
264.496,605.12,-783.728,6.3,-7.91,1.54,296.704,663.68,-812.032
266.448,606.584,-785.68,5.46,-7.77,1.33,304.512,640.256,-835.456
267.424,607.072,-786.168,4.62,-7.7,1.05,281.088,663.68,-835.456
268.888,606.584,-784.704,3.85,-7.56,0.91,304.512,655.872,-812.032
266.936,604.144,-785.192,3.08,-7.35,0.7,296.704,655.872,-827.648
265.96,601.216,-782.264,2.31,-7.21,0.49,320.128,648.064,-827.648
264.008,600.728,-783.24,1.54,-7.0,0.28,312.32,655.872,-812.032
262.544,597.8,-784.216,0.77,-6.86,0.21,288.896,648.064,-804.224
261.568,596.824,-786.656,0.07,-6.86,0.14,288.896,648.064,-819.84
255.712,595.848,-784.216,-0.56,-6.93,0.07,304.512,640.256,-804.224
250.832,595.848,-782.752,-1.26,-7.07,0.0,273.28,655.872,-819.84
249.368,600.728,-785.68,-2.17,-7.28,-0.42,281.088,671.488,-812.032
250.832,600.728,-803.248,-3.22,-7.35,-0.98,249.856,655.872,-835.456
260.592,595.36,-825.208,-3.85,-7.14,-1.4,288.896,640.256,-851.072
270.352,584.624,-851.072,-3.85,-6.72,-1.75,312.32,632.448,-874.496
284.016,573.4,-872.056,-2.94,-6.02,-1.61,312.32,632.448,-921.344
293.288,561.688,-881.328,-1.68,-5.11,-1.05,320.128,593.408,-905.728
297.68,545.584,-869.128,-0.56,-4.13,-0.07,320.128,601.216,-905.728
296.216,529.48,-844.24,0.42,-3.5,0.7,304.512,585.6,-866.688
291.336,517.768,-818.864,1.12,-2.94,1.19,335.744,585.6,-858.88
284.992,513.864,-796.416,1.89,-2.73,1.19,320.128,546.56,-827.648
278.648,518.744,-783.24,2.8,-2.59,0.63,296.704,577.792,-819.84
272.792,534.36,-773.48,3.71,-2.59,-0.14,304.512,585.6,-804.224
268.888,557.296,-767.624,4.62,-2.87,-0.63,296.704,616.832,-788.608
269.864,584.136,-763.232,5.25,-3.29,-1.12,304.512,671.488,-804.224
270.84,612.44,-761.28,5.67,-3.78,-1.4,320.128,663.68,-796.416
277.184,635.864,-757.864,5.95,-3.85,-1.47,288.896,687.104,-772.992
280.6,658.312,-756.888,5.88,-3.64,-1.12,312.32,687.104,-780.8
283.04,671.0,-756.888,5.74,-3.36,-0.56,304.512,710.528,-772.992
283.04,680.272,-756.888,5.39,-3.01,0.28,304.512,718.336,-812.032
278.648,684.176,-761.28,4.69,-2.66,1.19,296.704,733.952,-788.608
273.28,679.784,-759.328,3.99,-2.24,2.17,320.128,726.144,-804.224
265.96,671.0,-757.864,3.22,-2.03,2.94,296.704,710.528,-796.416
258.152,657.824,-754.448,2.45,-1.89,3.5,320.128,710.528,-819.84
252.296,644.16,-752.008,1.68,-1.68,3.78,288.896,687.104,-772.992
245.464,629.52,-751.032,1.05,-1.89,4.06,249.856,663.68,-796.416
241.56,613.416,-749.08,0.42,-2.1,4.06,257.664,640.256,-765.184
241.56,601.704,-749.08,-0.07,-2.31,4.06,265.472,640.256,-780.8
241.56,591.456,-750.544,-0.49,-2.59,3.99,257.664,624.64,-765.184
244.0,586.088,-752.008,-0.63,-3.01,3.78,281.088,640.256,-780.8
248.392,580.72,-754.936,-0.84,-3.15,3.57,273.28,616.832,-788.608
251.808,578.28,-754.448,-0.91,-3.22,3.22,281.088,632.448,-772.992
254.248,580.72,-756.888,-0.98,-3.29,2.94,304.512,640.256,-780.8
257.176,583.648,-758.352,-0.91,-3.43,2.59,273.28,640.256,-788.608
260.104,588.528,-759.816,-1.05,-3.5,2.24,296.704,632.448,-796.416
264.984,590.968,-761.28,-1.33,-3.57,2.03,296.704,632.448,-796.416
268.888,596.824,-762.744,-1.4,-3.57,1.89,304.512,648.064,-804.224
272.792,597.312,-762.744,-1.54,-3.57,1.89,304.512,648.064,-827.648
274.744,600.728,-764.696,-1.54,-3.57,1.96,320.128,632.448,-796.416
279.624,600.24,-765.184,-1.54,-3.43,2.1,296.704,632.448,-796.416
279.624,600.24,-766.16,-1.68,-3.29,2.24,304.512,648.064,-796.416
279.136,597.8,-768.112,-1.82,-3.15,2.45,320.128,640.256,-804.224
280.6,596.336,-771.528,-1.89,-3.08,2.59,320.128,624.64,-796.416
278.16,593.408,-773.48,-1.89,-2.73,2.52,320.128,632.448,-796.416
276.208,589.992,-774.456,-1.89,-2.59,2.45,288.896,632.448,-827.648
271.816,587.064,-774.944,-1.54,-2.31,2.38,304.512,616.832,-796.416
269.376,584.136,-772.016,-1.19,-2.1,2.24,281.088,632.448,-796.416
264.984,584.136,-768.112,-0.84,-1.89,2.31,288.896,632.448,-804.224
260.592,579.256,-767.624,-0.42,-1.89,2.31,304.512,648.064,-804.224
258.152,576.816,-767.624,0.21,-1.82,2.38,320.128,648.064,-804.224
254.248,576.816,-770.552,0.7,-1.89,2.52,288.896,616.832,-788.608
253.76,578.768,-775.432,1.4,-1.68,2.8,288.896,624.64,-819.84
253.272,577.792,-779.824,2.03,-1.82,3.01,265.472,640.256,-804.224
252.784,578.28,-780.8,2.52,-1.75,3.15,281.088,640.256,-819.84
255.224,579.744,-785.192,3.08,-1.75,3.15,304.512,616.832,-835.456
258.152,582.672,-788.12,3.57,-1.47,3.22,281.088,616.832,-835.456
261.568,584.624,-789.096,3.99,-1.12,3.15,265.472,640.256,-819.84
262.056,588.528,-787.144,4.41,-0.77,3.08,288.896,632.448,-835.456
264.008,593.408,-788.12,4.69,-0.63,3.15,304.512,632.448,-780.8
264.496,594.872,-784.216,4.69,-0.42,3.08,296.704,640.256,-812.032
264.008,596.336,-773.968,4.62,-0.14,3.08,273.28,640.256,-788.608
261.08,594.872,-764.208,4.27,-0.14,3.01,281.088,648.064,-772.992
259.128,593.408,-757.376,3.99,-0.21,2.73,296.704,632.448,-796.416
258.152,591.456,-753.96,3.64,-0.28,2.59,281.088,616.832,-812.032
256.2,586.088,-759.328,3.36,-0.35,2.45,288.896,648.064,-788.608
256.688,582.672,-765.672,3.15,-0.21,2.38,281.088,648.064,-812.032
257.664,577.304,-774.944,3.15,-0.14,2.24,304.512,609.024,-819.84
257.664,575.84,-778.36,3.36,0.07,2.17,288.896,632.448,-788.608
255.712,575.84,-779.336,3.57,0.42,2.03,288.896,593.408,-804.224
254.736,576.328,-776.896,4.13,0.77,2.1,296.704,601.216,-812.032
251.808,576.816,-775.432,4.62,1.05,2.03,288.896,632.448,-804.224
250.344,579.256,-773.968,4.97,1.12,2.24,273.28,632.448,-804.224
245.952,581.696,-771.04,5.11,1.33,2.38,304.512,640.256,-796.416
243.512,586.088,-768.112,5.04,1.19,2.38,249.856,632.448,-812.032
242.048,588.528,-769.576,4.9,1.12,2.45,281.088,648.064,-812.032
240.096,591.944,-771.528,4.76,1.05,2.31,265.472,655.872,-804.224
240.584,595.36,-774.944,4.69,1.05,2.17,288.896,624.64,-812.032
242.536,599.752,-778.36,4.41,1.05,1.89,273.28,671.488,-827.648
244.488,606.584,-778.36,4.34,0.98,1.68,288.896,663.68,-827.648
243.512,613.904,-781.288,3.99,0.98,1.54,273.28,663.68,-796.416
244.488,617.32,-783.24,3.57,1.05,1.54,288.896,687.104,-819.84
245.464,621.224,-782.264,3.15,1.12,1.47,281.088,687.104,-812.032
245.952,623.176,-780.312,2.73,1.12,1.54,265.472,679.296,-819.84
248.392,624.152,-778.848,2.45,1.05,1.75,265.472,663.68,-796.416
249.368,624.152,-780.8,2.1,0.98,1.96,288.896,632.448,-819.84
249.368,621.712,-780.8,1.68,1.05,2.24,296.704,663.68,-819.84
251.808,617.32,-782.264,1.4,0.98,2.45,281.088,679.296,-819.84
253.76,612.44,-783.24,1.05,0.91,2.52,265.472,663.68,-819.84
255.712,606.096,-785.68,0.84,0.91,2.73,273.28,663.68,-819.84
256.688,598.776,-784.704,0.7,0.98,2.87,257.664,640.256,-819.84
255.712,592.432,-783.24,0.42,1.05,2.87,296.704,640.256,-804.224
255.224,588.04,-782.752,0.21,1.12,2.73,288.896,632.448,-804.224
254.248,583.648,-783.24,0.07,1.05,2.59,288.896,648.064,-796.416
254.248,580.232,-784.704,-0.21,1.05,2.52,281.088,616.832,-796.416
254.248,578.28,-789.096,-0.21,1.05,2.45,257.664,616.832,-819.84
253.76,576.816,-794.464,-0.21,0.98,2.24,296.704,624.64,-827.648
256.2,575.84,-798.368,-0.35,0.91,2.24,281.088,632.448,-827.648
257.176,573.888,-798.856,-0.35,1.19,2.1,273.28,624.64,-843.264
257.176,575.352,-797.88,-0.35,1.19,1.96,320.128,609.024,-819.84
258.64,577.304,-795.44,-0.42,1.33,1.82,288.896,609.024,-812.032
257.176,578.28,-792.512,-0.49,1.4,1.68,265.472,624.64,-804.224
256.2,579.744,-784.704,-0.56,1.61,1.47,273.28,640.256,-804.224
254.736,583.16,-781.288,-0.77,1.68,1.33,288.896,648.064,-796.416
251.808,584.624,-777.872,-0.98,1.68,1.19,281.088,655.872,-827.648
250.344,586.576,-775.432,-1.33,1.61,1.19,273.28,616.832,-804.224
252.296,584.624,-771.528,-1.47,1.54,1.26,273.28,632.448,-835.456
252.296,586.088,-769.088,-1.61,1.26,1.33,288.896,632.448,-812.032
253.76,583.648,-764.696,-1.61,1.12,1.4,273.28,655.872,-804.224
254.248,581.696,-762.256,-1.61,0.91,1.4,249.856,640.256,-796.416
253.76,581.696,-760.304,-1.54,0.77,1.54,288.896,632.448,-788.608
257.176,580.232,-759.816,-1.54,0.63,1.61,296.704,616.832,-788.608
257.664,575.84,-762.256,-1.26,0.56,1.68,281.088,632.448,-788.608
258.152,574.864,-762.256,-0.98,0.49,1.68,288.896,624.64,-812.032
259.616,573.4,-763.232,-0.77,0.35,1.61,296.704,624.64,-812.032
259.128,572.424,-764.208,-0.49,0.21,1.75,296.704,648.064,-780.8
260.592,569.984,-765.184,0.07,0.28,1.82,304.512,624.64,-780.8
260.104,570.472,-765.672,0.56,0.21,1.96,273.28,616.832,-812.032
260.592,567.056,-764.696,1.19,0.0,2.03,296.704,601.216,-796.416
259.128,566.568,-761.768,1.75,-0.07,2.17,273.28,624.64,-788.608
256.2,563.152,-759.328,2.31,-0.14,2.17,257.664,632.448,-780.8
255.712,561.2,-757.864,2.94,-0.28,2.17,288.896,609.024,-788.608
254.736,561.2,-755.424,3.5,-0.49,2.24,273.28,616.832,-772.992
253.76,560.224,-750.544,3.78,-0.56,2.1,288.896,601.216,-796.416
250.832,559.248,-746.152,3.99,-0.84,2.17,296.704,616.832,-796.416
248.88,557.296,-746.152,4.2,-0.98,1.96,281.088,616.832,-765.184
248.392,561.2,-745.176,4.2,-1.19,1.82,273.28,585.6,-780.8
248.392,559.248,-746.64,4.13,-1.47,1.68,281.088,616.832,-772.992
250.344,559.248,-745.664,4.06,-1.96,1.54,288.896,585.6,-796.416
250.344,561.688,-749.568,4.06,-2.1,1.26,265.472,609.024,-780.8
253.76,565.104,-750.056,3.78,-2.31,1.12,304.512,648.064,-772.992
254.736,567.056,-751.032,3.64,-2.38,0.91,288.896,601.216,-780.8
256.2,570.96,-750.056,3.43,-2.45,0.84,281.088,648.064,-772.992
256.688,574.376,-748.104,3.22,-2.52,0.77,288.896,616.832,-772.992
257.664,578.28,-747.128,3.01,-2.66,0.63,273.28,601.216,-788.608
256.688,581.696,-750.056,2.94,-2.66,0.7,273.28,632.448,-788.608
255.712,584.624,-752.008,2.94,-2.73,0.63,281.088,632.448,-780.8
253.76,587.552,-752.984,2.87,-2.73,0.7,288.896,624.64,-788.608
253.76,589.992,-753.472,2.87,-2.66,0.7,296.704,624.64,-780.8
251.32,591.456,-753.96,2.8,-2.87,0.7,281.088,632.448,-780.8
249.856,591.944,-751.52,2.59,-2.87,0.63,273.28,624.64,-780.8
249.368,593.896,-750.544,2.45,-2.94,0.63,288.896,632.448,-812.032
248.392,595.848,-752.008,2.31,-3.01,0.49,281.088,609.024,-780.8
246.44,596.336,-754.448,2.17,-3.08,0.49,273.28,632.448,-780.8
246.44,599.752,-756.888,2.03,-3.22,0.42,265.472,663.68,-780.8
244.976,599.752,-760.304,1.89,-3.36,0.49,273.28,648.064,-780.8
245.464,597.312,-763.72,1.68,-3.36,0.7,273.28,655.872,-812.032
246.928,595.848,-765.672,1.54,-3.5,0.77,265.472,648.064,-780.8
248.88,592.92,-770.552,1.4,-3.64,0.77,288.896,663.68,-796.416
250.344,591.456,-771.04,1.4,-3.57,0.7,281.088,648.064,-812.032
253.76,588.528,-773.968,1.26,-3.64,0.7,281.088,640.256,-796.416
253.272,587.552,-778.848,1.19,-3.5,0.63,288.896,624.64,-819.84
253.76,586.088,-783.728,1.12,-3.36,0.63,288.896,640.256,-835.456
253.76,589.504,-786.656,1.05,-3.29,0.42,265.472,632.448,-835.456
254.736,589.504,-792.512,0.91,-3.22,0.42,265.472,624.64,-835.456
253.76,590.968,-795.44,0.91,-3.01,0.35,265.472,632.448,-819.84
256.2,592.432,-802.272,0.84,-3.01,0.21,320.128,648.064,-835.456
257.176,595.36,-804.712,0.91,-2.94,0.28,296.704,616.832,-874.496
258.64,597.312,-810.08,1.12,-2.87,0.35,296.704,648.064,-858.88
262.056,597.312,-811.544,1.19,-2.73,0.56,288.896,640.256,-843.264
263.032,596.824,-810.568,1.4,-2.59,0.63,304.512,648.064,-835.456
263.52,598.776,-808.128,1.33,-2.38,0.7,304.512,655.872,-819.84
264.008,595.848,-806.176,1.33,-2.24,0.84,304.512,648.064,-851.072
262.056,594.872,-801.784,1.12,-2.03,0.84,281.088,648.064,-835.456
261.08,593.896,-798.368,0.84,-1.82,0.84,320.128,648.064,-835.456
260.592,590.968,-793.976,0.63,-1.68,0.91,288.896,624.64,-827.648
258.152,586.576,-787.632,0.42,-1.61,0.84,281.088,640.256,-827.648
255.712,581.208,-784.216,0.28,-1.47,0.77,296.704,616.832,-812.032
254.248,577.304,-780.8,0.21,-1.47,0.63,296.704,624.64,-812.032
252.784,571.936,-779.336,0.07,-1.33,0.63,304.512,616.832,-819.84
251.32,566.568,-776.408,0.14,-1.33,0.63,281.088,624.64,-819.84
248.392,562.176,-772.504,0.14,-1.26,0.56,288.896,624.64,-812.032
248.392,558.272,-771.528,0.28,-1.26,0.56,273.28,577.792,-796.416
246.928,555.344,-768.6,0.42,-1.33,0.49,257.664,609.024,-796.416
246.928,555.344,-770.064,0.56,-1.4,0.21,296.704,593.408,-796.416
247.904,553.88,-769.576,0.7,-1.4,0.07,273.28,609.024,-804.224
247.904,554.368,-769.088,0.84,-1.47,-0.14,281.088,601.216,-819.84
247.904,556.808,-768.6,0.98,-1.47,-0.21,265.472,616.832,-804.224
247.904,560.224,-764.208,1.19,-1.54,-0.35,273.28,616.832,-780.8
249.856,563.64,-761.768,1.33,-1.68,-0.49,265.472,609.024,-780.8
249.856,568.52,-756.4,1.33,-1.89,-0.49,265.472,624.64,-796.416
249.368,572.424,-754.448,1.19,-1.82,-0.42,288.896,609.024,-780.8
251.808,574.376,-753.472,0.98,-1.89,-0.49,273.28,624.64,-812.032
253.272,577.304,-753.96,0.63,-1.82,-0.63,257.664,624.64,-765.184
252.784,580.232,-752.008,0.42,-1.82,-0.56,304.512,640.256,-780.8
251.32,581.696,-753.96,0.14,-1.89,-0.63,288.896,648.064,-788.608
251.32,584.136,-752.008,0.0,-1.82,-0.63,296.704,632.448,-788.608
250.832,582.184,-753.472,-0.14,-1.89,-0.7,288.896,632.448,-757.376
250.344,582.184,-754.448,-0.35,-1.89,-0.63,273.28,624.64,-796.416
250.832,583.16,-756.888,-0.42,-1.82,-0.56,296.704,640.256,-788.608
250.344,580.72,-765.184,-0.63,-1.96,-0.56,273.28,632.448,-796.416
249.368,578.768,-771.04,-0.84,-2.03,-0.49,273.28,609.024,-788.608
253.76,578.28,-773.968,-0.77,-2.03,-0.77,273.28,616.832,-788.608
252.296,577.792,-775.92,-0.7,-2.03,-0.77,281.088,616.832,-812.032
252.784,580.232,-779.824,-0.56,-1.89,-0.77,288.896,632.448,-812.032
251.808,583.16,-779.824,-0.28,-1.82,-0.91,304.512,640.256,-804.224
252.296,584.136,-778.848,-0.14,-1.68,-0.7,281.088,616.832,-812.032
250.344,584.624,-781.288,0.0,-1.75,-0.49,281.088,616.832,-812.032
251.32,584.136,-780.312,0.14,-1.82,-0.35,265.472,601.216,-804.224
250.832,582.184,-779.336,0.14,-2.03,-0.28,265.472,632.448,-804.224
250.832,578.28,-783.24,0.21,-1.96,-0.14,273.28,609.024,-812.032
250.832,574.864,-783.728,0.14,-2.03,-0.21,273.28,601.216,-812.032
252.784,572.912,-787.632,0.21,-1.89,-0.21,281.088,601.216,-835.456
254.248,570.96,-790.56,0.21,-2.03,-0.35,257.664,609.024,-812.032
253.76,568.52,-793.0,0.14,-2.1,-0.49,281.088,577.792,-819.84
257.176,566.568,-793.0,0.07,-2.03,-0.63,273.28,632.448,-819.84
260.104,567.544,-793.976,0.21,-2.03,-0.7,288.896,609.024,-819.84
260.592,568.032,-793.488,0.28,-1.89,-0.84,265.472,609.024,-819.84
262.056,568.52,-795.928,0.49,-1.82,-0.98,265.472,632.448,-827.648
262.056,570.472,-796.904,0.63,-1.54,-0.91,288.896,609.024,-835.456
261.568,571.448,-796.416,0.77,-1.4,-0.84,281.088,624.64,-819.84
262.056,571.936,-794.464,0.77,-1.26,-0.77,296.704,640.256,-827.648
260.592,570.472,-795.928,0.84,-1.19,-0.7,304.512,624.64,-827.648
260.104,569.008,-792.512,1.05,-0.91,-0.7,296.704,616.832,-827.648
259.616,568.52,-789.584,1.12,-0.63,-0.56,288.896,632.448,-812.032
257.664,565.592,-789.096,1.26,-0.63,-0.63,273.28,624.64,-827.648
256.688,564.128,-787.632,1.26,-0.42,-0.63,296.704,609.024,-812.032
255.712,562.176,-784.704,1.33,-0.35,-0.63,288.896,601.216,-812.032
254.248,562.664,-781.776,1.54,-0.21,-0.7,281.088,632.448,-827.648
254.736,563.64,-779.824,1.89,-0.07,-0.7,265.472,601.216,-804.224
251.32,566.568,-780.312,2.1,-0.14,-0.7,288.896,585.6,-796.416
251.808,569.008,-777.872,2.38,-0.21,-0.63,273.28,609.024,-796.416
251.808,569.496,-776.896,2.45,-0.07,-0.49,288.896,640.256,-804.224
252.296,572.912,-775.432,2.45,-0.14,-0.49,242.048,640.256,-804.224
252.296,576.816,-777.384,2.31,-0.07,-0.42,288.896,616.832,-819.84
252.296,581.696,-779.336,2.24,-0.07,-0.42,265.472,616.832,-812.032
255.224,583.648,-779.824,2.03,-0.07,-0.35,288.896,640.256,-804.224
257.176,585.6,-782.264,1.89,0.0,-0.28,273.28,632.448,-796.416
256.2,589.016,-782.752,1.54,0.14,-0.21,281.088,624.64,-819.84
257.664,590.968,-779.824,1.26,0.21,-0.28,281.088,648.064,-788.608
257.176,591.456,-778.36,0.91,0.35,-0.35,273.28,601.216,-827.648
257.176,592.92,-776.896,0.56,0.49,-0.35,296.704,632.448,-788.608
255.224,592.92,-772.016,0.35,0.42,-0.35,304.512,632.448,-827.648
255.712,593.896,-772.016,0.0,0.35,-0.35,273.28,640.256,-796.416
254.736,592.432,-770.552,-0.28,0.42,-0.21,296.704,632.448,-804.224
254.248,592.432,-770.552,-0.49,0.49,-0.14,273.28,655.872,-796.416
253.272,592.92,-771.528,-0.56,0.42,-0.07,281.088,655.872,-812.032
250.832,592.432,-772.992,-0.77,0.49,0.0,273.28,663.68,-796.416
248.392,592.432,-771.528,-0.91,0.49,0.14,265.472,648.064,-812.032
248.88,591.944,-772.016,-0.91,0.28,0.14,288.896,616.832,-804.224
248.88,591.456,-769.088,-1.12,0.28,0.21,281.088,687.104,-804.224
245.464,592.92,-766.16,-1.19,0.28,0.21,265.472,648.064,-804.224
243.512,591.456,-766.648,-1.47,0.14,0.35,304.512,624.64,-819.84
245.464,590.48,-765.184,-1.54,0.07,0.28,281.088,632.448,-788.608
244.0,588.528,-762.256,-1.82,0.07,0.35,265.472,632.448,-788.608
243.024,589.016,-759.816,-2.03,-0.14,0.35,273.28,624.64,-796.416
241.56,583.16,-761.28,-2.17,-0.21,0.35,265.472,624.64,-772.992
242.536,582.184,-761.768,-2.17,-0.35,0.42,288.896,616.832,-780.8
243.512,577.304,-762.256,-2.17,-0.56,0.49,249.856,640.256,-812.032
243.512,573.888,-762.256,-2.24,-0.56,0.49,249.856,640.256,-796.416
243.512,573.888,-759.816,-2.31,-0.63,0.49,257.664,624.64,-788.608
242.536,572.424,-754.448,-2.45,-0.84,0.35,265.472,609.024,-788.608
243.024,570.472,-752.984,-2.59,-0.84,0.14,265.472,616.832,-780.8
244.0,570.472,-750.544,-2.73,-1.12,0.0,265.472,632.448,-780.8
246.44,571.448,-753.96,-2.66,-1.12,-0.14,257.664,624.64,-780.8
248.392,575.84,-755.424,-2.59,-1.26,0.0,281.088,632.448,-780.8
248.392,576.328,-756.4,-2.52,-1.12,0.07,288.896,601.216,-796.416
248.88,578.768,-759.816,-2.31,-1.26,0.21,273.28,632.448,-757.376
248.88,577.304,-758.84,-2.03,-1.26,0.35,273.28,655.872,-788.608
247.416,577.792,-759.816,-1.68,-1.26,0.63,281.088,609.024,-796.416
244.0,575.84,-758.84,-1.54,-1.33,0.7,273.28,640.256,-812.032
243.512,573.4,-757.864,-1.33,-1.26,0.84,257.664,640.256,-772.992
240.096,572.912,-758.84,-1.05,-1.4,0.84,288.896,640.256,-796.416
237.656,571.936,-757.864,-0.84,-1.4,0.77,265.472,585.6,-788.608
235.216,572.912,-755.912,-0.7,-1.47,0.77,257.664,609.024,-772.992
232.776,573.888,-753.472,-0.63,-1.68,0.63,257.664,632.448,-788.608
231.312,576.816,-754.448,-0.49,-1.89,0.63,249.856,624.64,-765.184
231.312,580.232,-753.96,-0.28,-2.1,0.56,242.048,640.256,-780.8
231.312,581.696,-756.4,-0.21,-2.31,0.56,257.664,640.256,-780.8
232.288,585.112,-760.304,-0.07,-2.52,0.7,257.664,632.448,-788.608
232.288,586.576,-763.72,-0.07,-2.66,0.7,249.856,624.64,-780.8
235.216,588.04,-766.16,-0.07,-2.87,0.84,281.088,640.256,-804.224
237.656,588.528,-772.016,-0.21,-2.94,0.77,265.472,648.064,-804.224
238.632,588.528,-773.968,-0.21,-2.94,0.77,281.088,632.448,-819.84
240.096,587.552,-776.408,-0.28,-2.94,0.77,288.896,624.64,-812.032
240.584,585.6,-777.384,-0.28,-2.8,0.84,265.472,616.832,-827.648
241.072,582.672,-780.312,-0.28,-2.87,0.98,273.28,632.448,-804.224
241.56,581.696,-778.848,-0.07,-2.73,1.05,265.472,632.448,-827.648
242.048,582.672,-778.36,-0.14,-2.73,1.12,273.28,632.448,-788.608
241.56,582.184,-776.896,0.14,-2.73,1.05,281.088,624.64,-827.648
238.632,580.72,-775.92,0.35,-2.66,1.12,257.664,640.256,-812.032
239.12,581.208,-778.36,0.42,-2.73,1.12,265.472,632.448,-812.032
237.656,582.672,-776.896,0.49,-2.73,1.12,265.472,648.064,-804.224
237.656,583.648,-779.824,0.63,-2.8,1.12,273.28,632.448,-812.032
237.656,585.6,-780.312,0.84,-2.87,1.19,304.512,632.448,-804.224
239.12,588.528,-780.8,1.12,-2.94,1.12,288.896,601.216,-812.032
238.632,590.48,-781.776,1.26,-2.94,1.19,257.664,655.872,-827.648
238.632,592.92,-783.24,1.4,-3.01,1.19,257.664,640.256,-812.032
237.656,595.36,-782.752,1.4,-2.87,1.19,281.088,632.448,-804.224
238.632,595.36,-780.312,1.26,-2.73,1.26,242.048,648.064,-812.032
237.656,596.824,-775.92,1.12,-2.8,1.26,265.472,648.064,-812.032
236.68,597.8,-771.04,0.84,-2.87,1.33,273.28,648.064,-780.8
235.216,593.896,-766.16,0.63,-3.01,1.19,288.896,640.256,-788.608
236.192,591.944,-763.232,0.28,-3.08,1.19,296.704,648.064,-804.224
236.68,589.016,-761.768,0.0,-3.15,1.12,257.664,632.448,-796.416
236.192,586.576,-762.744,-0.21,-3.29,1.12,265.472,655.872,-772.992
238.632,584.624,-764.696,-0.42,-3.43,1.12,273.28,624.64,-796.416
238.144,581.696,-767.136,-0.63,-3.43,1.19,257.664,616.832,-796.416
239.608,578.768,-769.088,-0.7,-3.5,1.19,257.664,624.64,-827.648
239.608,576.816,-771.04,-0.77,-3.57,1.05,296.704,616.832,-812.032
240.584,573.888,-771.528,-0.84,-3.5,0.98,257.664,616.832,-812.032
238.144,573.888,-772.016,-0.98,-3.5,0.77,242.048,640.256,-780.8
237.168,574.864,-772.016,-0.98,-3.43,0.63,265.472,624.64,-804.224
237.656,576.328,-772.016,-1.12,-3.5,0.56,273.28,616.832,-796.416
236.192,579.744,-772.992,-1.33,-3.57,0.42,249.856,609.024,-804.224
236.68,584.136,-773.968,-1.33,-3.78,0.35,257.664,624.64,-819.84
235.216,587.552,-778.36,-1.4,-3.85,0.28,273.28,624.64,-796.416
238.144,592.432,-783.24,-1.54,-3.92,0.35,257.664,640.256,-819.84
238.632,595.848,-786.656,-1.47,-4.06,0.42,273.28,632.448,-827.648
242.048,598.776,-786.656,-1.47,-3.99,0.42,265.472,648.064,-843.264
244.0,599.264,-783.728,-1.54,-3.99,0.63,288.896,640.256,-812.032
244.488,597.312,-780.8,-1.61,-3.92,0.7,265.472,640.256,-819.84
244.0,594.872,-780.312,-1.82,-3.99,0.84,273.28,655.872,-796.416
243.024,592.92,-777.384,-2.1,-3.85,0.98,257.664,655.872,-819.84
242.536,588.528,-776.408,-2.31,-3.92,0.98,265.472,640.256,-819.84
240.096,584.624,-776.408,-2.66,-4.06,0.91,273.28,624.64,-804.224
241.56,580.232,-775.92,-2.94,-4.06,0.84,288.896,609.024,-804.224
239.12,575.352,-776.408,-3.15,-4.13,0.7,273.28,601.216,-812.032
238.632,573.4,-777.872,-3.22,-4.13,0.49,288.896,601.216,-819.84
237.168,571.448,-773.968,-3.08,-4.27,0.42,249.856,632.448,-812.032
235.216,569.984,-774.944,-3.08,-4.34,0.35,265.472,609.024,-772.992
234.24,567.544,-771.528,-3.01,-4.34,0.35,273.28,609.024,-804.224
233.752,564.616,-771.04,-2.87,-4.41,0.35,273.28,609.024,-788.608
233.752,562.176,-770.064,-2.87,-4.55,0.35,265.472,601.216,-796.416
232.288,558.272,-772.992,-2.73,-4.41,0.35,265.472,585.6,-804.224
230.336,555.344,-773.48,-2.45,-4.55,0.49,281.088,616.832,-804.224
230.336,553.88,-773.968,-2.03,-4.55,0.56,265.472,609.024,-819.84
230.824,552.416,-776.408,-1.68,-4.69,0.49,265.472,601.216,-819.84
230.824,553.88,-775.92,-1.4,-4.76,0.49,257.664,601.216,-796.416
231.312,554.856,-775.92,-1.12,-4.76,0.35,249.856,609.024,-819.84
232.288,557.296,-775.432,-0.63,-4.97,0.21,249.856,585.6,-812.032
234.728,563.152,-774.944,-0.42,-5.04,0.14,257.664,609.024,-812.032
234.728,568.032,-773.48,-0.21,-5.11,-0.14,257.664,616.832,-796.416
236.68,574.376,-770.552,0.14,-5.11,-0.21,265.472,609.024,-827.648
237.656,583.16,-765.672,0.35,-5.25,-0.35,257.664,624.64,-796.416
240.096,589.504,-760.304,0.63,-5.39,-0.21,242.048,648.064,-804.224
239.608,593.408,-754.448,0.63,-5.46,0.07,273.28,632.448,-796.416
240.096,598.288,-748.104,0.63,-5.46,0.28,265.472,632.448,-780.8
241.072,600.24,-745.664,0.49,-5.46,0.7,249.856,632.448,-765.184
239.12,600.728,-743.224,0.35,-5.6,0.91,304.512,640.256,-772.992
238.144,599.264,-744.688,0.0,-5.67,1.12,273.28,648.064,-772.992
236.192,599.752,-747.128,-0.21,-5.74,1.19,288.896,632.448,-772.992
235.216,600.24,-750.056,-0.56,-5.81,1.47,257.664,640.256,-772.992
234.24,597.8,-753.96,-0.63,-5.88,1.61,265.472,640.256,-812.032
233.752,595.36,-756.888,-0.84,-5.95,1.89,249.856,624.64,-804.224
234.728,592.432,-759.816,-0.98,-6.09,2.03,288.896,648.064,-788.608
234.728,588.528,-758.352,-1.05,-6.16,2.17,273.28,655.872,-796.416
235.704,585.112,-760.792,-1.19,-6.16,2.24,257.664,632.448,-796.416
234.728,582.672,-760.792,-1.33,-6.3,2.1,273.28,640.256,-772.992
237.168,578.768,-760.792,-1.54,-6.37,2.1,257.664,624.64,-780.8
236.68,575.352,-764.208,-1.54,-6.3,1.89,265.472,632.448,-765.184
238.632,572.912,-767.624,-1.75,-6.37,1.82,265.472,624.64,-796.416
239.12,572.424,-771.04,-1.82,-6.44,1.68,249.856,624.64,-796.416
242.048,571.448,-773.968,-1.75,-6.23,1.61,265.472,609.024,-796.416
242.536,573.4,-777.872,-1.68,-6.37,1.54,242.048,609.024,-812.032
244.0,576.328,-780.312,-1.54,-6.16,1.54,304.512,632.448,-812.032
245.464,578.28,-782.752,-1.33,-6.16,1.54,249.856,624.64,-796.416
245.464,580.232,-781.776,-1.19,-5.95,1.61,249.856,624.64,-827.648
245.952,583.16,-782.752,-1.12,-5.95,1.68,288.896,632.448,-804.224
244.976,585.112,-780.8,-0.98,-5.95,1.75,281.088,624.64,-804.224
245.464,586.088,-777.384,-0.84,-5.74,1.89,288.896,648.064,-804.224
245.464,587.064,-778.36,-0.7,-5.81,1.96,273.28,624.64,-819.84
246.928,586.576,-780.312,-0.56,-5.74,2.1,296.704,632.448,-812.032
247.416,585.6,-783.24,-0.42,-5.6,2.24,281.088,648.064,-804.224
247.416,584.136,-783.24,-0.35,-5.46,2.24,296.704,640.256,-843.264
248.392,583.648,-783.24,-0.28,-5.39,2.38,304.512,632.448,-812.032
250.344,580.232,-781.776,-0.07,-5.32,2.38,257.664,624.64,-819.84
249.856,577.304,-780.8,0.07,-5.32,2.45,288.896,609.024,-812.032
248.392,572.912,-777.872,0.0,-5.18,2.45,265.472,609.024,-819.84
246.928,567.544,-775.432,0.07,-5.04,2.38,281.088,624.64,-819.84
245.464,566.08,-773.48,0.07,-5.04,2.38,257.664,624.64,-780.8
243.512,564.616,-772.504,0.14,-5.04,2.31,257.664,632.448,-812.032
242.536,563.152,-772.504,0.0,-5.11,2.17,273.28,616.832,-796.416
243.024,563.64,-776.408,0.14,-5.18,2.03,273.28,609.024,-812.032
242.536,564.128,-778.848,0.07,-5.18,1.89,273.28,609.024,-819.84
244.0,565.592,-780.8,0.0,-5.18,1.82,288.896,632.448,-827.648
245.952,566.568,-783.24,-0.07,-5.18,1.68,257.664,616.832,-819.84
246.44,567.056,-784.704,-0.21,-5.18,1.61,273.28,616.832,-812.032
247.904,570.96,-783.24,-0.28,-5.04,1.68,281.088,609.024,-819.84
247.416,573.4,-785.192,-0.35,-4.9,1.68,281.088,632.448,-827.648
247.416,575.84,-784.704,-0.35,-4.83,1.61,273.28,616.832,-819.84
247.416,574.864,-780.312,-0.49,-4.83,1.61,288.896,601.216,-804.224
246.44,578.28,-778.36,-0.77,-4.83,1.68,265.472,609.024,-804.224
247.904,576.816,-776.896,-0.98,-4.69,1.61,288.896,632.448,-804.224
245.952,575.352,-773.48,-1.12,-4.69,1.61,265.472,616.832,-819.84
246.928,574.376,-771.528,-1.4,-4.69,1.54,265.472,609.024,-819.84
245.952,574.864,-768.112,-1.54,-4.62,1.47,249.856,624.64,-827.648
245.952,576.328,-768.112,-1.75,-4.62,1.33,265.472,640.256,-788.608
244.976,575.84,-764.208,-1.96,-4.55,1.19,242.048,624.64,-788.608
244.0,578.768,-761.768,-2.03,-4.62,0.98,257.664,609.024,-780.8
242.536,579.256,-760.792,-2.24,-4.62,0.91,265.472,624.64,-812.032
239.608,579.744,-759.328,-2.38,-4.62,0.84,265.472,624.64,-812.032
238.144,582.672,-760.304,-2.38,-4.62,0.7,265.472,624.64,-780.8
237.656,585.6,-763.232,-2.24,-4.55,0.7,273.28,655.872,-788.608
237.168,585.6,-767.624,-2.03,-4.62,0.7,281.088,632.448,-796.416
235.216,585.6,-766.16,-1.75,-4.69,0.91,257.664,624.64,-796.416
234.728,584.136,-767.136,-1.54,-4.76,1.05,273.28,640.256,-812.032
233.752,582.184,-768.112,-1.33,-4.62,1.26,257.664,655.872,-796.416
232.288,582.184,-766.16,-1.26,-4.62,1.4,273.28,624.64,-796.416
229.36,579.744,-765.184,-1.12,-4.62,1.4,242.048,609.024,-796.416
225.944,578.28,-765.672,-0.98,-4.55,1.26,257.664,632.448,-788.608
224.968,577.792,-765.672,-1.05,-4.55,1.33,234.24,663.68,-796.416
222.04,576.816,-770.064,-1.12,-4.55,1.26,257.664,624.64,-812.032
222.04,578.28,-775.92,-1.12,-4.69,1.12,242.048,624.64,-796.416
223.016,578.768,-778.36,-1.05,-4.69,1.19,265.472,648.064,-804.224
222.528,578.28,-782.264,-0.84,-4.83,1.19,265.472,616.832,-819.84
223.992,578.28,-782.264,-0.7,-4.69,1.26,242.048,616.832,-819.84
224.968,578.768,-786.656,-0.49,-4.83,1.19,257.664,616.832,-804.224
226.92,580.232,-787.144,-0.49,-4.69,1.26,288.896,616.832,-812.032
226.432,582.184,-789.096,-0.28,-4.69,1.33,249.856,648.064,-819.84
229.848,580.232,-790.56,-0.14,-4.69,1.47,265.472,593.408,-804.224
229.36,579.256,-792.512,0.0,-4.69,1.47,273.28,624.64,-827.648
229.848,577.792,-792.024,0.07,-4.62,1.68,273.28,616.832,-819.84
232.288,577.304,-790.56,0.14,-4.69,1.68,281.088,616.832,-819.84
231.312,575.84,-791.048,0.35,-4.55,1.68,265.472,609.024,-804.224
230.336,573.888,-791.048,0.42,-4.48,1.68,265.472,640.256,-827.648
231.312,571.936,-787.632,0.49,-4.62,1.54,242.048,624.64,-804.224
229.848,569.984,-786.656,0.63,-4.48,1.54,265.472,609.024,-819.84
229.848,569.008,-786.168,0.7,-4.62,1.54,273.28,648.064,-804.224
229.36,568.52,-787.144,0.77,-4.69,1.4,234.24,632.448,-812.032
228.384,566.568,-785.68,0.84,-4.62,1.47,265.472,616.832,-819.84
229.36,566.568,-783.24,0.84,-4.62,1.33,249.856,593.408,-804.224
228.872,568.032,-782.752,0.84,-4.69,1.33,257.664,601.216,-835.456
229.848,567.056,-783.728,0.98,-4.76,1.33,265.472,616.832,-804.224
231.8,566.08,-782.752,0.91,-4.76,1.4,265.472,616.832,-819.84
230.336,565.592,-781.776,1.05,-4.69,1.33,265.472,616.832,-796.416
230.336,564.128,-776.408,1.05,-4.62,1.54,273.28,624.64,-804.224
231.312,564.128,-774.944,0.91,-4.62,1.47,265.472,593.408,-804.224
231.312,563.152,-771.528,0.7,-4.69,1.47,257.664,609.024,-804.224
230.336,563.64,-769.576,0.56,-4.76,1.26,249.856,624.64,-804.224
229.848,564.128,-765.672,0.21,-4.69,1.12,265.472,624.64,-804.224
227.408,564.128,-764.208,0.14,-4.76,0.91,265.472,616.832,-804.224
224.968,565.104,-762.256,0.0,-4.9,0.84,234.24,609.024,-796.416
224.968,567.056,-760.304,-0.14,-5.04,0.63,265.472,609.024,-788.608
222.528,568.52,-758.84,-0.07,-5.04,0.7,265.472,585.6,-804.224
223.504,569.496,-760.792,-0.14,-5.25,0.63,249.856,632.448,-788.608
223.016,569.496,-765.184,-0.28,-5.39,0.7,273.28,609.024,-812.032
222.528,569.984,-768.6,-0.07,-5.46,0.7,249.856,601.216,-819.84
221.552,568.032,-771.528,-0.14,-5.53,0.7,242.048,585.6,-796.416
221.552,568.032,-774.944,-0.07,-5.53,0.7,234.24,632.448,-804.224
221.064,567.544,-775.92,0.07,-5.46,0.7,249.856,609.024,-812.032
221.552,567.544,-773.48,0.0,-5.46,0.7,226.432,616.832,-796.416
221.064,568.032,-774.456,0.21,-5.6,0.63,249.856,593.408,-796.416
220.088,567.056,-772.504,0.21,-5.67,0.49,242.048,616.832,-788.608
219.6,569.008,-771.04,0.42,-5.81,0.42,242.048,609.024,-812.032
219.112,570.96,-773.48,0.56,-5.81,0.42,234.24,616.832,-819.84
218.624,573.4,-776.408,0.84,-6.02,0.28,234.24,640.256,-796.416
219.112,574.864,-777.872,1.05,-5.95,0.28,257.664,616.832,-796.416
220.088,577.304,-780.312,1.26,-6.02,0.14,249.856,624.64,-819.84
222.04,577.304,-783.728,1.4,-6.16,0.28,257.664,655.872,-827.648
224.48,580.232,-786.168,1.54,-6.16,0.21,242.048,585.6,-796.416
225.456,582.672,-788.12,1.75,-6.02,0.35,242.048,648.064,-796.416
226.92,584.624,-788.12,1.75,-6.09,0.42,288.896,648.064,-835.456
227.896,585.6,-788.12,1.82,-5.88,0.49,288.896,632.448,-812.032
228.384,586.576,-790.072,1.82,-5.81,0.56,257.664,663.68,-788.608
227.408,587.552,-791.536,1.96,-5.88,0.7,242.048,648.064,-804.224
229.848,587.064,-793.976,1.96,-5.81,0.84,249.856,655.872,-835.456
229.848,588.04,-796.416,2.17,-5.74,0.84,265.472,616.832,-819.84
229.36,586.576,-798.368,2.31,-5.6,0.98,242.048,632.448,-827.648
231.312,587.552,-800.808,2.52,-5.6,1.12,265.472,632.448,-827.648
231.8,587.064,-802.76,2.59,-5.32,1.12,249.856,616.832,-827.648
231.8,586.088,-803.248,2.87,-5.18,1.33,242.048,640.256,-874.496
233.752,585.112,-803.248,2.87,-4.97,1.33,265.472,632.448,-843.264
232.776,582.672,-803.248,2.94,-4.9,1.4,249.856,648.064,-843.264
230.336,580.72,-803.248,2.87,-4.76,1.33,265.472,640.256,-819.84
230.336,580.72,-801.784,3.01,-4.55,1.4,257.664,632.448,-835.456
230.336,579.744,-802.272,3.01,-4.55,1.26,257.664,601.216,-827.648
229.848,581.696,-800.32,3.01,-4.48,1.26,249.856,624.64,-843.264
229.36,580.72,-800.32,2.87,-4.34,1.19,265.472,640.256,-827.648
230.336,583.648,-798.368,2.87,-4.34,1.19,257.664,616.832,-835.456
230.336,585.6,-798.368,2.8,-4.34,1.19,281.088,640.256,-835.456
232.288,587.064,-797.88,2.73,-4.27,1.19,242.048,655.872,-812.032
232.288,590.968,-796.904,2.59,-4.13,1.12,304.512,648.064,-812.032
233.752,592.92,-795.44,2.52,-4.06,1.26,249.856,655.872,-843.264
233.752,592.92,-795.44,2.31,-3.99,1.33,257.664,616.832,-835.456
234.24,593.896,-794.952,2.1,-3.85,1.19,257.664,640.256,-827.648
233.752,591.944,-793.976,1.96,-3.57,1.4,257.664,655.872,-827.648
232.776,591.944,-792.024,1.61,-3.5,1.4,249.856,624.64,-835.456
232.776,590.968,-789.584,1.26,-3.43,1.54,273.28,624.64,-827.648
233.264,588.528,-790.56,0.84,-3.29,1.33,257.664,640.256,-812.032
231.312,587.552,-790.56,0.56,-3.22,1.47,257.664,648.064,-804.224
230.336,585.112,-789.584,0.28,-3.01,1.54,273.28,624.64,-819.84
228.384,583.648,-788.608,0.14,-2.94,1.54,265.472,593.408,-835.456
226.432,581.208,-784.216,0.07,-2.94,1.54,249.856,632.448,-804.224
225.944,579.256,-783.728,0.0,-2.87,1.54,249.856,616.832,-819.84
226.92,579.744,-782.752,-0.14,-2.73,1.61,249.856,640.256,-819.84
224.48,580.232,-782.264,-0.07,-2.8,1.54,273.28,640.256,-819.84
224.968,580.232,-780.312,-0.14,-2.87,1.54,265.472,616.832,-819.84
225.456,579.256,-779.824,-0.14,-2.87,1.47,249.856,616.832,-812.032
225.944,579.744,-780.8,-0.21,-2.87,1.4,249.856,624.64,-812.032
226.92,582.184,-780.312,-0.14,-2.8,1.4,273.28,632.448,-796.416
228.384,583.648,-779.336,-0.14,-2.8,1.33,281.088,624.64,-788.608
228.384,587.552,-779.824,-0.14,-2.66,1.33,265.472,632.448,-812.032
228.384,591.456,-779.824,-0.14,-2.59,1.33,249.856,640.256,-804.224
228.872,592.92,-780.8,-0.07,-2.52,1.33,257.664,632.448,-819.84
230.336,595.36,-782.264,-0.07,-2.52,1.47,296.704,655.872,-804.224
230.336,596.824,-785.68,-0.07,-2.45,1.61,249.856,640.256,-812.032
230.336,598.288,-787.632,-0.07,-2.45,1.89,265.472,632.448,-819.84
231.312,597.312,-789.096,-0.14,-2.31,1.96,273.28,655.872,-827.648
230.824,596.824,-790.072,-0.07,-2.17,2.1,273.28,648.064,-819.84
230.824,594.872,-792.024,-0.28,-2.17,2.17,265.472,632.448,-827.648
233.264,593.896,-790.56,-0.35,-2.17,2.24,257.664,663.68,-835.456
232.776,592.92,-792.024,-0.56,-2.24,2.17,281.088,648.064,-819.84
233.264,591.944,-792.024,-0.77,-2.17,2.17,257.664,640.256,-827.648
235.216,590.968,-790.072,-0.91,-2.1,2.03,273.28,655.872,-812.032
234.24,590.48,-791.048,-1.05,-2.17,1.96,249.856,640.256,-835.456
232.288,590.968,-788.12,-1.26,-2.1,1.89,265.472,663.68,-812.032
233.264,591.456,-789.096,-1.33,-2.1,1.89,265.472,624.64,-827.648
233.752,590.968,-788.608,-1.54,-2.1,1.89,265.472,648.064,-819.84
233.264,590.48,-787.144,-1.47,-2.1,1.96,249.856,640.256,-835.456
233.264,590.968,-788.12,-1.61,-2.1,2.03,265.472,640.256,-819.84
232.776,591.944,-787.632,-1.82,-2.1,2.1,273.28,648.064,-812.032
232.288,590.968,-785.68,-1.75,-2.1,2.03,249.856,655.872,-804.224
232.776,591.944,-783.24,-1.89,-2.1,2.03,249.856,632.448,-796.416
231.312,593.408,-783.728,-2.1,-2.03,1.96,249.856,632.448,-827.648
231.312,595.848,-783.728,-2.24,-1.96,1.96,265.472,632.448,-819.84
230.336,597.312,-782.752,-2.38,-1.89,1.82,281.088,648.064,-804.224
229.36,597.8,-779.824,-2.38,-1.82,2.03,265.472,655.872,-835.456
228.872,597.8,-775.92,-2.45,-1.89,2.1,281.088,671.488,-812.032
227.896,598.288,-774.944,-2.38,-1.89,2.24,265.472,679.296,-796.416
228.384,597.8,-773.48,-2.38,-1.89,2.45,273.28,663.68,-804.224
226.92,595.848,-774.456,-2.31,-1.96,2.52,257.664,648.064,-804.224
228.384,594.384,-774.944,-2.24,-1.89,2.66,249.856,624.64,-819.84
229.36,591.944,-777.384,-2.17,-2.03,2.59,257.664,655.872,-812.032
229.36,589.016,-779.336,-2.1,-1.89,2.66,242.048,632.448,-827.648
229.848,586.576,-779.336,-1.82,-1.82,2.66,257.664,640.256,-819.84
229.36,584.624,-781.288,-1.47,-1.61,2.66,242.048,640.256,-819.84
228.384,580.72,-782.264,-1.26,-1.54,2.8,281.088,655.872,-827.648
227.896,580.232,-784.216,-0.98,-1.47,2.94,249.856,640.256,-812.032
227.896,575.84,-781.776,-0.63,-1.33,3.08,249.856,632.448,-812.032
225.944,572.912,-782.264,-0.42,-1.33,3.08,265.472,632.448,-804.224
225.944,573.4,-782.752,0.0,-1.26,3.22,234.24,624.64,-804.224
224.48,572.912,-785.68,0.21,-1.26,3.22,242.048,616.832,-827.648
224.48,571.936,-786.168,0.49,-1.26,3.22,242.048,601.216,-827.648
225.456,574.376,-789.584,0.77,-1.26,3.22,249.856,632.448,-835.456
226.92,574.376,-788.608,0.84,-1.19,3.22,257.664,632.448,-819.84
228.872,577.304,-789.584,0.98,-1.12,3.29,273.28,648.064,-819.84
229.36,578.768,-789.584,0.98,-1.05,3.22,257.664,609.024,-827.648
229.36,582.672,-789.096,0.91,-0.91,3.29,234.24,640.256,-819.84
228.384,584.624,-786.168,0.98,-0.84,3.29,257.664,632.448,-804.224
226.92,585.6,-783.728,1.05,-0.7,3.29,281.088,640.256,-804.224
226.432,587.064,-780.8,1.05,-0.7,3.43,242.048,632.448,-812.032
224.968,587.552,-781.776,0.98,-0.7,3.5,249.856,624.64,-812.032
226.432,588.04,-780.312,0.84,-0.77,3.5,265.472,679.296,-819.84
227.408,588.04,-779.824,0.77,-0.84,3.43,249.856,632.448,-819.84
228.384,588.04,-781.776,0.49,-0.77,3.43,257.664,632.448,-835.456
230.336,588.04,-783.728,0.28,-0.77,3.36,249.856,640.256,-827.648
230.824,588.528,-786.168,0.07,-0.7,3.29,257.664,648.064,-812.032
230.336,588.04,-785.192,-0.14,-0.63,3.22,265.472,632.448,-827.648
230.336,590.48,-785.192,-0.28,-0.56,3.15,249.856,648.064,-819.84
229.36,589.992,-786.656,-0.49,-0.35,3.15,265.472,655.872,-796.416
227.896,590.968,-787.144,-0.7,-0.35,3.08,257.664,624.64,-819.84
226.92,592.432,-785.68,-0.77,-0.42,3.08,265.472,640.256,-835.456
227.896,591.944,-789.584,-1.05,-0.42,3.08,288.896,616.832,-804.224
226.92,592.92,-792.024,-1.12,-0.42,3.22,249.856,640.256,-804.224
226.432,594.872,-792.512,-1.33,-0.35,3.29,257.664,648.064,-819.84
228.872,594.872,-791.048,-1.4,-0.28,3.36,281.088,648.064,-812.032
228.872,594.384,-790.56,-1.47,-0.35,3.43,265.472,679.296,-812.032
228.384,592.92,-791.536,-1.54,-0.28,3.43,257.664,632.448,-812.032
229.36,593.408,-790.56,-1.68,-0.21,3.5,273.28,648.064,-835.456
227.408,593.896,-792.024,-1.82,-0.14,3.57,265.472,624.64,-835.456
229.36,591.456,-790.56,-1.96,-0.07,3.5,242.048,624.64,-835.456
228.384,591.456,-791.536,-2.17,-0.07,3.57,265.472,648.064,-796.416
227.896,589.992,-789.584,-2.45,-0.07,3.57,265.472,640.256,-804.224
227.896,589.992,-789.584,-2.59,0.0,3.5,249.856,655.872,-804.224
228.384,590.968,-786.168,-2.8,0.0,3.64,242.048,624.64,-827.648
226.92,591.456,-784.216,-2.87,0.07,3.57,273.28,616.832,-835.456
226.92,590.968,-780.312,-3.08,-0.07,3.64,273.28,640.256,-804.224
226.432,591.944,-775.432,-3.36,-0.07,3.64,234.24,640.256,-804.224
226.432,591.456,-775.432,-3.57,-0.07,3.71,257.664,616.832,-804.224
226.92,590.48,-772.992,-3.78,-0.14,3.71,257.664,648.064,-788.608
227.896,589.016,-772.504,-3.85,-0.21,3.78,218.624,624.64,-788.608
225.944,589.016,-773.48,-4.06,-0.14,3.78,242.048,640.256,-788.608
225.944,587.064,-771.04,-4.2,-0.21,3.78,249.856,624.64,-804.224
225.944,583.648,-768.6,-4.41,-0.35,3.85,257.664,624.64,-819.84
226.432,580.72,-771.04,-4.48,-0.42,3.78,265.472,632.448,-804.224
227.896,577.792,-768.6,-4.69,-0.42,3.85,242.048,632.448,-812.032
228.384,576.328,-772.016,-4.83,-0.56,3.85,281.088,616.832,-804.224
229.848,573.888,-771.04,-4.97,-0.63,3.64,249.856,632.448,-788.608
229.848,570.96,-769.088,-5.11,-0.56,3.57,242.048,616.832,-812.032
228.872,570.472,-771.04,-5.11,-0.63,3.5,257.664,640.256,-788.608
230.336,569.984,-770.552,-5.04,-0.7,3.43,281.088,609.024,-780.8
229.848,568.52,-769.576,-4.9,-0.77,3.36,265.472,655.872,-804.224
229.36,568.032,-770.552,-4.69,-0.77,3.29,249.856,632.448,-788.608
229.848,567.056,-770.552,-4.55,-0.84,3.22,249.856,601.216,-804.224
228.384,566.568,-774.456,-4.34,-0.77,3.22,265.472,601.216,-804.224
228.384,566.08,-776.896,-4.2,-0.91,3.15,288.896,616.832,-804.224
230.336,567.056,-779.336,-3.92,-0.77,3.15,242.048,601.216,-827.648
229.848,566.08,-783.24,-3.64,-0.63,3.15,249.856,609.024,-819.84
228.384,564.616,-783.728,-3.29,-0.63,3.08,273.28,624.64,-812.032
229.36,564.616,-785.68,-2.94,-0.63,3.15,265.472,609.024,-796.416
228.872,564.128,-784.216,-2.52,-0.63,3.08,265.472,616.832,-804.224
229.848,564.128,-781.776,-2.24,-0.63,3.01,242.048,601.216,-827.648
230.824,563.64,-778.36,-1.89,-0.63,2.87,265.472,609.024,-827.648
229.848,562.664,-778.36,-1.68,-0.7,2.8,257.664,632.448,-819.84
229.36,565.592,-780.8,-1.26,-0.7,2.66,249.856,632.448,-827.648
229.36,565.104,-779.336,-0.98,-0.77,2.52,273.28,601.216,-819.84
230.336,567.544,-778.848,-0.77,-0.84,2.45,257.664,632.448,-796.416
230.336,569.984,-778.848,-0.49,-0.77,2.45,234.24,616.832,-819.84
228.872,570.96,-777.384,-0.14,-0.84,2.24,265.472,616.832,-812.032
229.848,572.912,-775.92,0.07,-0.84,2.31,249.856,624.64,-796.416
229.36,574.864,-775.92,0.28,-0.84,2.31,273.28,624.64,-804.224
229.36,575.352,-774.456,0.49,-0.84,2.31,218.624,601.216,-796.416
229.36,577.304,-774.944,0.49,-0.91,2.17,265.472,655.872,-780.8
228.384,581.208,-778.36,0.7,-0.98,2.17,249.856,640.256,-827.648
229.36,582.184,-781.288,0.7,-0.91,2.17,242.048,640.256,-827.648
230.336,582.672,-786.656,0.77,-0.98,2.1,265.472,632.448,-827.648
229.36,583.648,-793.488,0.7,-1.05,2.1,273.28,640.256,-812.032
230.336,584.136,-797.88,0.49,-0.98,2.17,273.28,663.68,-819.84
232.288,585.6,-804.224,0.49,-0.98,2.03,296.704,640.256,-819.84
235.216,586.088,-807.64,0.21,-0.84,1.96,249.856,632.448,-851.072
236.68,589.504,-810.08,0.0,-0.84,1.96,257.664,648.064,-843.264
235.704,592.432,-804.224,-0.28,-0.7,1.96,249.856,655.872,-827.648
235.704,592.92,-800.32,-0.49,-0.63,1.82,288.896,640.256,-835.456
235.704,595.848,-793.0,-0.77,-0.77,1.89,257.664,640.256,-835.456
235.216,597.8,-788.608,-1.05,-0.63,1.82,265.472,655.872,-843.264
233.752,596.336,-783.24,-1.4,-0.56,1.82,257.664,648.064,-827.648
233.264,597.312,-778.848,-1.68,-0.56,1.89,281.088,632.448,-804.224
232.776,595.36,-776.408,-1.96,-0.56,1.82,265.472,648.064,-812.032
231.8,593.408,-773.968,-2.17,-0.56,1.96,265.472,632.448,-796.416
232.776,591.456,-772.504,-2.38,-0.49,1.89,281.088,640.256,-812.032
233.752,586.088,-771.04,-2.52,-0.56,1.89,265.472,632.448,-804.224
233.752,582.672,-771.04,-2.59,-0.49,1.82,257.664,640.256,-796.416
230.824,580.232,-771.528,-2.94,-0.56,1.75,257.664,616.832,-812.032
228.872,578.28,-773.968,-3.01,-0.56,1.68,257.664,609.024,-780.8
227.408,574.864,-772.992,-3.22,-0.42,1.54,242.048,616.832,-812.032
226.92,575.84,-773.968,-3.36,-0.42,1.4,242.048,632.448,-804.224
225.456,577.304,-776.408,-3.43,-0.28,1.4,242.048,632.448,-812.032
223.992,578.28,-773.968,-3.43,-0.28,1.4,226.432,624.64,-804.224
223.504,578.768,-773.968,-3.43,-0.42,1.47,273.28,616.832,-819.84
223.016,580.72,-772.992,-3.5,-0.28,1.4,265.472,632.448,-780.8
223.992,581.208,-771.528,-3.64,-0.28,1.33,226.432,616.832,-812.032
224.968,579.744,-770.552,-3.71,-0.35,1.33,249.856,624.64,-796.416
225.456,581.696,-769.576,-3.92,-0.35,1.4,249.856,616.832,-804.224
224.968,580.232,-770.064,-4.2,-0.35,1.4,257.664,640.256,-796.416
223.504,581.696,-771.528,-4.27,-0.28,1.26,281.088,624.64,-780.8
223.016,581.696,-773.48,-4.69,-0.28,1.12,249.856,609.024,-819.84
225.456,581.696,-772.016,-4.76,-0.21,1.12,265.472,640.256,-812.032
226.432,582.672,-774.456,-4.9,-0.28,1.12,273.28,632.448,-819.84
223.992,583.648,-775.92,-4.97,-0.28,1.12,257.664,640.256,-804.224
225.456,583.648,-774.456,-4.83,-0.21,1.26,242.048,663.68,-819.84
223.016,581.696,-772.992,-4.76,-0.14,1.4,234.24,593.408,-796.416
224.48,579.744,-771.528,-4.62,-0.14,1.33,265.472,648.064,-804.224
223.992,579.744,-772.504,-4.41,-0.14,1.4,249.856,624.64,-788.608
220.576,578.28,-772.992,-3.99,-0.07,1.47,257.664,632.448,-796.416
220.088,579.256,-772.016,-3.57,-0.07,1.54,249.856,648.064,-780.8
217.648,577.792,-772.992,-3.08,-0.07,1.61,273.28,632.448,-819.84
217.648,575.84,-774.456,-2.59,-0.21,1.75,257.664,624.64,-772.992
218.136,573.4,-776.408,-2.17,-0.35,1.68,218.624,624.64,-796.416
220.088,573.888,-778.36,-1.82,-0.28,1.68,249.856,632.448,-812.032
223.016,572.424,-784.216,-1.54,-0.35,1.82,242.048,632.448,-812.032
223.992,571.448,-784.216,-1.19,-0.28,1.82,249.856,624.64,-804.224
225.456,570.472,-786.656,-0.7,-0.21,1.75,265.472,609.024,-788.608
226.432,571.448,-787.632,-0.28,-0.21,1.82,257.664,624.64,-812.032
228.872,571.448,-786.168,0.14,-0.21,1.89,257.664,640.256,-819.84
229.36,572.912,-785.192,0.49,-0.28,1.89,265.472,601.216,-819.84
228.872,572.424,-782.752,0.63,-0.21,1.96,242.048,609.024,-819.84
231.312,573.4,-781.288,0.7,-0.21,1.96,265.472,632.448,-796.416
232.288,575.84,-779.824,0.77,-0.28,1.89,249.856,640.256,-819.84
230.824,576.328,-777.872,0.91,-0.28,1.89,265.472,632.448,-812.032
231.8,578.768,-776.896,0.98,-0.21,1.82,249.856,624.64,-827.648
231.8,581.208,-774.944,1.05,-0.28,1.68,265.472,624.64,-812.032
230.824,583.16,-773.48,1.05,-0.35,1.68,226.432,632.448,-796.416
231.312,584.624,-772.016,1.12,-0.42,1.61,242.048,616.832,-804.224
229.848,586.088,-770.064,1.19,-0.56,1.61,249.856,640.256,-796.416
229.36,586.576,-769.088,1.12,-0.63,1.54,257.664,632.448,-796.416
228.872,589.992,-770.552,1.05,-0.63,1.47,242.048,655.872,-780.8
228.384,591.456,-773.48,0.84,-0.84,1.47,257.664,640.256,-796.416
228.872,591.944,-775.92,0.63,-0.77,1.4,257.664,640.256,-827.648
228.872,592.432,-778.848,0.49,-0.84,1.4,257.664,624.64,-819.84
229.848,592.92,-778.848,0.28,-0.98,1.47,234.24,640.256,-827.648
230.824,593.896,-776.896,0.0,-0.98,1.47,273.28,663.68,-804.224
230.824,594.872,-778.36,-0.21,-0.98,1.54,249.856,655.872,-812.032
229.36,592.92,-778.36,-0.56,-1.05,1.54,257.664,632.448,-812.032
229.36,592.432,-775.92,-0.7,-1.12,1.61,257.664,616.832,-780.8
231.8,590.48,-777.384,-0.98,-1.12,1.61,234.24,663.68,-812.032
231.312,589.992,-774.456,-1.12,-1.26,1.54,249.856,655.872,-804.224
233.264,587.552,-775.92,-1.26,-1.26,1.47,265.472,632.448,-819.84
233.752,585.6,-775.432,-1.54,-1.19,1.47,242.048,632.448,-796.416
235.216,584.136,-776.896,-1.75,-1.26,1.33,265.472,632.448,-804.224
235.704,581.696,-777.872,-1.82,-1.33,1.33,265.472,616.832,-819.84
236.68,580.232,-778.36,-1.89,-1.4,1.26,288.896,616.832,-788.608
236.68,580.232,-781.776,-1.82,-1.33,1.33,265.472,632.448,-796.416
236.68,579.744,-781.288,-1.82,-1.4,1.33,265.472,609.024,-812.032
236.68,577.304,-784.216,-1.89,-1.33,1.33,265.472,640.256,-804.224
236.68,576.328,-784.216,-1.89,-1.26,1.26,265.472,632.448,-835.456
233.752,577.304,-786.168,-1.89,-1.33,1.12,265.472,632.448,-819.84
232.776,577.792,-787.632,-1.89,-1.4,1.12,234.24,616.832,-827.648
231.8,581.208,-786.168,-1.82,-1.47,0.98,257.664,616.832,-804.224
231.312,582.672,-785.68,-1.96,-1.54,0.98,249.856,632.448,-827.648
229.36,585.6,-782.264,-1.96,-1.61,0.98,249.856,632.448,-804.224
228.872,588.04,-781.288,-1.96,-1.68,0.91,257.664,640.256,-796.416
231.312,591.456,-775.92,-2.1,-1.82,0.84,242.048,640.256,-819.84
231.8,592.92,-774.944,-2.17,-2.03,0.91,249.856,632.448,-804.224
232.288,594.872,-772.504,-2.17,-1.96,0.84,257.664,632.448,-796.416
232.776,596.336,-771.04,-2.24,-1.96,0.91,265.472,632.448,-796.416
232.776,595.36,-768.6,-2.1,-1.82,1.19,257.664,640.256,-812.032
232.776,592.92,-761.768,-2.1,-1.54,1.4,265.472,648.064,-804.224
230.824,588.528,-760.304,-1.96,-1.61,1.61,249.856,640.256,-812.032
226.92,584.136,-754.936,-1.96,-1.47,1.75,242.048,648.064,-788.608
223.992,580.232,-753.96,-1.89,-1.33,1.82,273.28,616.832,-788.608
221.064,575.84,-754.936,-1.68,-1.33,1.82,257.664,632.448,-804.224
219.6,572.424,-755.424,-1.4,-1.47,1.75,234.24,624.64,-788.608
219.112,570.472,-755.912,-1.26,-1.61,1.54,226.432,601.216,-788.608
219.112,568.52,-760.792,-1.12,-1.68,1.4,249.856,609.024,-804.224
220.088,569.008,-764.696,-0.91,-1.82,1.4,265.472,632.448,-796.416
223.016,569.496,-771.04,-0.7,-1.75,1.26,249.856,616.832,-796.416
225.944,572.424,-774.944,-0.49,-1.68,1.26,288.896,632.448,-788.608
225.944,574.864,-775.432,-0.42,-1.61,1.26,242.048,640.256,-812.032
227.896,578.28,-777.872,-0.28,-1.54,1.19,249.856,632.448,-827.648
230.336,580.232,-779.336,-0.14,-1.4,1.12,257.664,640.256,-819.84
230.824,582.184,-781.288,-0.07,-1.54,1.19,257.664,648.064,-819.84
231.8,584.624,-779.824,0.0,-1.26,1.12,265.472,632.448,-827.648
230.336,586.088,-781.776,0.0,-1.26,1.05,265.472,624.64,-812.032
231.8,589.504,-784.216,0.0,-1.26,1.05,273.28,655.872,-796.416
232.776,590.968,-782.264,0.0,-1.26,0.98,249.856,648.064,-804.224
232.288,593.896,-786.168,0.14,-1.33,0.98,257.664,632.448,-812.032
233.264,595.36,-789.096,0.14,-1.33,0.98,257.664,648.064,-819.84
234.24,595.848,-789.096,0.21,-1.19,1.05,257.664,640.256,-804.224
234.24,593.408,-793.0,0.21,-1.12,1.05,249.856,632.448,-819.84
234.24,594.384,-793.0,0.21,-1.05,1.12,265.472,640.256,-804.224
232.288,593.408,-791.536,0.28,-0.98,1.19,257.664,632.448,-851.072
231.8,591.456,-791.536,0.35,-0.84,1.26,249.856,632.448,-819.84
232.288,589.992,-789.584,0.35,-0.84,1.33,273.28,640.256,-819.84
231.312,589.016,-789.584,0.35,-0.84,1.26,288.896,624.64,-851.072
230.336,588.528,-789.584,0.28,-0.77,1.26,249.856,648.064,-796.416
230.336,586.088,-785.68,0.35,-0.84,1.19,242.048,624.64,-796.416
231.312,584.136,-786.168,0.21,-0.84,1.05,265.472,648.064,-796.416
232.776,583.16,-785.68,0.0,-0.84,0.98,242.048,624.64,-819.84
234.24,582.184,-783.24,-0.14,-0.84,0.91,265.472,632.448,-804.224
235.216,579.256,-781.776,-0.21,-0.84,0.84,273.28,632.448,-804.224
235.216,578.28,-780.312,-0.28,-0.7,0.84,265.472,616.832,-819.84
236.192,576.816,-776.408,-0.35,-0.7,0.84,257.664,632.448,-812.032
235.216,573.888,-777.872,-0.49,-0.56,0.77,257.664,632.448,-812.032
235.704,572.912,-773.48,-0.49,-0.56,0.7,288.896,609.024,-804.224
234.24,572.424,-771.528,-0.49,-0.49,0.63,273.28,624.64,-796.416
233.264,571.936,-772.504,-0.7,-0.56,0.49,234.24,616.832,-812.032
231.8,573.4,-768.6,-0.63,-0.42,0.42,265.472,632.448,-819.84
229.848,576.816,-767.136,-0.63,-0.56,0.35,265.472,616.832,-788.608
229.36,577.304,-767.624,-0.7,-0.56,0.21,265.472,624.64,-804.224
226.92,580.72,-768.112,-0.7,-0.56,0.21,257.664,624.64,-796.416
224.48,581.696,-769.576,-0.63,-0.63,0.28,265.472,632.448,-780.8
225.456,584.136,-769.088,-0.63,-0.7,0.28,273.28,624.64,-788.608
224.968,586.088,-771.04,-0.56,-0.7,0.28,234.24,624.64,-819.84
224.48,589.016,-770.064,-0.56,-0.77,0.35,249.856,663.68,-804.224
226.432,589.992,-772.992,-0.56,-0.7,0.42,234.24,640.256,-812.032
224.48,590.968,-773.968,-0.63,-0.7,0.35,265.472,640.256,-819.84
224.968,589.504,-775.432,-0.7,-0.7,0.49,242.048,663.68,-804.224
224.48,589.992,-774.944,-0.63,-0.77,0.42,249.856,640.256,-804.224
226.92,589.016,-774.456,-0.7,-0.7,0.49,257.664,632.448,-804.224
226.432,587.552,-773.968,-0.7,-0.7,0.42,242.048,632.448,-804.224
228.384,586.088,-773.48,-0.84,-0.77,0.42,249.856,632.448,-812.032
228.872,586.088,-774.456,-0.84,-0.63,0.42,242.048,616.832,-796.416
228.872,585.112,-772.992,-0.77,-0.56,0.56,257.664,640.256,-819.84
227.896,582.184,-772.992,-0.84,-0.49,0.56,234.24,632.448,-804.224
226.92,578.768,-773.968,-0.77,-0.56,0.56,257.664,648.064,-812.032
227.896,577.792,-772.016,-0.63,-0.63,0.49,242.048,640.256,-812.032
225.456,575.84,-772.016,-0.42,-0.7,0.42,257.664,648.064,-804.224
226.432,576.816,-775.92,-0.14,-0.7,0.49,273.28,616.832,-812.032
225.456,573.4,-783.24,0.14,-0.77,0.35,249.856,632.448,-819.84
225.944,573.4,-787.144,0.28,-0.84,0.35,257.664,624.64,-812.032
229.848,573.4,-791.048,0.56,-0.98,0.42,265.472,632.448,-819.84
230.824,574.376,-793.976,0.7,-0.98,0.35,249.856,632.448,-819.84
233.752,576.328,-795.928,0.98,-0.91,0.42,257.664,624.64,-827.648
235.704,577.792,-796.904,1.12,-0.91,0.49,273.28,632.448,-827.648
237.168,577.792,-795.928,1.26,-0.91,0.42,257.664,601.216,-819.84
238.144,579.744,-792.024,1.33,-0.77,0.42,273.28,640.256,-827.648
238.632,583.16,-791.536,1.4,-0.77,0.35,273.28,632.448,-812.032
238.144,584.624,-791.048,1.33,-0.77,0.35,265.472,624.64,-843.264
239.12,587.064,-786.656,1.33,-0.7,0.28,281.088,640.256,-796.416
238.144,589.016,-783.728,1.26,-0.84,0.35,257.664,609.024,-812.032
238.632,591.456,-781.288,1.26,-0.77,0.35,234.24,624.64,-812.032
238.632,591.944,-778.848,1.05,-0.84,0.42,249.856,655.872,-788.608
238.632,592.432,-774.456,0.91,-0.77,0.35,273.28,616.832,-812.032
237.656,591.456,-770.064,0.98,-0.84,0.42,257.664,640.256,-804.224
236.68,589.504,-767.624,0.84,-0.91,0.35,249.856,632.448,-796.416
235.704,588.528,-764.208,0.84,-0.98,0.49,257.664,632.448,-780.8
234.728,587.552,-763.72,0.98,-1.05,0.56,265.472,601.216,-788.608
234.24,584.136,-761.28,0.91,-1.12,0.49,273.28,640.256,-804.224
233.264,583.16,-761.768,0.98,-1.19,0.42,249.856,624.64,-804.224
232.776,580.72,-761.768,0.77,-1.19,0.35,265.472,609.024,-788.608
232.776,580.232,-760.304,0.84,-1.26,0.28,249.856,624.64,-788.608
230.336,579.744,-757.376,0.84,-1.19,0.28,257.664,632.448,-780.8
229.848,578.28,-756.4,0.91,-1.19,0.21,265.472,640.256,-788.608
230.336,581.208,-756.4,0.98,-1.33,0.21,281.088,632.448,-796.416
227.896,579.256,-756.4,0.98,-1.26,0.21,249.856,616.832,-788.608
226.432,580.72,-756.4,1.05,-1.33,0.21,234.24,624.64,-780.8
225.944,582.184,-755.424,0.98,-1.33,0.21,257.664,632.448,-788.608
225.456,583.648,-758.84,0.98,-1.33,0.07,249.856,640.256,-804.224
226.432,586.576,-762.256,1.05,-1.4,0.07,242.048,640.256,-772.992
225.944,589.504,-764.208,0.98,-1.54,0.0,249.856,640.256,-796.416
227.408,591.456,-766.648,0.98,-1.4,-0.14,265.472,616.832,-804.224
225.944,594.872,-770.064,0.91,-1.47,-0.21,257.664,632.448,-819.84
227.408,596.824,-773.968,0.77,-1.4,-0.14,249.856,632.448,-796.416
228.384,596.336,-774.944,0.77,-1.47,-0.14,242.048,640.256,-812.032
230.336,596.336,-774.456,0.84,-1.4,-0.07,273.28,616.832,-788.608
231.312,593.896,-776.896,0.84,-1.33,0.14,249.856,624.64,-796.416
233.264,592.432,-778.36,0.98,-1.26,0.28,249.856,624.64,-812.032
231.312,588.528,-777.872,1.12,-1.19,0.35,257.664,640.256,-796.416
232.776,586.576,-777.872,1.33,-1.05,0.35,265.472,640.256,-804.224
232.288,582.184,-776.896,1.54,-0.98,0.28,249.856,624.64,-796.416
231.8,578.28,-776.408,1.68,-1.05,0.21,257.664,624.64,-819.84
229.848,577.304,-774.944,1.82,-0.98,0.07,257.664,640.256,-812.032
229.36,575.84,-774.456,1.89,-0.98,-0.07,281.088,632.448,-804.224
227.408,577.304,-776.408,2.17,-1.05,-0.14,249.856,616.832,-804.224
229.848,577.792,-779.336,2.31,-1.05,-0.21,281.088,593.408,-819.84
229.848,578.28,-779.824,2.38,-1.05,-0.21,249.856,585.6,-804.224
229.848,578.28,-784.216,2.66,-1.12,-0.21,234.24,624.64,-812.032
232.288,578.768,-786.168,2.8,-1.05,-0.14,288.896,624.64,-812.032
234.728,578.28,-789.096,2.94,-1.05,-0.07,257.664,616.832,-819.84
236.68,578.28,-788.12,3.01,-1.19,-0.14,257.664,632.448,-835.456
234.728,576.328,-789.096,2.94,-1.05,-0.14,288.896,609.024,-819.84
235.704,576.816,-788.12,3.01,-0.98,-0.07,249.856,609.024,-819.84
236.68,576.328,-787.632,3.08,-0.91,-0.21,281.088,624.64,-804.224
235.216,576.328,-786.656,2.94,-1.05,-0.35,265.472,624.64,-796.416
236.192,576.328,-787.144,2.94,-1.12,-0.49,281.088,624.64,-827.648
235.216,576.816,-786.656,2.8,-1.12,-0.7,265.472,624.64,-827.648
235.216,579.256,-787.632,2.66,-1.19,-0.77,265.472,640.256,-819.84
237.656,581.208,-787.632,2.52,-1.19,-0.91,265.472,632.448,-812.032
238.632,584.624,-787.144,2.24,-1.33,-1.05,257.664,609.024,-819.84
238.632,586.088,-788.12,2.17,-1.33,-1.12,265.472,609.024,-819.84
239.12,589.504,-788.608,1.89,-1.4,-1.05,265.472,640.256,-819.84
238.632,591.456,-788.12,1.68,-1.26,-0.98,257.664,648.064,-796.416
240.096,593.408,-788.12,1.61,-1.4,-1.12,288.896,624.64,-804.224
238.632,594.384,-787.144,1.33,-1.33,-1.05,234.24,640.256,-812.032
238.632,596.824,-786.168,1.05,-1.26,-1.05,304.512,632.448,-796.416
237.656,595.36,-782.752,0.84,-1.33,-1.12,281.088,632.448,-812.032
236.68,596.824,-781.776,0.56,-1.33,-1.26,288.896,663.68,-835.456
236.192,596.336,-780.8,0.35,-1.33,-1.33,249.856,640.256,-819.84
235.216,597.312,-778.848,0.14,-1.33,-1.33,257.664,640.256,-796.416
235.704,595.848,-773.968,-0.07,-1.33,-1.47,249.856,640.256,-796.416
234.728,593.408,-772.504,-0.28,-1.26,-1.47,281.088,632.448,-812.032
233.752,589.504,-771.528,-0.35,-1.33,-1.68,273.28,624.64,-788.608
232.776,587.064,-771.04,-0.56,-1.33,-1.75,249.856,648.064,-804.224
232.776,585.6,-770.552,-0.56,-1.33,-1.89,257.664,624.64,-796.416
233.264,584.136,-769.576,-0.42,-1.33,-1.82,234.24,632.448,-812.032
232.288,581.208,-772.016,-0.21,-1.26,-1.82,265.472,616.832,-796.416
232.776,579.256,-772.504,-0.14,-1.19,-1.89,226.432,640.256,-796.416
231.8,578.28,-773.48,0.28,-1.12,-1.96,234.24,624.64,-827.648
231.312,575.84,-772.016,0.63,-1.19,-1.96,281.088,640.256,-772.992
231.8,576.328,-772.016,0.84,-1.05,-1.96,249.856,624.64,-780.8
230.824,574.376,-772.992,1.05,-0.91,-1.96,273.28,632.448,-812.032
229.848,574.376,-772.992,1.4,-0.91,-2.1,265.472,624.64,-788.608
230.336,574.376,-776.408,1.54,-0.7,-2.17,257.664,624.64,-796.416
227.408,574.376,-778.848,1.75,-0.63,-2.1,273.28,640.256,-804.224
228.384,574.864,-783.24,1.89,-0.77,-2.24,242.048,609.024,-819.84
228.872,576.328,-787.144,2.17,-0.63,-2.24,249.856,632.448,-835.456
230.336,578.768,-791.048,2.24,-0.56,-2.38,249.856,632.448,-804.224
231.312,580.72,-792.024,2.38,-0.49,-2.45,257.664,632.448,-827.648
232.288,583.16,-791.048,2.45,-0.35,-2.45,281.088,640.256,-819.84
232.776,585.112,-792.024,2.38,-0.35,-2.52,234.24,632.448,-835.456
232.776,588.528,-791.048,2.45,-0.28,-2.66,281.088,624.64,-788.608
231.8,592.432,-792.512,2.1,-0.07,-2.73,257.664,640.256,-827.648
231.312,594.872,-791.536,1.89,-0.07,-2.73,265.472,640.256,-819.84
232.288,598.776,-792.024,1.75,0.0,-2.87,257.664,632.448,-827.648
232.776,601.704,-791.536,1.4,0.14,-3.01,265.472,663.68,-827.648
232.776,602.192,-791.536,1.05,0.14,-3.01,257.664,648.064,-812.032
232.776,603.168,-793.976,0.77,0.28,-3.08,273.28,648.064,-843.264
234.728,604.144,-796.416,0.35,0.49,-3.08,257.664,671.488,-827.648
234.24,602.68,-797.88,0.0,0.56,-3.08,265.472,640.256,-819.84
234.728,600.24,-799.344,-0.21,0.63,-3.08,257.664,648.064,-843.264
233.264,599.264,-800.32,-0.56,0.77,-3.08,249.856,632.448,-827.648
229.848,595.36,-799.832,-0.7,0.77,-3.01,249.856,648.064,-827.648
228.872,591.944,-798.368,-0.98,0.84,-3.01,226.432,648.064,-827.648
225.944,587.552,-798.368,-1.12,0.84,-3.08,234.24,655.872,-835.456
223.992,585.6,-798.368,-1.19,1.05,-3.08,265.472,616.832,-835.456
222.528,585.112,-793.976,-1.4,1.05,-3.22,249.856,632.448,-812.032
222.04,583.648,-792.512,-1.47,1.05,-3.36,249.856,655.872,-819.84
222.528,584.136,-789.584,-1.47,1.05,-3.36,257.664,609.024,-827.648
221.552,585.112,-786.656,-1.4,0.98,-3.36,226.432,648.064,-819.84
220.576,586.088,-785.68,-1.47,0.91,-3.36,265.472,640.256,-827.648
220.576,587.064,-785.192,-1.54,0.91,-3.36,249.856,648.064,-819.84
221.064,588.528,-779.824,-1.47,1.05,-3.22,265.472,624.64,-804.224
221.064,589.016,-781.288,-1.47,1.05,-3.29,242.048,624.64,-827.648
220.576,589.992,-778.848,-1.47,0.98,-3.22,242.048,640.256,-788.608
219.112,592.432,-776.896,-1.61,0.98,-3.15,234.24,624.64,-827.648
220.576,590.968,-774.456,-1.68,1.05,-3.15,265.472,616.832,-812.032
220.576,590.968,-773.48,-1.68,1.05,-3.15,242.048,632.448,-796.416
219.112,590.968,-774.456,-1.82,0.98,-3.08,242.048,648.064,-796.416
219.6,591.944,-773.968,-1.89,1.05,-3.08,242.048,655.872,-819.84
220.088,591.944,-774.456,-1.89,1.05,-3.01,265.472,648.064,-796.416
221.064,591.456,-776.896,-2.03,0.98,-2.8,242.048,648.064,-804.224
218.624,590.48,-775.92,-1.96,1.05,-2.73,249.856,663.68,-796.416
219.6,590.48,-777.872,-1.96,0.98,-2.66,249.856,640.256,-804.224
218.624,589.016,-778.848,-1.89,0.98,-2.52,249.856,655.872,-804.224
218.136,589.504,-779.824,-1.82,1.05,-2.52,242.048,632.448,-804.224
218.136,588.528,-779.336,-1.68,0.91,-2.52,249.856,624.64,-812.032
219.112,586.576,-780.8,-1.61,0.84,-2.38,257.664,640.256,-812.032
220.576,587.552,-778.848,-1.47,0.84,-2.31,249.856,663.68,-819.84
219.6,585.6,-776.896,-1.4,0.98,-2.17,257.664,655.872,-804.224
218.136,583.16,-774.944,-1.26,0.91,-2.17,257.664,616.832,-796.416
219.6,581.208,-772.992,-1.12,0.77,-2.17,242.048,616.832,-796.416
220.576,579.744,-769.576,-0.98,0.7,-1.96,257.664,616.832,-804.224
220.088,579.256,-768.6,-0.98,0.7,-1.89,257.664,624.64,-780.8
220.576,577.304,-769.088,-0.77,0.49,-1.89,281.088,640.256,-812.032
222.04,575.84,-770.064,-0.56,0.49,-1.89,249.856,632.448,-819.84
223.504,577.304,-772.504,-0.42,0.49,-1.82,234.24,601.216,-827.648
221.552,575.352,-771.04,-0.14,0.42,-1.75,234.24,632.448,-804.224
224.968,574.376,-770.552,0.07,0.49,-1.68,249.856,624.64,-804.224
221.552,573.4,-769.576,0.35,0.42,-1.61,257.664,616.832,-780.8
223.992,572.424,-768.6,0.49,0.28,-1.54,249.856,609.024,-812.032
223.016,571.936,-767.136,0.7,0.35,-1.54,249.856,601.216,-796.416
218.624,569.008,-760.304,0.91,0.21,-1.47,265.472,624.64,-819.84
217.16,568.52,-760.304,1.12,0.21,-1.4,249.856,624.64,-804.224
216.672,566.568,-761.768,1.26,0.0,-1.4,265.472,609.024,-780.8
216.672,566.08,-764.208,1.4,-0.14,-1.4,226.432,616.832,-772.992
217.648,564.616,-766.16,1.54,-0.35,-1.33,242.048,601.216,-788.608
219.6,566.568,-769.576,1.75,-0.56,-1.26,242.048,616.832,-804.224
220.576,568.032,-772.016,1.68,-0.63,-1.33,265.472,609.024,-804.224
223.016,570.96,-773.968,1.68,-0.63,-1.33,257.664,609.024,-796.416
226.432,572.424,-776.408,1.75,-0.7,-1.4,265.472,632.448,-812.032
227.896,575.84,-777.384,1.89,-0.84,-1.47,265.472,616.832,-804.224
229.848,579.744,-774.456,1.89,-0.77,-1.4,242.048,648.064,-804.224
228.872,583.648,-772.504,1.82,-0.7,-1.33,257.664,624.64,-796.416
229.848,585.112,-768.112,1.61,-0.7,-1.26,257.664,640.256,-796.416
227.896,588.528,-767.136,1.47,-0.91,-1.26,242.048,640.256,-780.8
226.92,589.504,-765.672,1.33,-0.84,-1.4,281.088,632.448,-796.416
225.456,590.48,-767.136,1.05,-0.91,-1.33,234.24,609.024,-788.608
225.456,592.432,-765.672,0.84,-0.91,-1.19,281.088,632.448,-796.416
227.408,593.408,-767.624,0.63,-0.91,-1.19,249.856,632.448,-804.224
225.456,591.456,-767.136,0.42,-0.84,-1.05,288.896,632.448,-796.416
224.968,589.992,-766.648,0.14,-0.84,-1.05,234.24,624.64,-812.032
223.016,587.064,-766.16,-0.07,-0.84,-0.98,257.664,632.448,-796.416
223.992,586.576,-767.624,-0.21,-0.91,-0.98,226.432,640.256,-796.416
221.552,585.6,-765.184,-0.42,-0.84,-0.98,234.24,601.216,-804.224
221.552,583.16,-766.16,-0.63,-0.84,-0.98,249.856,632.448,-788.608
221.552,581.696,-766.16,-0.77,-0.91,-1.12,249.856,624.64,-796.416
220.088,582.184,-762.744,-0.77,-0.98,-1.05,242.048,616.832,-804.224
220.088,580.232,-765.184,-0.84,-0.91,-1.19,234.24,609.024,-796.416
220.576,579.744,-767.136,-0.84,-0.91,-1.19,242.048,632.448,-788.608
219.112,579.256,-769.576,-0.77,-0.98,-1.26,265.472,632.448,-804.224
220.088,578.28,-774.456,-0.63,-0.91,-1.26,265.472,648.064,-804.224
221.064,576.816,-777.872,-0.56,-0.98,-1.19,226.432,609.024,-812.032
220.576,576.328,-778.848,-0.56,-0.91,-1.19,257.664,640.256,-788.608
219.112,575.352,-782.264,-0.49,-0.84,-1.19,234.24,640.256,-827.648
220.576,574.864,-782.264,-0.49,-0.84,-1.26,265.472,601.216,-804.224
219.112,574.864,-782.752,-0.56,-0.77,-1.33,226.432,632.448,-835.456
222.04,573.4,-785.192,-0.56,-0.77,-1.4,257.664,609.024,-804.224
222.04,570.96,-787.632,-0.63,-0.7,-1.61,218.624,624.64,-819.84
221.064,572.424,-790.072,-0.49,-0.63,-1.61,273.28,616.832,-827.648
221.064,570.472,-792.024,-0.42,-0.7,-1.68,265.472,624.64,-851.072
223.504,569.984,-793.976,-0.21,-0.7,-1.68,281.088,609.024,-827.648
224.968,569.008,-795.928,0.0,-0.56,-1.61,242.048,624.64,-835.456
226.432,569.984,-798.368,0.21,-0.63,-1.75,265.472,616.832,-804.224
226.432,567.056,-799.832,0.42,-0.49,-1.68,242.048,616.832,-819.84
225.944,565.592,-802.76,0.77,-0.42,-1.68,257.664,624.64,-827.648
225.944,563.64,-802.272,1.19,-0.35,-1.54,242.048,601.216,-843.264
226.92,561.688,-802.272,1.75,-0.35,-1.4,242.048,609.024,-812.032
227.408,560.712,-804.224,2.1,-0.21,-1.47,257.664,616.832,-835.456
226.92,559.736,-803.248,2.31,-0.14,-1.47,281.088,609.024,-819.84
227.896,559.248,-801.296,2.59,-0.14,-1.54,249.856,616.832,-827.648
229.36,560.224,-802.272,2.87,-0.21,-1.82,234.24,601.216,-835.456
228.384,562.176,-801.296,3.08,0.0,-2.03,257.664,601.216,-819.84
227.408,566.08,-797.88,3.29,0.21,-2.17,265.472,609.024,-827.648
227.896,569.496,-797.392,3.43,0.07,-2.31,273.28,640.256,-812.032
227.408,574.376,-793.0,3.64,0.0,-2.38,257.664,616.832,-812.032
226.432,578.28,-790.56,3.78,0.14,-2.38,242.048,624.64,-819.84
225.456,582.184,-789.584,3.78,0.14,-2.31,257.664,632.448,-812.032
225.944,588.528,-790.56,3.85,0.0,-2.31,257.664,663.68,-827.648
224.968,591.456,-789.584,3.78,0.07,-2.24,273.28,663.68,-835.456
225.456,594.384,-790.56,3.85,0.07,-2.24,257.664,655.872,-843.264
227.408,598.288,-790.56,3.71,0.21,-2.31,249.856,663.68,-812.032
227.896,599.264,-792.024,3.57,0.14,-2.31,242.048,648.064,-804.224
225.456,600.728,-791.536,3.36,0.21,-2.31,218.624,679.296,-843.264
224.968,601.704,-792.512,3.15,0.28,-2.45,265.472,632.448,-835.456
224.968,603.168,-791.536,2.8,0.28,-2.45,257.664,616.832,-812.032
224.48,603.168,-793.976,2.52,0.21,-2.52,234.24,655.872,-843.264
223.992,602.68,-794.952,2.38,0.28,-2.52,234.24,671.488,-796.416
221.552,602.192,-793.0,2.1,0.42,-2.52,242.048,655.872,-804.224
221.064,601.216,-792.024,1.68,0.49,-2.45,242.048,648.064,-796.416
219.6,600.24,-791.536,1.4,0.49,-2.52,234.24,655.872,-804.224
219.6,600.24,-790.072,1.19,0.49,-2.45,226.432,648.064,-827.648
217.16,598.776,-789.096,0.84,0.63,-2.59,218.624,640.256,-851.072
216.672,600.728,-786.656,0.56,0.49,-2.66,234.24,671.488,-804.224
217.16,598.776,-787.144,0.35,0.56,-2.66,234.24,648.064,-804.224
217.648,598.776,-786.656,0.07,0.63,-2.66,242.048,640.256,-835.456
217.648,599.752,-788.608,-0.21,0.63,-2.73,249.856,663.68,-812.032
217.648,600.728,-788.608,-0.42,0.84,-2.73,226.432,648.064,-804.224
217.16,603.656,-788.12,-0.7,0.7,-2.8,242.048,648.064,-804.224
218.624,603.656,-789.584,-0.91,0.77,-2.8,242.048,648.064,-812.032
219.112,602.68,-788.12,-1.12,0.84,-2.8,249.856,640.256,-835.456
218.136,605.12,-786.168,-1.33,0.98,-2.73,249.856,640.256,-812.032
219.112,603.656,-785.68,-1.61,1.12,-2.66,242.048,663.68,-819.84
219.112,604.632,-787.144,-1.75,1.12,-2.66,249.856,655.872,-835.456
220.576,600.728,-784.216,-1.89,1.26,-2.52,249.856,655.872,-819.84
221.064,598.776,-787.144,-2.03,1.33,-2.52,249.856,640.256,-804.224
222.04,598.288,-790.56,-2.1,1.4,-2.59,249.856,640.256,-812.032
223.016,596.336,-792.024,-2.17,1.75,-2.52,242.048,632.448,-819.84
223.504,594.384,-794.464,-2.17,1.82,-2.45,249.856,655.872,-827.648
221.552,594.384,-794.952,-2.17,1.89,-2.52,234.24,648.064,-827.648
222.04,593.408,-794.464,-2.1,2.1,-2.45,257.664,648.064,-835.456
223.016,591.944,-795.928,-2.1,2.1,-2.59,242.048,616.832,-827.648
223.992,592.432,-796.416,-2.24,2.17,-2.52,281.088,640.256,-819.84
224.968,589.992,-797.392,-2.24,2.38,-2.52,249.856,632.448,-827.648
224.48,589.016,-793.488,-2.31,2.31,-2.52,249.856,655.872,-804.224
224.48,588.528,-792.024,-2.31,2.45,-2.52,257.664,624.64,-827.648
226.92,588.04,-792.024,-2.31,2.52,-2.59,249.856,624.64,-819.84
226.432,588.528,-790.56,-2.31,2.52,-2.59,249.856,624.64,-827.648
227.408,588.04,-789.096,-2.31,2.66,-2.66,234.24,655.872,-819.84
224.968,587.552,-785.192,-2.38,2.73,-2.59,257.664,655.872,-812.032
225.944,587.064,-785.192,-2.38,2.73,-2.59,242.048,640.256,-804.224
224.968,587.064,-784.704,-2.31,2.73,-2.52,257.664,616.832,-804.224
224.48,587.552,-785.192,-2.38,2.73,-2.52,257.664,640.256,-812.032
224.968,589.504,-784.704,-2.31,2.66,-2.45,249.856,655.872,-788.608
223.504,589.992,-784.704,-2.24,2.66,-2.45,249.856,640.256,-796.416
224.48,590.968,-783.24,-2.38,2.66,-2.45,249.856,632.448,-819.84
223.504,592.432,-780.312,-2.38,2.59,-2.31,249.856,640.256,-812.032
225.456,591.944,-778.848,-2.45,2.59,-2.24,249.856,624.64,-812.032
225.456,592.432,-775.432,-2.45,2.52,-2.31,249.856,648.064,-804.224
225.944,593.896,-774.944,-2.45,2.59,-2.24,265.472,663.68,-812.032
225.944,594.872,-773.48,-2.59,2.52,-2.1,242.048,648.064,-819.84
225.944,594.872,-769.576,-2.59,2.45,-2.1,249.856,640.256,-788.608
223.504,593.896,-766.16,-2.66,2.38,-2.03,265.472,640.256,-796.416
223.504,596.336,-764.208,-2.73,2.31,-1.96,257.664,655.872,-804.224
222.528,597.312,-758.352,-2.73,2.17,-1.96,234.24,648.064,-796.416
222.528,597.8,-756.888,-2.87,2.03,-1.89,265.472,648.064,-796.416
223.016,597.8,-758.352,-2.87,1.89,-1.75,242.048,632.448,-788.608
222.528,599.264,-758.84,-2.87,1.96,-1.82,257.664,648.064,-788.608
223.016,597.312,-760.792,-2.87,1.82,-1.68,257.664,640.256,-812.032
222.04,596.824,-764.208,-2.87,1.68,-1.61,257.664,632.448,-796.416
222.528,593.408,-764.696,-2.87,1.75,-1.47,242.048,632.448,-788.608
221.552,593.408,-765.672,-2.8,1.68,-1.33,249.856,655.872,-796.416
221.552,589.992,-767.136,-2.59,1.61,-1.12,242.048,624.64,-812.032
221.064,589.992,-770.064,-2.59,1.68,-1.05,234.24,640.256,-812.032
219.112,588.04,-773.968,-2.31,1.54,-0.98,265.472,640.256,-788.608
218.136,587.552,-774.944,-2.1,1.54,-0.84,242.048,616.832,-812.032
218.136,587.064,-777.384,-1.96,1.68,-0.77,249.856,632.448,-796.416
215.696,586.576,-776.896,-1.82,1.68,-0.7,242.048,663.68,-796.416
217.648,587.064,-776.896,-1.68,1.54,-0.56,249.856,616.832,-804.224
216.672,586.576,-775.92,-1.54,1.61,-0.49,265.472,624.64,-796.416
215.208,587.552,-777.872,-1.47,1.54,-0.42,265.472,640.256,-804.224
216.672,587.552,-779.336,-1.47,1.54,-0.49,226.432,640.256,-804.224
217.648,589.504,-783.24,-1.47,1.68,-0.42,242.048,640.256,-812.032
219.112,591.944,-782.752,-1.54,1.68,-0.42,242.048,632.448,-804.224
218.136,591.456,-786.656,-1.54,1.75,-0.35,257.664,640.256,-835.456
219.112,595.36,-785.68,-1.68,1.82,-0.21,242.048,616.832,-804.224
220.088,595.848,-785.192,-1.75,1.68,-0.21,242.048,640.256,-804.224
219.112,598.288,-783.728,-1.75,1.82,-0.14,265.472,655.872,-812.032
219.6,598.776,-783.728,-1.82,1.82,0.0,265.472,624.64,-796.416
219.6,598.288,-784.704,-2.03,1.82,0.14,242.048,663.68,-819.84
219.112,596.824,-785.68,-2.31,1.89,0.21,257.664,671.488,-812.032
217.16,597.312,-782.752,-2.59,1.89,0.28,265.472,663.68,-796.416
218.136,595.36,-782.752,-2.94,1.89,0.35,257.664,655.872,-819.84
217.648,591.456,-781.288,-3.22,1.75,0.28,242.048,632.448,-796.416
219.6,589.016,-780.312,-3.43,1.68,0.35,242.048,640.256,-788.608
220.088,588.04,-780.312,-3.5,1.61,0.35,257.664,663.68,-804.224
219.6,585.6,-777.872,-3.57,1.68,0.42,234.24,624.64,-796.416
220.088,584.624,-777.384,-3.64,1.61,0.28,257.664,655.872,-804.224
219.112,582.184,-777.384,-3.71,1.47,0.28,242.048,609.024,-812.032
221.064,582.672,-775.92,-3.71,1.4,0.35,273.28,616.832,-804.224
221.552,579.256,-776.896,-3.57,1.4,0.35,265.472,632.448,-812.032
223.992,578.768,-774.944,-3.5,1.4,0.28,234.24,616.832,-819.84
223.504,580.72,-776.896,-3.5,1.47,0.14,226.432,624.64,-819.84
222.528,580.232,-778.848,-3.36,1.47,0.14,265.472,648.064,-804.224
221.064,578.28,-777.872,-3.15,1.54,0.14,273.28,609.024,-804.224
221.064,578.28,-775.92,-3.08,1.61,0.21,226.432,624.64,-804.224
220.088,576.816,-774.944,-2.8,1.47,0.35,249.856,624.64,-804.224
219.6,575.84,-773.968,-2.52,1.54,0.42,249.856,624.64,-772.992
219.6,574.376,-771.528,-2.24,1.47,0.42,273.28,624.64,-804.224
219.6,571.936,-771.04,-2.03,1.54,0.49,249.856,640.256,-804.224
220.576,570.96,-771.04,-1.82,1.33,0.49,249.856,632.448,-780.8
217.648,569.008,-768.112,-1.61,1.4,0.42,257.664,616.832,-804.224
216.672,568.52,-768.112,-1.4,1.4,0.35,234.24,616.832,-796.416
217.648,570.472,-767.136,-1.33,1.26,0.21,249.856,624.64,-796.416
216.672,569.984,-770.064,-1.19,1.19,0.21,242.048,640.256,-796.416
218.136,570.472,-772.504,-1.05,1.12,0.14,273.28,616.832,-804.224
221.552,572.424,-773.968,-0.91,1.19,0.07,249.856,624.64,-804.224
221.064,572.424,-773.968,-0.77,1.12,0.07,249.856,624.64,-796.416
220.088,574.376,-772.504,-0.7,1.19,0.07,249.856,624.64,-819.84
222.04,576.816,-772.992,-0.63,1.26,0.07,234.24,609.024,-772.992
220.576,576.816,-771.528,-0.56,1.26,0.07,249.856,609.024,-812.032
220.576,577.792,-773.48,-0.49,1.33,0.14,257.664,632.448,-804.224
221.552,578.768,-771.04,-0.35,1.33,0.07,265.472,609.024,-804.224
219.6,580.232,-770.064,-0.28,1.19,0.0,249.856,609.024,-812.032
221.064,579.256,-771.528,-0.28,1.19,0.07,242.048,616.832,-772.992
219.112,579.744,-771.528,-0.28,1.12,0.07,242.048,609.024,-796.416
219.6,579.256,-770.552,-0.28,1.05,0.0,265.472,616.832,-812.032
223.016,583.16,-774.456,-0.28,0.91,-0.07,249.856,601.216,-827.648
222.04,582.184,-777.384,-0.35,0.91,-0.14,273.28,609.024,-812.032
223.016,584.624,-778.36,-0.49,1.05,-0.21,242.048,640.256,-812.032
224.48,586.088,-780.312,-0.56,1.05,-0.28,281.088,640.256,-827.648
225.456,589.992,-780.312,-0.63,1.05,-0.35,257.664,632.448,-812.032
224.48,592.432,-778.848,-0.77,1.05,-0.35,249.856,632.448,-812.032
225.944,593.896,-779.336,-0.98,0.91,-0.28,242.048,648.064,-812.032
226.92,597.8,-777.872,-1.19,0.98,-0.35,242.048,632.448,-812.032
227.896,599.752,-777.384,-1.4,0.98,-0.49,265.472,632.448,-796.416
227.896,599.752,-777.384,-1.54,0.91,-0.49,265.472,648.064,-812.032
226.432,601.704,-777.872,-1.82,0.98,-0.56,249.856,640.256,-827.648
227.408,602.68,-776.896,-1.96,0.98,-0.56,265.472,648.064,-819.84
227.896,600.728,-777.384,-2.03,1.05,-0.56,257.664,663.68,-804.224
226.92,600.728,-777.872,-2.31,0.98,-0.49,234.24,655.872,-812.032
226.432,599.264,-779.336,-2.38,1.05,-0.49,242.048,648.064,-812.032
226.92,595.848,-779.336,-2.38,1.19,-0.42,249.856,624.64,-796.416
224.48,594.384,-780.8,-2.52,1.33,-0.49,249.856,640.256,-812.032
223.504,588.528,-779.824,-2.59,1.4,-0.49,242.048,624.64,-819.84
223.992,584.624,-782.752,-2.59,1.47,-0.49,242.048,648.064,-796.416
221.064,582.184,-782.752,-2.66,1.54,-0.49,249.856,640.256,-804.224
220.088,579.744,-784.216,-2.59,1.61,-0.56,257.664,616.832,-780.8
219.112,577.792,-783.24,-2.59,1.61,-0.63,265.472,601.216,-835.456
218.624,575.84,-783.728,-2.59,1.61,-0.91,242.048,609.024,-796.416
218.136,577.792,-781.288,-2.45,1.61,-0.98,257.664,624.64,-812.032
217.16,577.304,-779.824,-2.38,1.54,-1.12,265.472,632.448,-827.648
218.624,579.744,-782.264,-2.59,1.54,-1.19,257.664,624.64,-788.608
222.04,578.28,-783.24,-2.45,1.61,-1.12,257.664,632.448,-827.648
220.576,581.208,-784.704,-2.45,1.75,-1.33,265.472,624.64,-804.224
219.6,582.184,-782.752,-2.45,1.68,-1.33,249.856,601.216,-812.032
220.088,584.136,-781.288,-2.31,1.68,-1.26,257.664,632.448,-804.224
221.552,586.088,-779.824,-2.45,1.75,-1.33,281.088,640.256,-804.224
220.088,588.04,-775.432,-2.45,1.75,-1.33,257.664,616.832,-812.032
218.624,588.528,-776.408,-2.52,1.82,-1.33,265.472,632.448,-780.8
218.624,590.48,-772.504,-2.59,1.89,-1.26,249.856,632.448,-788.608
217.16,591.456,-772.016,-2.59,1.82,-1.19,242.048,679.296,-819.84
217.648,591.944,-772.016,-2.59,1.82,-1.19,257.664,616.832,-804.224
217.16,591.456,-772.016,-2.73,1.82,-1.05,257.664,648.064,-804.224
215.696,591.456,-773.48,-2.59,1.82,-1.05,257.664,648.064,-804.224
215.208,591.944,-770.064,-2.66,1.82,-1.05,249.856,640.256,-835.456
213.744,590.968,-771.528,-2.73,1.82,-0.91,242.048,640.256,-812.032
215.696,590.48,-770.552,-2.59,1.96,-0.84,234.24,648.064,-796.416
216.184,589.992,-772.504,-2.52,1.89,-0.84,249.856,640.256,-796.416
215.696,589.016,-771.04,-2.38,1.75,-0.7,249.856,655.872,-796.416
216.184,587.064,-772.504,-2.24,1.89,-0.7,242.048,624.64,-812.032
216.672,585.6,-770.552,-2.03,1.82,-0.63,234.24,640.256,-796.416
214.72,583.648,-770.064,-1.89,1.82,-0.56,249.856,616.832,-780.8
215.208,582.672,-769.088,-1.61,1.89,-0.49,234.24,632.448,-804.224
216.184,580.72,-771.528,-1.47,1.75,-0.56,249.856,616.832,-804.224
216.672,579.744,-770.552,-1.33,1.75,-0.56,242.048,632.448,-804.224
215.696,579.256,-770.552,-1.26,1.68,-0.7,242.048,624.64,-804.224
215.208,581.696,-771.528,-1.12,1.68,-0.7,218.624,648.064,-819.84
215.696,582.672,-773.48,-0.98,1.54,-0.77,234.24,609.024,-788.608
215.696,583.648,-771.528,-0.84,1.47,-0.77,234.24,616.832,-812.032
216.672,584.624,-774.456,-0.7,1.47,-0.7,249.856,640.256,-796.416
218.136,585.112,-773.48,-0.63,1.4,-0.63,242.048,640.256,-804.224
218.624,586.088,-773.48,-0.7,1.4,-0.49,234.24,640.256,-804.224
218.624,585.112,-776.408,-0.7,1.4,-0.42,249.856,616.832,-812.032
219.112,586.576,-774.944,-0.84,1.4,-0.42,265.472,648.064,-827.648
219.6,588.528,-774.944,-0.98,1.12,-0.63,265.472,640.256,-819.84
218.624,589.504,-773.968,-1.19,1.26,-0.7,249.856,624.64,-812.032
219.6,594.872,-772.504,-1.33,1.12,-0.77,257.664,648.064,-827.648
220.088,597.312,-768.6,-1.47,0.98,-0.84,257.664,640.256,-796.416
220.088,599.752,-765.184,-1.47,0.98,-0.77,257.664,663.68,-804.224
219.6,601.216,-761.28,-1.54,0.84,-0.7,257.664,632.448,-780.8
218.624,600.728,-759.816,-1.61,0.7,-0.56,257.664,655.872,-788.608
220.576,601.704,-759.328,-1.61,0.63,-0.42,249.856,640.256,-796.416
220.576,599.264,-762.744,-1.61,0.49,-0.28,242.048,640.256,-780.8
220.088,595.848,-766.648,-1.61,0.49,-0.21,242.048,640.256,-796.416
223.504,593.896,-771.528,-1.61,0.42,-0.14,242.048,632.448,-827.648
223.504,590.968,-772.016,-1.61,0.49,-0.07,249.856,655.872,-796.416
223.504,589.992,-775.432,-1.61,0.49,0.0,242.048,655.872,-819.84
224.48,589.992,-774.944,-1.54,0.35,-0.07,226.432,632.448,-796.416
223.016,589.016,-773.48,-1.61,0.42,-0.14,265.472,632.448,-804.224
223.016,590.48,-773.48,-1.47,0.42,-0.21,273.28,655.872,-804.224
222.04,590.48,-772.016,-1.47,0.42,-0.14,249.856,655.872,-804.224
222.528,589.992,-770.064,-1.33,0.49,0.0,257.664,624.64,-819.84
222.04,588.04,-769.576,-1.33,0.35,0.07,265.472,655.872,-804.224
224.48,586.088,-767.624,-1.05,0.35,0.21,242.048,616.832,-796.416
224.968,586.088,-765.184,-0.98,0.28,0.21,257.664,640.256,-812.032
223.992,585.112,-763.232,-0.91,0.35,0.21,249.856,609.024,-788.608
223.504,582.672,-764.208,-0.7,0.28,0.21,273.28,632.448,-788.608
223.504,581.696,-764.208,-0.7,0.35,0.14,249.856,632.448,-788.608
223.504,581.208,-765.672,-0.56,0.28,0.07,265.472,632.448,-796.416
223.992,581.208,-766.648,-0.49,0.35,-0.07,265.472,624.64,-796.416
224.48,582.672,-767.136,-0.35,0.28,-0.07,249.856,640.256,-804.224
225.456,585.6,-769.576,-0.21,0.28,-0.07,257.664,616.832,-796.416
227.408,587.552,-775.432,0.0,0.28,0.07,249.856,648.064,-796.416
227.408,590.48,-777.872,0.21,0.35,0.14,249.856,632.448,-796.416
226.92,593.896,-776.408,0.35,0.49,0.28,265.472,640.256,-812.032
224.968,597.312,-774.944,0.42,0.56,0.35,273.28,663.68,-804.224
223.992,599.752,-771.528,0.42,0.42,0.42,265.472,640.256,-796.416
222.528,603.168,-769.088,0.42,0.49,0.56,265.472,655.872,-812.032
223.016,603.656,-765.672,0.21,0.42,0.56,249.856,655.872,-772.992
220.576,605.12,-761.28,0.07,0.42,0.56,249.856,663.68,-804.224
219.112,606.096,-760.792,-0.14,0.35,0.49,265.472,671.488,-804.224
220.088,608.048,-760.792,-0.28,0.35,0.56,242.048,640.256,-804.224
221.064,606.584,-763.232,-0.49,0.21,0.63,265.472,655.872,-804.224
222.04,607.072,-766.16,-0.7,0.14,0.56,249.856,663.68,-804.224
222.04,605.12,-768.112,-0.84,0.14,0.63,249.856,671.488,-796.416
223.504,604.144,-769.088,-0.77,0.07,0.7,281.088,655.872,-819.84
222.528,602.192,-770.552,-1.05,0.14,0.84,281.088,648.064,-788.608
221.552,602.68,-772.016,-1.12,0.14,0.98,249.856,655.872,-796.416
221.552,600.24,-770.552,-1.19,0.21,0.98,234.24,655.872,-780.8
219.6,599.264,-770.552,-1.33,0.14,0.91,242.048,624.64,-819.84
218.624,598.776,-770.064,-1.75,0.0,0.84,257.664,640.256,-812.032
218.136,600.728,-769.576,-1.89,0.0,0.84,273.28,655.872,-772.992
220.576,600.24,-769.088,-2.1,-0.21,0.77,257.664,640.256,-796.416
222.04,600.24,-770.064,-2.17,-0.21,0.84,249.856,648.064,-780.8
223.016,601.216,-771.04,-2.31,-0.21,0.84,242.048,640.256,-804.224
223.504,602.68,-770.552,-2.52,-0.35,0.84,242.048,648.064,-812.032
224.48,601.704,-771.04,-2.52,-0.35,0.84,242.048,640.256,-812.032
225.944,602.192,-773.48,-2.52,-0.35,0.98,257.664,648.064,-819.84
226.92,601.704,-774.944,-2.59,-0.28,0.91,257.664,640.256,-796.416
228.384,601.704,-774.456,-2.73,-0.14,0.98,242.048,648.064,-819.84
227.408,600.24,-776.408,-2.59,-0.07,1.05,257.664,648.064,-788.608
226.432,599.752,-773.968,-2.59,0.0,1.12,257.664,655.872,-819.84
224.968,599.752,-773.968,-2.59,-0.07,1.12,257.664,663.68,-812.032
225.456,597.312,-773.48,-2.45,0.0,1.12,249.856,640.256,-812.032
223.992,594.872,-772.016,-2.38,0.0,1.26,242.048,648.064,-796.416
223.992,593.896,-772.016,-2.24,0.0,1.33,242.048,632.448,-804.224
223.992,590.968,-767.624,-1.96,0.0,1.4,265.472,648.064,-804.224
223.016,589.504,-767.136,-1.82,-0.07,1.4,249.856,624.64,-819.84
223.016,587.064,-767.136,-1.68,-0.07,1.4,242.048,640.256,-796.416
223.016,585.112,-768.112,-1.61,0.0,1.33,226.432,640.256,-812.032
225.456,584.136,-769.088,-1.26,-0.14,1.33,242.048,609.024,-812.032
223.504,584.624,-772.504,-1.19,-0.07,1.26,234.24,624.64,-804.224
223.992,584.624,-775.432,-1.12,-0.07,1.26,265.472,624.64,-804.224
224.968,587.064,-777.872,-1.12,-0.14,1.19,257.664,632.448,-819.84
225.456,587.552,-779.336,-1.05,-0.07,1.26,257.664,632.448,-812.032
227.408,588.528,-778.848,-0.84,0.0,1.26,273.28,663.68,-812.032
227.408,588.04,-775.92,-0.91,-0.07,1.33,249.856,624.64,-804.224
226.92,587.552,-775.432,-0.91,-0.07,1.26,242.048,624.64,-819.84
227.896,588.528,-767.136,-1.05,-0.07,1.12,249.856,624.64,-819.84
226.432,589.016,-765.184,-1.12,-0.07,1.05,265.472,640.256,-819.84
224.968,588.528,-761.768,-1.26,-0.07,1.05,249.856,648.064,-788.608
224.48,587.064,-762.744,-1.33,-0.07,0.84,249.856,640.256,-804.224
224.968,588.04,-761.28,-1.47,-0.14,0.7,273.28,655.872,-788.608
223.992,585.6,-760.304,-1.54,-0.21,0.77,242.048,609.024,-765.184
224.48,584.624,-763.72,-1.54,-0.14,0.56,257.664,624.64,-788.608
223.016,584.136,-766.16,-1.54,-0.21,0.77,265.472,632.448,-804.224
225.456,582.184,-766.648,-1.4,-0.21,0.84,265.472,632.448,-804.224
224.968,581.696,-768.112,-1.33,-0.28,0.84,257.664,624.64,-804.224
223.504,581.696,-767.136,-1.33,-0.21,0.84,265.472,632.448,-788.608
223.016,580.72,-768.112,-1.26,-0.21,0.84,242.048,640.256,-788.608
222.04,581.208,-766.648,-1.19,-0.07,0.7,257.664,632.448,-804.224
221.064,580.232,-764.696,-0.98,-0.07,0.7,257.664,593.408,-819.84
219.112,582.184,-764.696,-1.05,0.0,0.7,249.856,609.024,-804.224
219.6,582.184,-765.184,-1.05,0.0,0.63,257.664,640.256,-796.416
219.112,584.136,-764.208,-0.91,-0.14,0.7,265.472,624.64,-796.416
219.6,585.6,-766.648,-0.91,-0.14,0.63,249.856,640.256,-788.608
221.064,588.528,-767.624,-0.77,-0.14,0.77,249.856,663.68,-804.224
221.064,589.016,-769.088,-0.63,-0.14,0.77,265.472,624.64,-788.608
223.016,590.48,-773.48,-0.77,-0.07,0.77,257.664,624.64,-788.608
223.504,591.944,-773.48,-0.56,-0.07,0.7,257.664,640.256,-780.8
223.504,593.896,-773.48,-0.56,0.07,0.84,226.432,640.256,-812.032
224.968,594.872,-775.432,-0.56,0.07,0.77,249.856,663.68,-812.032
223.504,595.848,-776.408,-0.56,0.14,0.77,242.048,632.448,-804.224
223.504,595.848,-777.872,-0.49,0.21,0.77,257.664,648.064,-788.608
222.528,596.824,-777.872,-0.49,0.28,0.77,257.664,640.256,-804.224
221.552,597.312,-780.8,-0.42,0.28,0.77,249.856,648.064,-827.648
223.992,597.312,-782.264,-0.56,0.21,0.77,249.856,632.448,-835.456
223.992,600.24,-786.168,-0.63,0.28,0.84,273.28,655.872,-804.224
223.504,600.24,-790.072,-0.91,0.21,0.7,242.048,632.448,-804.224
224.968,601.704,-794.464,-1.05,0.14,0.77,273.28,648.064,-835.456
227.896,601.704,-795.44,-1.33,0.28,0.7,257.664,655.872,-827.648
228.384,602.68,-800.32,-1.4,0.35,0.77,257.664,655.872,-851.072
229.36,602.192,-801.296,-1.54,0.35,0.77,273.28,648.064,-827.648
230.336,602.192,-801.296,-1.75,0.42,0.77,242.048,671.488,-858.88
229.36,602.68,-797.88,-1.96,0.63,0.77,265.472,687.104,-812.032
231.312,601.704,-793.976,-2.1,0.63,0.7,273.28,671.488,-835.456
229.848,602.68,-792.512,-2.31,0.77,0.63,249.856,640.256,-819.84
230.336,601.216,-788.608,-2.52,0.77,0.7,249.856,648.064,-819.84
229.36,600.24,-785.192,-2.52,0.77,0.7,265.472,648.064,-812.032
229.36,597.8,-783.24,-2.59,0.7,0.77,257.664,624.64,-804.224
227.408,595.848,-775.92,-2.59,0.77,0.84,265.472,640.256,-827.648
228.384,593.896,-774.944,-2.52,0.7,0.91,265.472,624.64,-780.8
229.36,591.456,-772.504,-2.45,0.7,0.98,257.664,616.832,-804.224
227.896,589.992,-771.04,-2.38,0.77,0.91,265.472,640.256,-812.032
226.432,588.04,-767.136,-2.17,0.84,0.98,242.048,632.448,-772.992
226.92,586.088,-764.208,-1.96,0.91,0.98,257.664,648.064,-804.224
225.944,587.064,-763.72,-1.61,0.91,1.05,242.048,616.832,-804.224
224.48,587.064,-762.744,-1.26,0.98,1.05,249.856,624.64,-796.416
223.504,585.6,-758.84,-0.77,1.05,1.12,265.472,616.832,-788.608
222.528,585.112,-756.888,-0.56,1.05,1.19,242.048,632.448,-788.608
221.552,583.16,-759.328,-0.42,1.12,1.19,234.24,632.448,-780.8
221.552,583.16,-757.376,-0.14,1.12,1.33,249.856,640.256,-804.224
220.576,582.672,-756.888,-0.07,1.12,1.33,226.432,640.256,-796.416
219.112,583.648,-754.448,0.14,1.19,1.26,257.664,593.408,-780.8
217.16,587.064,-753.472,0.21,1.05,1.26,234.24,648.064,-765.184
215.696,588.528,-752.496,0.42,0.98,1.19,226.432,616.832,-788.608
217.648,589.504,-752.008,0.42,0.98,1.19,226.432,640.256,-780.8
216.184,592.92,-751.52,0.56,0.77,1.19,218.624,655.872,-749.568
217.648,594.872,-751.52,0.49,0.77,1.33,249.856,640.256,-772.992
218.136,595.36,-752.008,0.49,0.7,1.33,242.048,640.256,-772.992
218.624,597.312,-749.568,0.42,0.7,1.47,249.856,655.872,-796.416
218.624,597.8,-752.008,0.28,0.49,1.61,257.664,648.064,-772.992
220.088,599.752,-750.544,0.07,0.28,1.68,257.664,655.872,-788.608
221.064,599.752,-753.96,0.0,0.14,1.75,249.856,640.256,-788.608
222.04,598.776,-756.888,-0.07,0.14,1.82,242.048,648.064,-796.416
224.968,598.776,-762.256,-0.21,0.0,1.75,265.472,655.872,-796.416
225.456,597.312,-766.16,-0.28,-0.21,1.75,242.048,655.872,-804.224
227.408,595.848,-772.504,-0.35,-0.14,1.89,288.896,640.256,-812.032
229.848,592.432,-773.968,-0.49,-0.28,2.03,273.28,632.448,-780.8
231.312,589.016,-775.432,-0.56,-0.35,1.96,265.472,648.064,-812.032
231.8,587.064,-773.48,-0.56,-0.35,1.96,242.048,632.448,-804.224
232.776,586.576,-772.992,-0.63,-0.35,1.82,288.896,640.256,-812.032
231.8,585.112,-770.552,-0.63,-0.28,1.68,257.664,640.256,-827.648
232.288,584.624,-770.552,-0.7,-0.42,1.54,265.472,640.256,-804.224
232.776,584.624,-769.576,-0.77,-0.49,1.47,242.048,624.64,-796.416
231.312,585.112,-770.064,-0.77,-0.7,1.26,257.664,632.448,-796.416
231.8,586.576,-772.016,-0.77,-0.63,1.19,281.088,624.64,-827.648
228.872,588.528,-770.552,-0.7,-0.63,1.12,265.472,648.064,-796.416
229.848,590.968,-772.992,-0.77,-0.7,1.12,265.472,640.256,-827.648
230.336,591.456,-771.528,-0.63,-0.77,1.26,257.664,640.256,-804.224
230.336,591.944,-773.968,-0.49,-0.77,1.26,273.28,640.256,-796.416
230.824,593.896,-774.456,-0.42,-0.77,1.33,273.28,640.256,-804.224
230.336,595.36,-772.992,-0.35,-0.77,1.4,265.472,632.448,-804.224
228.872,595.36,-772.504,-0.28,-0.77,1.33,249.856,648.064,-804.224
228.872,596.824,-768.112,-0.28,-0.77,1.33,242.048,648.064,-804.224
226.92,596.336,-765.184,-0.28,-0.77,1.19,265.472,655.872,-796.416
225.944,596.336,-761.28,-0.42,-0.77,1.12,265.472,663.68,-804.224
226.92,598.288,-758.352,-0.49,-0.77,1.12,265.472,632.448,-780.8
226.432,596.336,-755.912,-0.42,-0.7,1.19,288.896,640.256,-772.992
225.944,596.336,-754.936,-0.56,-0.84,1.19,265.472,655.872,-788.608
227.408,595.848,-756.888,-0.42,-0.77,1.26,273.28,632.448,-812.032
228.872,596.336,-758.352,-0.42,-0.91,1.33,257.664,663.68,-780.8
226.92,594.384,-758.352,-0.42,-0.84,1.4,257.664,648.064,-780.8
227.896,589.992,-753.472,-0.35,-0.84,1.33,257.664,640.256,-772.992
228.872,589.992,-753.472,-0.28,-0.77,1.33,257.664,640.256,-780.8
227.896,588.04,-752.984,-0.14,-0.7,1.33,265.472,632.448,-780.8
226.432,586.576,-752.984,-0.07,-0.63,1.19,242.048,624.64,-796.416
227.408,587.064,-754.448,-0.14,-0.56,1.12,234.24,648.064,-804.224
225.456,586.088,-758.352,-0.07,-0.49,1.12,265.472,640.256,-788.608
224.968,589.016,-759.816,-0.14,-0.56,1.05,234.24,648.064,-788.608
224.968,589.504,-759.328,-0.14,-0.56,1.05,265.472,632.448,-765.184
222.528,592.432,-759.328,-0.28,-0.49,0.98,242.048,624.64,-812.032
224.48,594.872,-758.84,-0.35,-0.63,0.98,249.856,655.872,-765.184
223.016,597.312,-755.424,-0.35,-0.77,0.91,257.664,663.68,-780.8
224.48,598.288,-756.888,-0.42,-0.7,0.91,265.472,640.256,-780.8
225.456,600.24,-757.864,-0.49,-0.7,0.91,249.856,624.64,-780.8
226.92,600.728,-756.4,-0.63,-0.84,0.91,273.28,655.872,-796.416
226.92,599.264,-760.304,-0.77,-0.7,0.91,265.472,648.064,-780.8
227.896,596.824,-762.256,-0.91,-0.7,0.91,265.472,663.68,-804.224
228.384,593.896,-762.256,-0.98,-0.77,0.84,234.24,616.832,-796.416
229.848,591.944,-767.136,-1.12,-0.7,0.98,249.856,632.448,-788.608
228.384,589.016,-766.648,-0.98,-0.63,0.91,257.664,648.064,-796.416
226.92,587.552,-768.6,-1.05,-0.63,0.91,257.664,648.064,-796.416
226.432,586.088,-770.064,-0.98,-0.56,0.91,249.856,632.448,-788.608
226.432,584.624,-772.992,-0.84,-0.56,0.91,249.856,616.832,-819.84
224.968,582.672,-775.92,-0.84,-0.56,0.77,234.24,624.64,-804.224
225.944,582.184,-777.384,-0.7,-0.56,0.84,242.048,632.448,-812.032
225.456,583.648,-779.336,-0.7,-0.49,0.77,249.856,624.64,-827.648
225.456,583.648,-779.824,-0.7,-0.49,0.7,242.048,640.256,-812.032
225.944,585.112,-781.776,-0.56,-0.49,0.7,226.432,632.448,-819.84
226.432,586.576,-779.824,-0.35,-0.42,0.7,257.664,632.448,-827.648
226.432,587.064,-780.8,-0.42,-0.42,0.77,242.048,609.024,-796.416
226.432,586.088,-778.36,-0.28,-0.42,0.84,242.048,616.832,-780.8
227.408,586.576,-775.92,-0.21,-0.35,0.91,249.856,640.256,-804.224
226.92,585.6,-773.968,-0.07,-0.28,0.84,249.856,624.64,-819.84
227.896,584.624,-772.504,0.07,-0.35,0.91,249.856,624.64,-796.416
226.432,583.648,-770.064,0.21,-0.28,0.84,242.048,632.448,-780.8
224.48,584.136,-769.576,0.28,-0.28,0.77,257.664,640.256,-788.608
224.48,584.624,-767.624,0.35,-0.35,0.91,273.28,624.64,-819.84
224.48,583.648,-770.064,0.28,-0.35,0.84,273.28,648.064,-812.032
224.968,583.648,-767.624,0.42,-0.42,0.91,249.856,632.448,-804.224
224.48,584.624,-767.136,0.49,-0.49,0.91,242.048,624.64,-804.224
224.48,585.112,-767.624,0.63,-0.49,0.84,281.088,640.256,-788.608
225.456,585.112,-766.16,0.77,-0.35,0.91,265.472,655.872,-788.608
223.504,584.624,-766.648,1.05,-0.42,0.84,273.28,640.256,-780.8
224.48,586.088,-766.16,1.33,-0.56,0.98,265.472,640.256,-819.84
225.944,588.528,-768.6,1.54,-0.56,1.05,242.048,640.256,-796.416
223.992,588.04,-767.624,1.68,-0.56,1.12,257.664,632.448,-812.032
222.04,586.088,-765.184,1.68,-0.56,1.26,257.664,624.64,-788.608
223.504,586.088,-765.184,1.75,-0.77,1.12,242.048,640.256,-796.416
222.528,586.576,-763.232,1.75,-0.84,0.98,265.472,655.872,-835.456
223.504,586.088,-760.792,1.82,-0.91,0.98,249.856,640.256,-812.032
223.992,585.112,-760.792,1.96,-0.84,0.98,265.472,640.256,-780.8
223.016,585.112,-759.328,1.89,-0.98,0.84,265.472,632.448,-788.608
223.504,585.6,-760.304,1.82,-1.19,0.7,242.048,648.064,-772.992
222.528,587.552,-759.816,1.75,-1.33,0.7,218.624,640.256,-772.992
224.968,587.064,-759.816,1.82,-1.33,0.7,281.088,640.256,-757.376
223.504,587.552,-761.28,2.03,-1.47,0.7,242.048,640.256,-796.416
223.504,589.504,-759.328,2.17,-1.54,0.77,265.472,648.064,-780.8
221.552,589.504,-760.304,2.38,-1.54,0.84,257.664,640.256,-804.224
222.04,589.504,-759.328,2.38,-1.75,0.7,273.28,632.448,-804.224
222.04,589.992,-758.84,2.59,-1.82,0.7,242.048,655.872,-812.032
222.528,589.016,-762.744,2.59,-1.82,0.7,265.472,624.64,-780.8
220.576,590.48,-765.672,2.66,-1.89,0.84,257.664,632.448,-796.416
220.576,590.968,-767.136,2.66,-2.03,0.7,242.048,632.448,-819.84
220.088,590.48,-769.088,2.73,-2.1,0.84,249.856,663.68,-804.224
221.552,588.528,-766.648,2.66,-2.1,0.91,265.472,640.256,-796.416
221.552,588.528,-767.624,2.73,-2.17,0.7,257.664,640.256,-827.648
221.552,589.016,-767.624,2.66,-2.17,0.84,257.664,655.872,-804.224
221.552,589.504,-765.672,2.59,-2.03,0.77,234.24,632.448,-812.032
221.552,588.04,-769.088,2.45,-2.03,0.7,249.856,632.448,-804.224
220.576,588.528,-769.576,2.38,-2.1,0.56,265.472,640.256,-804.224
218.624,590.968,-770.064,2.31,-2.03,0.56,257.664,624.64,-812.032
218.624,591.944,-772.992,2.24,-2.17,0.63,257.664,632.448,-796.416
218.136,592.92,-772.016,2.31,-2.1,0.63,249.856,624.64,-804.224
219.112,593.408,-774.944,2.31,-2.31,0.7,218.624,648.064,-804.224
219.112,592.92,-779.824,2.24,-2.38,0.77,249.856,655.872,-812.032
221.064,592.92,-780.8,2.24,-2.17,0.84,249.856,655.872,-812.032
222.04,589.504,-783.728,2.24,-2.17,1.05,257.664,655.872,-835.456
222.04,586.088,-785.192,2.1,-2.1,1.05,281.088,640.256,-819.84
223.992,581.208,-784.216,2.03,-1.96,1.26,265.472,616.832,-819.84
224.48,578.768,-786.168,2.1,-1.89,1.12,288.896,640.256,-804.224
224.968,576.816,-786.656,2.03,-1.89,1.05,242.048,640.256,-827.648
226.92,574.376,-782.264,2.1,-1.82,0.84,257.664,640.256,-796.416
225.944,575.352,-779.824,2.03,-1.82,0.56,257.664,624.64,-812.032
227.896,576.816,-777.872,2.1,-1.82,0.35,288.896,632.448,-827.648
229.36,579.256,-776.896,1.96,-1.68,0.28,265.472,632.448,-812.032
229.36,584.136,-777.384,1.89,-1.68,0.07,281.088,632.448,-812.032
229.848,587.552,-773.968,1.82,-1.68,0.0,265.472,640.256,-804.224
228.872,595.848,-775.432,1.89,-1.54,-0.21,257.664,663.68,-812.032
229.848,600.728,-774.944,1.75,-1.4,-0.14,257.664,663.68,-812.032
228.872,605.12,-774.456,1.68,-1.4,0.0,234.24,632.448,-827.648
227.408,608.536,-774.456,1.54,-1.19,0.07,249.856,655.872,-812.032
225.456,611.952,-774.456,1.47,-1.19,0.21,242.048,648.064,-812.032
224.968,611.952,-775.432,1.4,-1.26,0.35,257.664,663.68,-812.032
223.504,612.44,-772.992,1.26,-1.33,0.35,234.24,648.064,-788.608
222.528,610.976,-772.504,1.19,-1.26,0.49,288.896,671.488,-796.416
223.992,609.512,-773.48,1.05,-1.26,0.63,242.048,640.256,-780.8
224.48,608.536,-775.92,0.84,-1.26,0.63,257.664,655.872,-819.84
225.944,607.072,-776.408,0.63,-1.26,0.56,257.664,648.064,-796.416
225.944,603.656,-776.408,0.49,-1.4,0.56,218.624,648.064,-796.416
229.36,601.704,-776.408,0.21,-1.33,0.63,242.048,632.448,-812.032
230.336,600.728,-776.408,0.0,-1.33,0.56,288.896,671.488,-812.032
231.8,599.752,-775.92,-0.07,-1.26,0.56,257.664,648.064,-812.032
232.776,599.264,-773.48,-0.21,-1.26,0.56,288.896,640.256,-819.84
233.752,597.8,-772.992,-0.28,-1.26,0.56,273.28,648.064,-812.032
233.264,597.312,-771.528,-0.28,-1.33,0.56,273.28,655.872,-788.608
236.192,598.288,-769.576,-0.35,-1.47,0.56,242.048,624.64,-780.8
235.216,596.824,-766.16,-0.42,-1.4,0.49,257.664,632.448,-819.84
235.704,597.312,-766.648,-0.49,-1.4,0.49,249.856,624.64,-812.032
236.192,596.336,-767.624,-0.49,-1.4,0.49,265.472,648.064,-780.8
235.704,595.848,-769.576,-0.42,-1.4,0.42,249.856,640.256,-827.648
234.24,594.384,-767.136,-0.35,-1.26,0.56,288.896,632.448,-796.416
234.24,592.92,-769.576,-0.14,-1.33,0.63,257.664,655.872,-788.608
233.752,590.48,-768.6,0.0,-1.33,0.7,281.088,624.64,-796.416
232.288,588.528,-768.112,0.28,-1.33,0.77,257.664,624.64,-780.8
232.776,586.576,-763.232,0.42,-1.33,0.84,249.856,640.256,-796.416
229.36,583.648,-759.816,0.49,-1.33,0.84,265.472,648.064,-796.416
227.896,583.16,-754.448,0.77,-1.4,0.77,273.28,616.832,-780.8
228.384,582.672,-752.984,0.98,-1.4,0.63,265.472,632.448,-780.8
225.456,585.112,-752.008,1.33,-1.4,0.56,265.472,632.448,-788.608
226.92,585.112,-754.936,1.47,-1.47,0.63,257.664,616.832,-796.416
227.896,584.136,-756.4,1.68,-1.47,0.7,265.472,640.256,-788.608
227.408,584.624,-758.352,1.89,-1.54,0.84,257.664,632.448,-812.032
228.384,585.112,-761.768,2.17,-1.47,0.98,281.088,632.448,-788.608
230.336,584.136,-763.72,2.31,-1.54,1.05,273.28,632.448,-804.224
229.848,582.672,-764.208,2.38,-1.47,1.12,265.472,632.448,-796.416
232.776,581.696,-766.648,2.52,-1.33,1.19,273.28,624.64,-804.224
232.776,582.672,-769.088,2.66,-1.4,1.26,281.088,632.448,-796.416
231.8,584.624,-768.6,2.59,-1.4,1.19,242.048,632.448,-796.416
232.288,585.6,-772.016,2.52,-1.26,1.05,257.664,655.872,-804.224
231.312,587.552,-773.48,2.52,-1.19,1.05,265.472,648.064,-796.416
230.824,591.944,-772.992,2.31,-1.26,0.91,242.048,632.448,-804.224
228.872,598.288,-774.456,2.24,-1.12,0.91,265.472,655.872,-796.416
228.872,601.216,-775.92,2.03,-1.05,1.12,265.472,663.68,-812.032
227.408,604.144,-774.944,1.96,-1.19,1.19,273.28,648.064,-796.416
227.896,606.584,-775.92,1.75,-1.26,1.26,242.048,640.256,-804.224
228.384,607.072,-775.92,1.68,-1.26,1.33,281.088,632.448,-819.84
229.848,608.536,-778.36,1.54,-1.4,1.47,265.472,671.488,-796.416
229.848,610.0,-780.312,1.19,-1.26,1.4,281.088,663.68,-835.456
231.312,608.536,-779.336,1.05,-1.33,1.47,265.472,648.064,-812.032
234.728,609.512,-779.336,0.77,-1.33,1.54,257.664,655.872,-804.224
234.24,608.048,-780.312,0.49,-1.26,1.47,249.856,655.872,-788.608
232.288,606.584,-780.8,0.28,-1.12,1.54,257.664,671.488,-819.84
232.288,604.632,-780.312,0.21,-1.19,1.61,281.088,640.256,-804.224
233.752,601.704,-777.384,0.0,-1.19,1.61,273.28,671.488,-804.224
234.728,598.776,-777.872,0.0,-1.12,1.68,265.472,655.872,-819.84
234.24,595.848,-777.872,-0.07,-1.12,1.68,249.856,640.256,-804.224
233.264,593.896,-778.848,-0.07,-1.12,1.68,281.088,648.064,-812.032
234.24,590.968,-779.336,0.07,-1.05,1.54,273.28,640.256,-835.456
232.776,589.992,-783.24,0.0,-1.05,1.54,257.664,640.256,-819.84
231.312,588.04,-785.68,-0.07,-0.91,1.54,257.664,655.872,-835.456
232.288,588.04,-783.728,0.07,-0.84,1.47,281.088,655.872,-827.648
230.824,588.528,-782.752,0.0,-0.84,1.47,257.664,648.064,-812.032
230.824,589.504,-779.824,0.0,-0.84,1.4,257.664,632.448,-827.648
229.36,589.992,-779.336,0.0,-0.84,1.4,234.24,632.448,-827.648
230.824,590.968,-779.824,-0.07,-0.84,1.26,265.472,632.448,-796.416
233.752,591.944,-778.848,-0.07,-0.77,1.33,281.088,655.872,-812.032
231.8,591.944,-780.312,-0.14,-0.7,1.26,265.472,640.256,-796.416
234.24,591.944,-780.312,-0.35,-0.77,1.26,265.472,640.256,-804.224
233.752,591.456,-778.848,-0.35,-0.7,1.19,257.664,640.256,-796.416
234.24,589.992,-778.36,-0.42,-0.7,1.12,296.704,640.256,-812.032
235.704,589.016,-780.312,-0.42,-0.7,1.19,257.664,655.872,-812.032
235.704,588.528,-784.216,-0.35,-0.56,1.19,265.472,648.064,-812.032
236.192,585.112,-786.656,-0.28,-0.49,1.26,273.28,624.64,-804.224
237.656,583.16,-786.656,-0.21,-0.21,1.26,273.28,632.448,-827.648
235.216,579.256,-786.168,-0.07,-0.14,1.33,281.088,616.832,-827.648
235.216,576.328,-785.192,0.07,-0.07,1.33,257.664,632.448,-827.648
231.8,571.936,-784.704,0.21,0.0,1.33,281.088,616.832,-788.608
230.336,571.936,-784.704,0.35,0.21,1.4,226.432,616.832,-788.608
228.872,568.52,-787.632,0.49,0.28,1.19,265.472,640.256,-819.84
227.896,570.96,-787.144,0.56,0.35,1.05,249.856,632.448,-812.032
226.432,570.96,-786.656,0.77,0.35,0.91,265.472,624.64,-835.456
225.944,573.4,-782.264,0.98,0.49,0.77,273.28,616.832,-804.224
224.968,574.864,-776.896,0.98,0.42,0.63,242.048,609.024,-819.84
223.504,580.232,-772.016,1.19,0.42,0.49,273.28,648.064,-788.608
224.968,584.624,-769.088,1.26,0.35,0.56,257.664,640.256,-788.608
225.944,588.04,-766.16,1.33,0.42,0.63,265.472,640.256,-788.608
225.456,589.504,-765.672,1.33,0.49,0.63,257.664,632.448,-804.224
224.968,591.944,-765.184,1.26,0.42,0.7,242.048,640.256,-804.224
225.456,591.456,-761.768,1.19,0.49,0.77,249.856,640.256,-804.224
224.48,590.48,-759.816,1.05,0.49,0.84,242.048,632.448,-804.224
222.04,589.504,-759.816,0.91,0.42,0.7,249.856,632.448,-796.416
223.016,587.064,-758.84,0.77,0.42,0.7,249.856,632.448,-804.224
222.528,587.552,-760.304,0.77,0.35,0.77,257.664,640.256,-788.608
222.528,586.088,-762.744,0.7,0.28,0.7,249.856,632.448,-796.416
223.016,586.576,-763.232,0.7,0.35,0.63,265.472,624.64,-804.224
223.992,584.624,-765.672,0.7,0.35,0.63,242.048,648.064,-812.032
223.504,585.112,-765.672,0.7,0.35,0.7,265.472,609.024,-804.224
223.016,584.136,-768.6,0.56,0.35,0.84,234.24,632.448,-796.416
223.504,584.624,-768.6,0.63,0.35,0.77,257.664,632.448,-804.224
224.968,585.112,-767.136,0.56,0.49,0.7,257.664,609.024,-804.224
222.528,587.064,-769.088,0.56,0.56,0.7,249.856,640.256,-788.608
221.064,587.552,-769.576,0.56,0.56,0.56,257.664,655.872,-796.416
221.064,589.504,-771.528,0.42,0.56,0.49,242.048,624.64,-796.416
220.576,593.896,-771.528,0.28,0.49,0.49,249.856,640.256,-819.84
220.576,595.36,-774.944,0.28,0.49,0.56,242.048,640.256,-819.84
220.576,597.8,-777.872,0.35,0.42,0.7,257.664,632.448,-788.608
221.552,599.752,-778.848,0.42,0.49,0.84,249.856,632.448,-804.224
220.088,600.728,-779.824,0.42,0.42,0.98,265.472,648.064,-796.416
221.552,601.704,-779.336,0.35,0.42,1.12,234.24,648.064,-804.224
222.04,601.216,-781.288,0.14,0.42,1.19,234.24,640.256,-804.224
222.528,601.216,-780.312,0.0,0.28,1.19,249.856,640.256,-804.224
223.992,599.752,-778.848,-0.21,0.21,1.33,257.664,655.872,-796.416
225.456,599.264,-780.312,-0.42,0.14,1.26,273.28,663.68,-812.032
227.408,595.848,-781.776,-0.56,0.0,1.33,273.28,624.64,-812.032
228.872,592.92,-781.288,-0.77,-0.14,1.33,273.28,663.68,-804.224
230.824,591.944,-781.288,-0.7,-0.28,1.26,234.24,648.064,-812.032
233.264,587.552,-783.728,-0.77,-0.28,1.33,281.088,632.448,-796.416
233.752,584.136,-780.8,-0.77,-0.35,1.33,257.664,648.064,-819.84
235.704,581.208,-782.264,-0.63,-0.42,1.33,273.28,609.024,-812.032
237.656,580.232,-779.336,-0.7,-0.42,1.26,257.664,632.448,-796.416
235.704,577.792,-780.312,-0.56,-0.42,1.33,249.856,624.64,-788.608
236.192,577.304,-777.872,-0.35,-0.49,1.12,265.472,624.64,-812.032
237.656,575.84,-779.824,-0.21,-0.49,1.05,242.048,624.64,-835.456
236.192,575.84,-778.36,0.0,-0.35,0.91,257.664,632.448,-780.8
234.728,577.792,-777.872,0.14,-0.42,0.91,265.472,624.64,-796.416
232.776,579.256,-773.48,0.35,-0.35,0.91,249.856,640.256,-796.416
231.8,578.768,-770.552,0.56,-0.42,0.91,257.664,601.216,-804.224
227.896,580.232,-769.088,0.77,-0.42,0.84,273.28,624.64,-819.84
227.408,581.696,-770.064,0.98,-0.42,1.05,281.088,624.64,-796.416
225.944,583.16,-771.04,1.19,-0.56,1.05,257.664,624.64,-804.224
227.408,582.184,-768.6,1.26,-0.56,1.05,242.048,640.256,-812.032
226.432,584.624,-768.6,1.47,-0.56,1.12,249.856,624.64,-788.608
226.432,585.112,-768.112,1.54,-0.56,1.12,249.856,632.448,-796.416
226.92,586.576,-765.184,1.68,-0.63,1.12,265.472,640.256,-796.416
225.944,587.064,-762.256,1.68,-0.63,0.98,265.472,609.024,-780.8
227.408,589.016,-758.84,1.75,-0.77,0.91,265.472,609.024,-780.8
225.944,589.992,-759.816,1.75,-0.7,0.98,249.856,640.256,-804.224
228.384,591.456,-760.792,1.75,-0.84,0.91,242.048,632.448,-812.032
228.384,591.456,-762.256,1.75,-0.7,0.91,273.28,640.256,-788.608
227.896,590.968,-762.256,1.68,-0.7,0.98,257.664,655.872,-812.032
225.456,589.992,-763.232,1.82,-0.7,1.12,273.28,655.872,-772.992
226.432,589.016,-763.232,1.75,-0.7,1.12,242.048,624.64,-796.416
224.968,589.504,-764.696,1.89,-0.7,1.12,249.856,648.064,-804.224
223.504,589.016,-765.672,1.96,-0.63,1.19,257.664,624.64,-796.416
223.016,588.04,-767.624,1.96,-0.49,1.19,265.472,632.448,-804.224
222.04,588.04,-769.576,2.03,-0.49,1.12,257.664,624.64,-780.8
221.064,588.528,-771.04,1.96,-0.56,1.05,257.664,624.64,-812.032
222.528,588.04,-772.504,1.89,-0.49,1.05,265.472,632.448,-812.032
223.016,589.992,-773.48,1.68,-0.56,0.91,242.048,640.256,-804.224
223.016,591.456,-772.016,1.61,-0.63,0.84,273.28,655.872,-804.224
224.968,591.944,-774.456,1.47,-0.7,0.77,265.472,655.872,-812.032
227.896,594.872,-776.408,1.19,-0.63,0.77,242.048,648.064,-827.648
229.36,595.848,-775.92,1.12,-0.7,0.77,249.856,648.064,-812.032
230.336,598.776,-780.312,1.05,-0.56,0.77,249.856,632.448,-812.032
231.8,599.264,-781.288,0.91,-0.42,0.84,257.664,663.68,-819.84
232.776,601.704,-782.752,0.84,-0.35,0.7,257.664,655.872,-827.648
233.264,603.168,-784.216,0.63,-0.21,0.63,265.472,663.68,-835.456
231.312,603.168,-783.24,0.49,-0.14,0.56,249.856,632.448,-819.84
230.824,603.656,-786.168,0.28,-0.21,0.56,265.472,655.872,-827.648
229.848,602.192,-785.68,0.21,-0.07,0.56,273.28,648.064,-812.032
227.896,600.728,-785.192,0.07,-0.14,0.56,281.088,648.064,-843.264
229.36,599.752,-786.656,0.0,-0.14,0.63,257.664,648.064,-804.224
227.896,599.264,-788.608,-0.21,-0.07,0.49,234.24,648.064,-827.648
228.872,596.336,-790.56,-0.28,0.0,0.42,249.856,632.448,-827.648
227.896,593.896,-791.048,-0.35,0.14,0.35,242.048,640.256,-827.648
229.36,592.92,-791.536,-0.56,0.14,0.42,249.856,609.024,-819.84
228.384,591.456,-792.024,-0.7,0.21,0.42,273.28,640.256,-819.84
227.408,589.504,-791.048,-0.77,0.28,0.42,273.28,655.872,-843.264
227.408,590.48,-788.608,-0.84,0.28,0.49,257.664,632.448,-804.224
228.384,586.088,-789.096,-0.91,0.35,0.42,265.472,624.64,-827.648
228.384,587.064,-787.632,-0.98,0.28,0.42,265.472,640.256,-804.224
229.848,586.088,-786.168,-1.12,0.42,0.35,265.472,624.64,-812.032
229.36,584.624,-782.752,-0.98,0.42,0.35,249.856,632.448,-827.648
228.384,583.16,-780.312,-0.98,0.42,0.42,265.472,632.448,-804.224
228.872,584.136,-778.848,-0.84,0.49,0.35,242.048,632.448,-804.224
226.92,583.648,-778.848,-0.77,0.49,0.28,249.856,640.256,-812.032
227.408,584.624,-777.872,-0.63,0.56,0.28,273.28,616.832,-827.648
226.92,585.6,-776.896,-0.56,0.56,0.42,273.28,640.256,-780.8
225.456,584.136,-774.456,-0.35,0.7,0.49,242.048,632.448,-812.032
225.456,584.136,-773.968,-0.28,0.7,0.42,257.664,624.64,-788.608
222.528,584.136,-773.48,-0.14,0.63,0.56,265.472,640.256,-804.224
222.528,585.6,-772.016,-0.07,0.63,0.63,249.856,632.448,-780.8
222.528,587.064,-769.088,-0.07,0.56,0.7,242.048,624.64,-804.224
222.04,587.064,-772.016,0.0,0.56,0.77,281.088,616.832,-796.416
221.552,586.576,-772.504,0.07,0.42,0.91,242.048,632.448,-812.032
222.528,586.576,-771.528,0.07,0.42,0.91,226.432,616.832,-812.032
222.528,584.624,-768.6,0.28,0.42,0.84,226.432,640.256,-804.224
222.04,582.184,-768.6,0.28,0.42,0.98,249.856,624.64,-780.8
222.04,583.16,-766.16,0.35,0.35,0.98,234.24,640.256,-788.608
222.04,580.232,-765.184,0.28,0.28,1.05,249.856,601.216,-796.416
222.528,578.768,-764.208,0.35,0.28,1.12,226.432,632.448,-780.8
223.016,578.768,-764.696,0.56,0.21,1.12,273.28,624.64,-812.032
220.576,579.256,-766.16,0.63,0.14,1.05,257.664,640.256,-788.608
223.992,578.28,-767.136,0.7,0.0,1.12,249.856,632.448,-804.224
223.016,579.744,-769.576,0.77,-0.07,1.12,249.856,632.448,-812.032
223.504,579.744,-766.648,0.77,-0.07,1.05,234.24,624.64,-780.8
222.528,579.744,-771.04,0.91,-0.21,1.12,249.856,601.216,-804.224
223.992,579.744,-771.04,0.91,-0.21,1.12,273.28,632.448,-812.032
224.48,582.184,-771.04,1.12,-0.28,1.12,257.664,624.64,-819.84
224.968,582.672,-772.016,0.98,-0.28,1.05,249.856,616.832,-804.224
224.968,585.112,-770.064,1.19,-0.56,0.98,273.28,640.256,-796.416
224.48,585.112,-772.016,1.19,-0.49,1.05,249.856,616.832,-796.416
224.48,588.04,-772.992,1.26,-0.49,1.05,234.24,632.448,-812.032
224.968,589.504,-772.992,1.19,-0.56,1.12,257.664,624.64,-796.416
225.456,589.504,-773.48,1.19,-0.56,1.12,265.472,632.448,-796.416
225.944,590.48,-775.432,1.12,-0.7,1.12,242.048,648.064,-804.224
226.92,591.456,-778.36,1.05,-0.77,1.12,265.472,655.872,-812.032
229.36,589.992,-779.824,0.98,-0.77,1.12,288.896,640.256,-804.224
230.336,589.504,-780.8,0.98,-0.7,1.05,257.664,640.256,-804.224
229.36,588.528,-782.264,1.05,-0.7,1.05,265.472,640.256,-827.648
228.872,587.552,-781.288,1.19,-0.7,1.05,281.088,632.448,-819.84
228.872,587.064,-782.752,1.19,-0.7,1.12,257.664,632.448,-812.032
228.872,586.088,-782.264,1.19,-0.84,1.12,257.664,632.448,-819.84
227.896,587.552,-783.24,1.26,-0.63,1.12,249.856,624.64,-827.648
226.92,585.6,-783.24,1.12,-0.56,1.12,265.472,648.064,-827.648
224.968,585.6,-784.216,1.19,-0.63,1.05,257.664,640.256,-804.224
225.456,587.552,-782.752,1.19,-0.77,0.91,242.048,648.064,-796.416
224.968,588.04,-780.8,1.12,-0.7,0.91,265.472,616.832,-812.032
224.968,588.04,-777.872,1.12,-0.7,0.84,249.856,640.256,-804.224
225.456,588.04,-776.896,0.91,-0.77,0.84,249.856,640.256,-819.84
226.432,588.528,-778.36,0.77,-0.84,0.77,249.856,648.064,-819.84
227.408,588.528,-779.336,0.77,-0.84,0.77,242.048,632.448,-819.84
226.92,588.528,-779.336,0.63,-0.77,0.77,249.856,655.872,-819.84
228.384,589.504,-778.848,0.56,-0.77,0.7,273.28,655.872,-804.224
225.944,590.48,-777.872,0.42,-0.63,0.77,242.048,648.064,-804.224
225.944,589.504,-776.408,0.28,-0.77,0.77,249.856,640.256,-812.032
224.48,589.016,-775.92,0.21,-0.77,0.7,273.28,632.448,-812.032
225.944,587.552,-772.992,0.07,-0.84,0.63,242.048,632.448,-804.224
224.48,589.016,-771.528,0.14,-0.77,0.7,234.24,616.832,-835.456
225.944,589.504,-773.48,0.0,-0.84,0.56,273.28,648.064,-804.224
226.432,589.504,-773.968,-0.07,-0.84,0.49,257.664,640.256,-796.416
225.456,587.552,-774.944,-0.28,-0.77,0.56,234.24,624.64,-812.032
226.92,586.088,-773.48,-0.35,-0.77,0.56,249.856,640.256,-804.224
226.432,585.112,-772.504,-0.28,-0.56,0.7,265.472,616.832,-819.84
227.408,583.16,-770.064,-0.28,-0.7,0.7,257.664,616.832,-796.416
225.944,579.744,-771.04,-0.21,-0.56,0.7,249.856,609.024,-788.608
225.456,578.28,-768.112,-0.21,-0.63,0.77,265.472,609.024,-804.224
224.968,574.864,-768.6,-0.14,-0.63,0.63,242.048,624.64,-788.608
223.992,575.84,-767.136,-0.07,-0.7,0.56,249.856,624.64,-812.032
225.944,571.936,-768.112,0.0,-0.56,0.56,242.048,609.024,-796.416
225.944,572.424,-766.648,0.42,-0.56,0.49,281.088,632.448,-796.416
224.968,573.888,-760.304,0.63,-0.56,0.42,281.088,632.448,-812.032
222.04,577.304,-759.328,0.7,-0.63,0.49,257.664,624.64,-788.608
223.016,580.232,-761.768,0.91,-0.7,0.42,249.856,648.064,-788.608
222.04,582.184,-765.184,1.26,-0.63,0.63,249.856,632.448,-796.416
221.064,582.672,-764.696,1.4,-0.7,0.63,242.048,632.448,-796.416
218.624,585.6,-763.72,1.47,-0.77,0.63,234.24,640.256,-804.224
219.6,586.088,-766.16,1.47,-0.84,0.63,265.472,648.064,-780.8
221.064,588.04,-769.576,1.4,-0.91,0.7,265.472,640.256,-788.608
222.04,589.504,-771.04,1.33,-0.98,0.63,273.28,655.872,-804.224
222.528,591.944,-772.016,1.26,-0.98,0.56,273.28,648.064,-788.608
223.016,593.408,-771.04,1.19,-1.05,0.63,249.856,616.832,-804.224
225.456,596.336,-771.528,1.12,-1.05,0.7,234.24,648.064,-788.608
224.48,596.824,-772.992,0.91,-1.12,0.77,281.088,640.256,-780.8
226.92,599.752,-776.896,0.77,-1.26,0.84,242.048,640.256,-812.032
228.384,599.264,-775.92,0.63,-1.33,0.77,234.24,640.256,-812.032
230.824,597.8,-772.992,0.42,-1.4,0.84,265.472,648.064,-812.032
230.824,596.824,-772.992,0.28,-1.33,0.84,242.048,663.68,-804.224
229.848,593.896,-774.944,0.14,-1.26,0.84,257.664,640.256,-827.648
229.848,593.408,-774.456,0.14,-1.4,0.77,249.856,632.448,-780.8
229.36,591.944,-774.456,-0.07,-1.33,0.84,257.664,648.064,-812.032
229.36,591.456,-777.872,0.0,-1.33,0.84,273.28,640.256,-843.264
229.848,588.528,-780.312,-0.07,-1.54,0.91,249.856,632.448,-788.608
229.36,586.088,-779.336,0.07,-1.47,0.98,249.856,648.064,-796.416
229.36,583.648,-778.848,0.07,-1.47,0.98,257.664,624.64,-812.032
230.336,582.184,-780.8,0.21,-1.54,0.91,288.896,632.448,-812.032
230.824,578.768,-783.24,0.28,-1.54,0.98,242.048,640.256,-819.84
231.8,580.232,-782.264,0.56,-1.47,0.91,273.28,616.832,-804.224
232.288,578.768,-782.264,0.7,-1.4,0.84,273.28,632.448,-804.224
231.8,579.744,-782.752,0.91,-1.4,0.84,273.28,624.64,-827.648
228.872,581.208,-781.288,1.05,-1.4,0.77,273.28,609.024,-812.032
229.848,580.232,-778.848,1.19,-1.47,0.84,273.28,601.216,-812.032
229.848,580.232,-777.872,1.61,-1.54,0.98,257.664,624.64,-796.416
230.336,581.208,-776.896,1.96,-1.54,0.91,257.664,640.256,-819.84
229.848,579.744,-774.944,2.24,-1.47,1.12,249.856,616.832,-819.84
228.384,578.28,-775.432,2.38,-1.47,1.26,273.28,616.832,-827.648
229.36,575.84,-773.968,2.45,-1.68,1.33,249.856,640.256,-819.84
231.8,576.816,-775.92,2.59,-1.68,1.19,249.856,601.216,-812.032
231.312,577.304,-777.384,2.73,-1.61,1.05,265.472,616.832,-827.648
231.312,578.28,-777.384,2.73,-1.54,1.05,265.472,616.832,-788.608
229.36,580.232,-775.432,2.8,-1.61,1.05,273.28,632.448,-788.608
230.824,582.672,-775.92,2.94,-1.61,0.98,265.472,632.448,-812.032
231.8,585.6,-775.92,2.94,-1.54,1.19,257.664,616.832,-804.224
232.776,587.064,-773.48,2.94,-1.47,1.26,273.28,624.64,-804.224
230.824,588.04,-774.944,2.87,-1.47,1.33,265.472,632.448,-788.608
230.336,586.576,-775.92,2.8,-1.4,1.26,273.28,632.448,-819.84
228.872,588.04,-773.968,2.73,-1.4,1.26,257.664,624.64,-796.416
227.896,589.016,-772.504,2.59,-1.47,1.26,265.472,648.064,-788.608
224.48,587.552,-770.064,2.52,-1.4,1.26,265.472,624.64,-796.416
223.992,588.528,-769.088,2.24,-1.47,1.26,234.24,648.064,-788.608
223.016,589.016,-770.064,2.03,-1.4,1.33,242.048,632.448,-804.224
221.552,589.016,-766.16,1.89,-1.4,1.33,265.472,655.872,-804.224
222.04,589.504,-767.136,1.68,-1.33,1.4,257.664,632.448,-804.224
223.016,588.528,-769.088,1.54,-1.54,1.4,265.472,632.448,-796.416
222.528,587.552,-770.552,1.4,-1.33,1.54,249.856,640.256,-796.416
222.528,586.088,-774.944,1.19,-1.54,1.4,273.28,632.448,-812.032
223.992,584.136,-776.408,1.12,-1.4,1.4,265.472,632.448,-812.032
222.528,585.112,-780.8,0.98,-1.26,1.4,265.472,632.448,-804.224
221.552,584.624,-782.264,0.98,-1.4,1.47,257.664,632.448,-812.032
222.528,585.112,-785.192,0.84,-1.33,1.33,257.664,648.064,-819.84
224.48,586.576,-791.048,0.63,-1.33,1.4,273.28,648.064,-827.648
224.968,588.528,-797.392,0.49,-1.4,1.33,257.664,640.256,-827.648
226.92,590.48,-800.32,0.42,-1.4,1.33,265.472,640.256,-827.648
228.384,593.408,-799.832,0.28,-1.26,1.33,257.664,624.64,-835.456
227.896,595.848,-799.832,0.07,-1.33,1.26,273.28,648.064,-835.456
229.36,597.312,-797.88,0.0,-1.26,1.26,257.664,648.064,-843.264
229.36,598.776,-796.904,-0.21,-1.26,1.19,249.856,640.256,-843.264
230.336,599.752,-797.88,-0.42,-1.19,1.19,265.472,648.064,-804.224
230.336,600.728,-795.44,-0.49,-1.19,1.19,288.896,640.256,-843.264
229.36,600.24,-794.464,-0.63,-1.12,1.4,265.472,648.064,-835.456
230.336,597.312,-793.488,-0.7,-1.05,1.33,273.28,632.448,-804.224
228.872,594.384,-792.024,-0.7,-0.98,1.47,242.048,648.064,-819.84
229.848,592.92,-790.56,-0.77,-0.98,1.54,242.048,640.256,-812.032
229.36,589.504,-788.608,-0.7,-0.84,1.61,257.664,640.256,-827.648
229.36,585.6,-787.632,-0.63,-0.7,1.61,281.088,624.64,-819.84
227.408,582.672,-785.68,-0.56,-0.7,1.68,273.28,640.256,-804.224
224.968,580.232,-785.192,-0.49,-0.7,1.61,249.856,624.64,-796.416
225.456,577.792,-782.264,-0.42,-0.77,1.54,265.472,609.024,-804.224
226.432,577.792,-781.288,-0.35,-0.7,1.54,249.856,624.64,-788.608
226.92,574.864,-780.8,-0.21,-0.77,1.47,281.088,609.024,-812.032
226.432,575.84,-779.824,-0.14,-0.7,1.47,265.472,655.872,-804.224
226.432,574.864,-779.336,-0.07,-0.7,1.4,242.048,609.024,-804.224
226.432,574.376,-775.92,0.07,-0.7,1.47,273.28,601.216,-819.84
223.992,574.864,-775.432,0.21,-0.56,1.47,273.28,624.64,-819.84
224.48,576.328,-774.456,0.35,-0.63,1.33,257.664,640.256,-796.416
222.04,577.792,-773.48,0.35,-0.56,1.4,265.472,616.832,-812.032
221.552,580.232,-771.528,0.49,-0.56,1.33,257.664,640.256,-804.224
223.016,581.208,-772.992,0.42,-0.63,1.4,257.664,624.64,-819.84
223.504,582.672,-773.968,0.42,-0.56,1.4,234.24,624.64,-804.224
223.016,583.16,-773.968,0.42,-0.56,1.33,265.472,640.256,-796.416
224.48,582.672,-775.92,0.28,-0.56,1.4,265.472,632.448,-812.032
223.016,582.184,-775.92,0.21,-0.56,1.33,249.856,616.832,-812.032
223.016,581.208,-773.968,-0.07,-0.42,1.26,273.28,632.448,-812.032
223.016,583.16,-774.944,0.0,-0.49,1.19,242.048,616.832,-804.224
221.064,582.184,-772.504,-0.07,-0.42,1.26,249.856,648.064,-835.456
220.576,582.184,-771.04,-0.07,-0.56,1.26,218.624,640.256,-796.416
219.6,582.672,-772.016,-0.07,-0.56,1.4,249.856,624.64,-796.416
217.16,583.648,-769.088,-0.07,-0.7,1.47,249.856,624.64,-812.032
215.696,583.648,-769.576,0.07,-0.77,1.54,257.664,640.256,-780.8
216.184,583.648,-768.6,0.0,-0.91,1.61,249.856,640.256,-796.416
217.648,583.648,-767.624,0.0,-1.12,1.68,257.664,655.872,-796.416
220.088,583.648,-767.624,0.0,-1.26,1.68,265.472,624.64,-788.608
221.064,582.184,-767.136,-0.14,-1.26,1.75,218.624,624.64,-788.608
223.992,582.672,-768.6,-0.14,-1.33,1.68,249.856,632.448,-796.416
226.92,581.696,-765.184,-0.21,-1.54,1.75,234.24,609.024,-812.032
229.848,581.696,-766.16,-0.14,-1.61,1.68,249.856,601.216,-780.8
229.848,579.744,-768.6,-0.21,-1.68,1.75,257.664,624.64,-812.032
230.824,577.792,-770.064,-0.21,-1.82,1.68,273.28,616.832,-804.224
231.8,576.816,-772.016,-0.14,-1.89,1.68,265.472,585.6,-827.648
232.776,575.352,-774.944,-0.07,-2.03,1.68,281.088,616.832,-788.608
233.752,574.864,-777.384,0.0,-2.1,1.75,265.472,616.832,-819.84
233.264,576.328,-779.336,0.14,-2.17,1.68,249.856,609.024,-796.416
233.264,575.352,-778.848,0.35,-2.17,1.61,257.664,624.64,-804.224
