acc_l_x[mg],acc_l_y[mg],acc_l_z[mg],gyro_x[dps],gyro_y[dps],gyro_z[dps],acc_h_x[mg],acc_h_y[mg],acc_h_z[mg]
328.424,733.464,-686.616,24.85,-6.44,5.32,343.552,757.376,-741.76
327.936,736.392,-691.008,23.17,-6.44,5.39,359.168,772.992,-710.528
328.912,736.88,-691.984,21.63,-6.44,5.32,359.168,780.8,-710.528
332.328,741.76,-692.472,20.16,-6.37,5.25,351.36,780.8,-718.336
333.792,741.76,-692.96,18.76,-6.3,5.25,366.976,772.992,-726.144
334.28,739.32,-689.544,17.29,-6.16,5.11,366.976,780.8,-718.336
337.208,737.856,-687.104,15.96,-6.16,5.18,359.168,796.416,-733.952
338.672,737.368,-685.64,14.63,-6.02,5.32,359.168,788.608,-718.336
340.624,733.464,-684.176,13.44,-6.02,5.32,390.4,765.184,-702.72
340.136,734.44,-678.808,12.18,-5.81,5.32,366.976,796.416,-718.336
339.16,729.56,-673.44,11.06,-5.67,5.39,351.36,772.992,-710.528
335.744,728.584,-667.096,10.01,-5.74,5.53,343.552,765.184,-694.912
334.28,724.192,-659.776,8.96,-5.88,5.53,359.168,749.568,-702.72
331.84,719.8,-652.456,8.05,-5.81,5.6,366.976,749.568,-671.488
331.352,716.384,-649.528,7.28,-6.02,5.74,351.36,757.376,-655.872
333.304,713.456,-649.04,6.58,-6.09,5.74,343.552,765.184,-679.296
331.84,709.064,-650.504,5.95,-6.16,5.74,351.36,765.184,-679.296
330.376,705.648,-650.992,5.53,-6.02,5.81,335.744,780.8,-679.296
329.4,699.304,-651.48,5.18,-6.09,5.81,366.976,710.528,-671.488
328.912,693.936,-653.92,4.97,-6.09,6.02,366.976,749.568,-710.528
328.424,689.056,-654.896,4.55,-5.95,6.16,343.552,741.76,-694.912
325.984,680.272,-653.92,4.2,-5.81,6.16,366.976,733.952,-694.912
320.616,678.32,-655.384,3.64,-5.74,6.16,359.168,733.952,-694.912
319.152,673.928,-652.944,3.01,-5.74,6.02,327.936,726.144,-687.104
315.248,671.488,-651.48,2.31,-5.67,5.74,335.744,710.528,-694.912
311.344,671.488,-650.992,1.75,-5.81,5.53,335.744,733.952,-679.296
312.808,671.488,-651.968,1.33,-5.88,5.39,343.552,710.528,-694.912
311.832,671.976,-654.408,1.05,-6.02,5.25,327.936,741.76,-702.72
312.808,671.976,-652.944,0.77,-6.16,5.32,320.128,733.952,-694.912
314.272,670.024,-656.36,0.77,-6.23,5.46,359.168,726.144,-694.912
317.2,668.072,-655.384,0.77,-6.3,5.6,359.168,718.336,-687.104
320.128,661.728,-656.848,0.91,-6.44,5.81,343.552,710.528,-702.72
324.032,657.824,-656.36,1.33,-6.3,6.09,359.168,702.72,-679.296
326.472,652.456,-657.824,1.61,-6.23,6.37,343.552,679.296,-687.104
327.936,647.088,-656.36,1.89,-6.16,6.51,351.36,687.104,-687.104
329.888,642.208,-655.872,2.38,-5.95,6.58,366.976,702.72,-687.104
329.888,636.352,-654.896,2.87,-5.88,6.37,359.168,694.912,-687.104
328.424,633.912,-651.968,3.36,-5.74,6.16,359.168,671.488,-694.912
328.912,632.936,-650.504,3.85,-5.6,5.74,335.744,679.296,-679.296
327.936,633.424,-650.504,4.41,-5.53,5.39,343.552,687.104,-687.104
326.96,636.352,-653.432,4.76,-5.74,5.04,320.128,702.72,-687.104
328.912,638.304,-654.896,5.32,-5.74,4.76,351.36,687.104,-694.912
328.424,642.696,-657.824,5.6,-5.74,4.55,366.976,710.528,-702.72
329.888,647.088,-658.312,5.95,-5.81,4.41,351.36,710.528,-671.488
330.864,652.456,-660.264,6.3,-5.67,4.27,359.168,694.912,-687.104
332.328,657.824,-661.728,6.51,-5.53,4.13,351.36,694.912,-702.72
331.84,664.168,-665.632,6.44,-5.25,3.92,351.36,694.912,-687.104
329.888,667.584,-669.048,6.3,-5.11,3.64,351.36,718.336,-694.912
330.864,670.512,-668.072,6.3,-5.11,3.5,366.976,718.336,-702.72
333.304,674.416,-667.584,6.65,-5.25,3.57,366.976,718.336,-702.72
333.792,673.44,-674.904,6.86,-5.04,3.71,335.744,718.336,-687.104
336.232,671.488,-678.808,6.93,-4.9,3.85,382.592,718.336,-687.104
336.72,670.512,-680.76,6.93,-4.69,3.92,359.168,733.952,-726.144
337.208,671.0,-681.248,6.72,-4.55,3.99,343.552,726.144,-702.72
337.208,668.56,-683.2,6.44,-4.41,3.99,359.168,726.144,-710.528
336.232,668.072,-683.2,6.16,-4.48,3.99,374.784,757.376,-733.952
337.208,669.536,-683.2,5.88,-4.27,3.85,359.168,694.912,-718.336
338.184,672.952,-684.664,5.6,-4.2,3.78,351.36,757.376,-702.72
337.696,677.344,-685.152,5.11,-4.13,3.5,359.168,718.336,-694.912
336.72,681.248,-680.76,4.76,-4.06,3.43,382.592,733.952,-710.528
336.72,686.616,-681.736,4.2,-4.06,3.43,366.976,733.952,-710.528
338.184,691.008,-680.76,3.71,-4.06,3.15,374.784,726.144,-694.912
338.184,697.84,-681.248,3.15,-4.13,3.01,359.168,749.568,-694.912
341.112,702.72,-681.248,2.73,-3.99,3.08,398.208,733.952,-733.952
340.624,707.112,-681.248,2.17,-3.85,3.08,366.976,733.952,-733.952
343.552,710.528,-681.736,1.47,-3.92,3.22,398.208,726.144,-687.104
343.064,711.992,-675.392,0.7,-3.64,3.29,374.784,718.336,-718.336
342.088,710.04,-671.488,0.0,-3.36,3.36,366.976,765.184,-710.528
341.112,708.576,-669.048,-0.63,-3.22,3.36,382.592,765.184,-726.144
339.648,706.136,-666.12,-1.33,-3.29,3.36,366.976,772.992,-687.104
337.208,705.16,-666.12,-2.1,-3.15,3.29,366.976,749.568,-687.104
335.256,702.232,-663.192,-2.73,-3.15,3.29,366.976,765.184,-679.296
334.28,699.304,-664.168,-3.36,-3.08,3.15,351.36,749.568,-702.72
334.28,696.376,-662.216,-3.85,-3.01,3.15,359.168,741.76,-687.104
331.84,692.472,-660.264,-4.48,-3.08,3.01,382.592,749.568,-663.68
332.328,690.032,-661.24,-4.9,-3.08,2.94,359.168,765.184,-679.296
333.304,687.592,-660.264,-5.39,-3.22,2.73,351.36,749.568,-687.104
333.304,684.664,-661.728,-5.74,-3.15,2.52,390.4,733.952,-687.104
333.304,683.2,-660.264,-6.3,-3.22,2.38,351.36,757.376,-694.912
331.352,682.224,-660.264,-6.86,-3.08,2.17,351.36,702.72,-694.912
331.352,681.248,-659.776,-7.42,-3.08,1.96,351.36,702.72,-694.912
332.328,681.248,-660.752,-7.91,-3.22,1.75,390.4,718.336,-702.72
333.304,680.272,-664.168,-8.47,-3.29,1.68,335.744,741.76,-702.72
335.744,680.272,-669.536,-8.75,-3.22,1.61,366.976,733.952,-710.528
337.208,679.784,-670.512,-9.03,-3.08,1.54,366.976,718.336,-687.104
338.184,679.784,-674.416,-9.31,-2.94,1.61,374.784,726.144,-726.144
340.136,676.856,-674.904,-9.59,-2.73,1.61,374.784,726.144,-718.336
341.6,673.928,-677.344,-9.59,-2.52,1.61,374.784,726.144,-694.912
343.064,670.024,-676.856,-9.52,-2.31,1.75,382.592,710.528,-749.568
344.04,665.632,-677.344,-9.31,-2.1,1.75,359.168,733.952,-718.336
341.6,661.24,-674.904,-9.03,-1.89,1.75,366.976,702.72,-726.144
341.112,658.312,-676.368,-8.68,-1.61,1.75,366.976,694.912,-702.72
337.696,653.432,-674.904,-8.26,-1.4,1.54,343.552,702.72,-710.528
336.72,650.016,-674.416,-7.84,-1.33,1.54,351.36,733.952,-718.336
332.816,649.04,-678.32,-7.28,-1.19,1.47,351.36,702.72,-710.528
332.328,646.6,-680.76,-6.79,-1.05,1.4,374.784,718.336,-733.952
334.28,647.088,-683.2,-6.23,-1.12,1.33,366.976,694.912,-718.336
333.792,646.112,-685.64,-5.6,-0.98,1.33,382.592,710.528,-718.336
333.792,645.624,-684.664,-4.83,-0.7,1.33,343.552,710.528,-702.72
332.816,645.624,-682.224,-4.2,-0.56,1.33,343.552,679.296,-726.144
333.304,646.112,-680.272,-3.43,-0.28,1.4,359.168,710.528,-679.296
330.864,645.624,-675.88,-2.8,-0.14,1.4,366.976,710.528,-694.912
329.4,647.576,-671.0,-2.1,0.07,1.4,359.168,694.912,-687.104
325.984,647.088,-669.048,-1.4,0.07,1.54,351.36,694.912,-687.104
323.056,648.064,-667.584,-0.63,0.21,1.61,343.552,694.912,-687.104
322.568,650.992,-665.144,0.21,0.07,1.75,351.36,687.104,-694.912
321.104,651.48,-665.144,0.7,-0.14,1.89,351.36,702.72,-694.912
321.592,651.48,-661.728,1.26,-0.14,1.96,351.36,671.488,-679.296
323.544,652.944,-661.24,1.61,-0.14,2.03,351.36,679.296,-702.72
322.568,654.896,-660.752,1.89,-0.35,1.89,343.552,687.104,-702.72
324.52,658.312,-660.752,2.17,-0.42,1.75,366.976,694.912,-679.296
325.984,661.728,-659.776,2.45,-0.42,1.68,366.976,726.144,-702.72
325.496,666.12,-658.312,2.59,-0.42,1.68,351.36,702.72,-694.912
325.984,671.488,-659.288,2.73,-0.35,1.61,359.168,726.144,-655.872
326.96,676.856,-659.288,2.8,-0.42,1.47,343.552,726.144,-702.72
327.936,681.736,-661.24,2.8,-0.56,1.47,335.744,718.336,-694.912
330.376,685.152,-664.656,2.59,-0.49,1.47,351.36,718.336,-702.72
330.376,689.056,-666.12,2.38,-0.49,1.47,343.552,741.76,-694.912
333.304,691.984,-670.512,2.24,-0.56,1.54,343.552,749.568,-726.144
334.28,692.96,-671.976,2.1,-0.35,1.54,359.168,741.76,-687.104
335.256,693.936,-670.512,2.03,-0.35,1.61,359.168,749.568,-687.104
337.208,697.352,-668.56,1.96,-0.28,1.61,382.592,733.952,-718.336
335.744,696.376,-664.168,1.82,-0.07,1.68,374.784,741.76,-702.72
333.304,696.376,-663.192,1.75,0.07,1.82,343.552,741.76,-702.72
329.888,694.912,-659.776,1.47,0.0,1.89,351.36,757.376,-694.912
329.4,694.424,-661.728,1.19,0.14,1.96,335.744,749.568,-694.912
328.424,693.448,-660.264,0.77,0.21,1.96,374.784,718.336,-679.296
326.472,690.52,-656.36,0.35,0.14,2.03,359.168,757.376,-679.296
326.96,689.056,-654.896,-0.07,0.14,1.82,359.168,718.336,-694.912
324.52,687.592,-652.944,-0.42,0.07,1.75,366.976,718.336,-687.104
324.032,685.64,-649.528,-0.77,0.14,1.68,351.36,733.952,-663.68
322.08,683.688,-647.088,-0.98,0.07,1.61,343.552,733.952,-679.296
321.592,682.712,-645.136,-1.19,0.21,1.61,335.744,702.72,-663.68
320.128,680.272,-643.672,-1.33,0.14,1.54,374.784,718.336,-679.296
319.64,677.832,-641.72,-1.4,0.07,1.54,343.552,710.528,-663.68
318.176,676.368,-645.136,-1.54,-0.07,1.54,343.552,726.144,-663.68
319.64,675.88,-644.16,-1.89,-0.14,1.4,320.128,710.528,-679.296
319.64,676.368,-645.624,-1.96,-0.28,1.4,335.744,726.144,-671.488
320.128,674.904,-649.04,-2.03,-0.28,1.26,351.36,710.528,-671.488
321.592,673.928,-650.016,-2.17,-0.35,1.12,374.784,710.528,-694.912
323.056,671.488,-651.968,-2.1,-0.35,1.05,366.976,726.144,-702.72
322.08,672.464,-652.944,-2.17,-0.42,0.98,335.744,718.336,-687.104
322.568,671.0,-654.408,-2.17,-0.42,0.98,327.936,726.144,-694.912
323.056,670.024,-655.384,-2.03,-0.28,0.91,359.168,694.912,-694.912
323.056,668.072,-654.408,-2.1,-0.21,0.84,351.36,687.104,-679.296
324.032,666.608,-652.944,-2.03,-0.21,0.84,335.744,702.72,-687.104
322.568,666.12,-655.384,-1.89,-0.21,0.77,374.784,710.528,-687.104
323.544,665.144,-657.336,-1.68,-0.14,0.77,351.36,718.336,-694.912
323.544,664.656,-661.24,-1.54,-0.14,0.77,351.36,694.912,-694.912
325.496,662.216,-665.144,-1.33,-0.21,0.77,335.744,749.568,-710.528
325.496,661.728,-669.048,-0.98,-0.21,0.77,335.744,710.528,-687.104
327.936,662.216,-669.536,-0.56,-0.21,0.77,343.552,679.296,-694.912
329.4,661.24,-669.536,-0.35,0.0,0.77,359.168,718.336,-694.912
328.912,661.24,-669.536,0.07,0.07,0.63,366.976,718.336,-710.528
328.424,662.216,-672.464,0.35,0.14,0.63,351.36,702.72,-710.528
327.936,663.68,-671.488,0.7,0.28,0.63,343.552,733.952,-687.104
328.912,667.584,-674.416,1.05,0.42,0.56,359.168,710.528,-710.528
325.496,669.048,-673.928,1.33,0.49,0.56,366.976,710.528,-694.912
326.472,671.976,-675.392,1.68,0.49,0.63,335.744,733.952,-694.912
327.448,674.416,-674.904,2.03,0.56,0.77,366.976,733.952,-702.72
326.96,675.392,-675.392,2.24,0.77,0.77,390.4,702.72,-694.912
326.472,677.344,-673.44,2.38,0.91,0.84,320.128,718.336,-702.72
325.984,677.344,-667.584,2.66,1.05,0.91,351.36,733.952,-687.104
325.496,678.32,-668.072,2.8,1.26,0.98,366.976,718.336,-702.72
322.08,679.296,-665.144,2.94,1.26,0.98,343.552,718.336,-710.528
321.104,680.272,-661.24,3.08,1.26,1.12,351.36,702.72,-679.296
319.64,681.736,-661.24,3.29,1.26,1.19,335.744,726.144,-694.912
317.688,683.2,-658.8,3.36,1.19,1.26,343.552,718.336,-687.104
320.128,684.664,-658.312,3.5,1.12,1.26,327.936,710.528,-702.72
318.664,685.152,-656.36,3.5,1.12,1.26,343.552,741.76,-694.912
320.128,686.128,-653.92,3.5,1.19,1.26,351.36,710.528,-687.104
319.64,686.616,-651.968,3.43,1.12,1.26,327.936,733.952,-663.68
319.152,689.056,-651.968,3.29,1.05,1.26,343.552,718.336,-671.488
318.664,689.544,-649.04,3.15,1.05,1.33,343.552,749.568,-710.528
319.64,692.96,-649.04,2.87,1.19,1.4,351.36,749.568,-679.296
319.152,693.936,-648.064,2.73,1.12,1.4,343.552,733.952,-671.488
319.152,697.84,-645.136,2.45,1.05,1.47,351.36,749.568,-679.296
319.152,698.328,-643.184,2.17,0.98,1.47,366.976,765.184,-679.296
318.176,698.328,-641.72,1.82,0.84,1.4,327.936,741.76,-694.912
319.152,700.28,-642.208,1.26,0.56,1.4,327.936,741.76,-671.488
317.688,701.744,-642.696,0.77,0.56,1.47,343.552,741.76,-663.68
319.64,700.768,-645.624,0.28,0.49,1.26,343.552,741.76,-687.104
321.104,700.768,-651.48,-0.28,0.35,1.26,343.552,749.568,-687.104
322.08,693.936,-652.944,-0.63,0.28,1.26,359.168,757.376,-687.104
324.032,692.472,-655.384,-0.84,0.35,1.26,351.36,741.76,-694.912
325.496,687.104,-654.896,-1.05,0.42,1.4,366.976,726.144,-694.912
325.496,684.664,-651.968,-1.33,0.56,1.47,359.168,749.568,-694.912
320.128,679.296,-650.504,-1.96,0.77,1.54,343.552,733.952,-694.912
316.712,678.32,-650.992,-2.45,0.77,1.54,343.552,718.336,-663.68
316.712,676.368,-653.92,-2.94,0.7,1.19,351.36,741.76,-655.872
314.76,676.856,-656.848,-3.08,0.56,0.98,335.744,718.336,-679.296
316.712,678.808,-654.896,-2.94,0.42,0.98,320.128,733.952,-679.296
316.712,682.712,-655.384,-2.73,0.28,0.91,366.976,718.336,-694.912
318.176,683.688,-650.504,-2.24,0.07,0.98,351.36,718.336,-687.104
320.128,683.2,-645.136,-1.82,0.07,1.26,327.936,741.76,-702.72
320.616,680.272,-639.768,-1.54,-0.07,1.4,327.936,718.336,-663.68
319.64,674.904,-637.816,-1.4,0.0,1.54,343.552,733.952,-694.912
318.176,670.024,-640.256,-1.4,-0.07,1.61,351.36,718.336,-679.296
316.712,666.608,-642.696,-1.47,-0.14,1.61,327.936,687.104,-679.296
316.224,662.216,-648.064,-1.47,-0.14,1.4,335.744,718.336,-694.912
315.248,659.776,-650.016,-1.47,-0.28,1.19,351.36,694.912,-663.68
311.832,661.24,-652.456,-1.26,-0.42,0.98,343.552,733.952,-694.912
312.808,661.24,-653.432,-1.12,-0.56,0.84,335.744,687.104,-671.488
314.76,663.192,-652.944,-0.91,-0.7,0.56,351.36,694.912,-679.296
315.248,666.12,-649.528,-0.7,-0.7,0.56,366.976,694.912,-671.488
318.176,665.632,-653.432,-0.63,-0.98,0.42,335.744,733.952,-679.296
318.664,670.024,-656.848,-0.63,-1.05,0.42,343.552,718.336,-679.296
321.592,671.0,-657.336,-0.63,-1.05,0.49,335.744,710.528,-694.912
323.056,671.976,-660.264,-0.42,-1.05,0.49,343.552,733.952,-687.104
324.52,671.976,-662.704,-0.28,-0.98,0.56,343.552,694.912,-694.912
325.496,673.928,-662.704,-0.07,-0.91,0.56,366.976,726.144,-718.336
324.032,674.904,-665.144,0.0,-0.84,0.56,366.976,710.528,-702.72
323.056,675.88,-664.168,0.0,-0.63,0.56,343.552,726.144,-694.912
321.592,676.856,-664.656,0.0,-0.56,0.42,343.552,726.144,-694.912
320.616,677.832,-664.656,0.0,-0.42,0.21,320.128,726.144,-679.296
318.664,680.76,-663.68,-0.14,-0.49,0.07,359.168,710.528,-687.104
317.688,682.224,-665.144,-0.35,-0.49,0.0,359.168,710.528,-694.912
317.2,682.224,-666.12,-0.42,-0.49,0.0,335.744,749.568,-718.336
319.152,683.2,-669.048,-0.42,-0.56,-0.14,343.552,718.336,-710.528
318.664,685.64,-669.048,-0.42,-0.7,-0.07,343.552,741.76,-702.72
321.592,684.664,-671.488,-0.49,-0.77,-0.07,351.36,726.144,-702.72
324.52,685.152,-673.44,-0.56,-0.7,0.0,335.744,710.528,-702.72
325.496,684.176,-672.952,-0.56,-0.63,0.0,390.4,733.952,-702.72
326.472,683.688,-670.512,-0.56,-0.42,0.14,366.976,741.76,-710.528
325.008,683.2,-669.048,-0.63,-0.28,0.21,390.4,733.952,-718.336
324.032,683.688,-671.488,-0.63,-0.21,0.21,351.36,710.528,-702.72
323.056,680.272,-670.512,-0.63,0.14,0.28,359.168,726.144,-702.72
320.128,675.88,-667.584,-0.49,0.28,0.28,359.168,702.72,-702.72
319.152,672.952,-667.096,-0.28,0.28,0.28,351.36,710.528,-702.72
319.152,670.024,-664.656,-0.07,0.35,0.28,351.36,718.336,-694.912
318.176,667.584,-660.264,-0.07,0.42,0.35,335.744,702.72,-710.528
315.248,664.168,-655.384,-0.14,0.35,0.35,327.936,726.144,-694.912
314.76,663.192,-653.432,-0.21,0.21,0.21,335.744,726.144,-694.912
313.784,664.168,-656.848,-0.28,0.21,0.0,335.744,694.912,-687.104
313.296,666.608,-664.656,-0.35,0.0,-0.21,327.936,726.144,-671.488
313.784,671.0,-668.072,-0.42,-0.07,-0.28,359.168,741.76,-710.528
317.688,676.856,-671.488,-0.35,-0.21,-0.35,320.128,726.144,-702.72
320.128,681.248,-672.464,-0.28,-0.21,-0.49,359.168,702.72,-710.528
322.568,686.616,-670.512,-0.14,-0.21,-0.56,359.168,749.568,-694.912
323.056,691.496,-665.632,-0.07,-0.07,-0.42,351.36,749.568,-694.912
325.496,694.424,-660.752,0.14,-0.07,-0.42,366.976,733.952,-687.104
324.52,695.888,-654.408,0.14,0.14,-0.28,335.744,749.568,-663.68
322.568,694.912,-651.968,0.0,0.14,-0.07,335.744,749.568,-671.488
320.616,692.472,-651.48,-0.07,0.07,0.07,335.744,733.952,-671.488
321.104,689.056,-653.432,-0.35,0.0,0.14,343.552,749.568,-679.296
322.568,685.64,-654.408,-0.63,-0.07,0.21,351.36,765.184,-679.296
322.08,683.688,-658.8,-0.84,-0.14,0.14,343.552,733.952,-687.104
322.08,681.248,-658.8,-1.12,-0.07,0.07,343.552,733.952,-694.912
322.08,678.32,-658.8,-1.26,-0.14,-0.07,312.32,710.528,-679.296
322.08,676.856,-656.848,-1.26,-0.14,-0.14,343.552,733.952,-687.104
321.592,674.416,-656.36,-1.4,-0.07,-0.28,366.976,718.336,-687.104
318.176,673.928,-652.944,-1.33,-0.07,-0.28,343.552,726.144,-694.912
318.176,674.416,-652.944,-1.26,-0.14,-0.28,343.552,726.144,-687.104
318.176,674.416,-652.944,-1.33,-0.07,-0.35,335.744,687.104,-694.912
317.2,673.44,-652.944,-1.47,-0.21,-0.35,359.168,710.528,-679.296
315.736,672.952,-655.872,-1.54,-0.28,-0.35,359.168,726.144,-671.488
316.224,674.904,-657.824,-1.61,-0.28,-0.49,374.784,710.528,-679.296
316.224,674.904,-661.24,-1.68,-0.28,-0.42,343.552,741.76,-710.528
315.248,675.88,-663.192,-1.82,-0.42,-0.42,343.552,741.76,-702.72
316.712,676.856,-663.192,-1.68,-0.28,-0.35,351.36,702.72,-694.912
316.712,675.392,-663.68,-1.82,-0.21,-0.28,351.36,741.76,-671.488
317.688,674.416,-663.192,-1.89,-0.14,-0.35,359.168,718.336,-694.912
316.712,671.976,-665.144,-1.89,-0.14,-0.35,359.168,718.336,-694.912
317.2,671.976,-664.656,-1.96,0.07,-0.35,382.592,710.528,-679.296
316.224,670.512,-668.072,-1.96,0.0,-0.49,327.936,733.952,-702.72
317.688,671.0,-669.048,-1.89,0.21,-0.56,351.36,718.336,-710.528
318.664,672.464,-676.368,-1.96,0.14,-0.56,359.168,741.76,-710.528
319.64,672.464,-678.808,-1.75,0.21,-0.56,343.552,702.72,-710.528
322.08,671.488,-680.76,-1.75,0.28,-0.35,335.744,694.912,-718.336
322.568,671.488,-679.296,-1.61,0.49,-0.35,351.36,718.336,-718.336
322.568,670.512,-676.856,-1.54,0.56,-0.35,327.936,710.528,-694.912
323.544,670.512,-674.416,-1.33,0.63,-0.42,335.744,726.144,-710.528
322.568,672.952,-674.416,-1.26,0.91,-0.49,343.552,702.72,-702.72
321.592,674.416,-672.952,-1.19,1.19,-0.42,366.976,726.144,-702.72
320.128,675.392,-670.512,-1.26,1.19,-0.49,359.168,741.76,-694.912
318.664,676.856,-671.0,-1.26,1.4,-0.49,351.36,726.144,-702.72
317.2,676.856,-671.0,-1.26,1.4,-0.49,351.36,710.528,-694.912
316.712,679.784,-671.0,-1.12,1.47,-0.42,351.36,718.336,-702.72
317.2,679.296,-670.512,-1.19,1.54,-0.42,359.168,733.952,-694.912
316.224,680.272,-671.0,-1.26,1.61,-0.35,374.784,718.336,-718.336
316.224,680.76,-668.56,-1.12,1.61,-0.28,359.168,741.76,-710.528
314.76,681.248,-670.024,-1.26,1.61,-0.28,327.936,718.336,-687.104
314.272,681.736,-670.512,-1.19,1.61,-0.28,320.128,710.528,-718.336
314.76,681.736,-670.024,-1.4,1.61,-0.28,359.168,718.336,-710.528
316.224,681.248,-669.048,-1.47,1.61,-0.21,343.552,726.144,-687.104
318.664,680.76,-668.072,-1.68,1.54,-0.28,312.32,726.144,-694.912
319.64,680.76,-666.12,-1.61,1.61,-0.42,351.36,702.72,-702.72
320.128,678.32,-664.656,-1.68,1.61,-0.42,343.552,726.144,-702.72
320.128,678.808,-662.216,-1.75,1.54,-0.42,320.128,749.568,-702.72
321.104,679.296,-661.728,-1.82,1.54,-0.42,335.744,733.952,-694.912
320.128,676.856,-659.776,-1.96,1.61,-0.42,327.936,726.144,-694.912
321.104,676.856,-659.288,-2.1,1.54,-0.49,327.936,733.952,-687.104
321.592,676.368,-655.384,-2.24,1.54,-0.49,351.36,733.952,-679.296
319.64,674.904,-657.336,-2.38,1.54,-0.49,366.976,710.528,-694.912
319.152,675.88,-653.92,-2.38,1.47,-0.56,359.168,718.336,-687.104
319.64,674.416,-651.48,-2.52,1.47,-0.49,351.36,718.336,-655.872
319.64,674.416,-648.064,-2.45,1.4,-0.49,351.36,733.952,-679.296
318.176,671.488,-648.064,-2.38,1.19,-0.56,382.592,702.72,-679.296
318.664,670.024,-644.648,-2.31,1.12,-0.56,359.168,710.528,-679.296
317.688,670.024,-643.672,-2.38,1.12,-0.56,335.744,733.952,-679.296
317.688,670.024,-643.672,-2.31,1.12,-0.56,343.552,694.912,-679.296
317.2,669.048,-641.72,-2.31,0.98,-0.63,359.168,710.528,-671.488
315.736,668.072,-639.28,-2.31,0.91,-0.63,343.552,694.912,-671.488
315.736,669.048,-639.28,-2.17,0.84,-0.77,335.744,702.72,-655.872
314.272,670.024,-636.84,-2.24,0.84,-0.7,351.36,710.528,-679.296
314.272,670.512,-632.936,-2.03,0.84,-0.63,335.744,702.72,-679.296
313.296,671.0,-634.888,-1.96,0.84,-0.49,327.936,718.336,-671.488
312.32,671.0,-634.4,-1.75,0.63,-0.42,359.168,710.528,-671.488
311.832,670.512,-637.816,-1.54,0.49,-0.35,335.744,718.336,-702.72
311.344,671.0,-642.208,-1.19,0.28,-0.28,343.552,710.528,-671.488
312.32,671.488,-647.088,-0.91,0.28,-0.21,343.552,726.144,-663.68
314.272,670.512,-650.016,-0.63,0.14,-0.14,351.36,741.76,-679.296
314.272,668.56,-653.432,-0.28,0.0,-0.07,335.744,687.104,-671.488
315.248,669.536,-655.384,0.14,-0.07,-0.14,343.552,718.336,-687.104
317.2,668.072,-656.36,0.35,-0.14,-0.14,327.936,749.568,-694.912
318.176,671.0,-659.288,0.56,-0.14,-0.14,366.976,710.528,-702.72
318.176,671.976,-661.24,0.77,-0.14,-0.14,366.976,710.528,-694.912
320.128,672.952,-664.656,0.91,-0.21,-0.28,335.744,718.336,-710.528
320.616,677.344,-666.608,1.05,-0.21,-0.28,359.168,726.144,-687.104
322.08,679.784,-667.584,1.19,-0.21,-0.35,359.168,710.528,-702.72
324.032,683.2,-671.0,1.19,-0.21,-0.35,359.168,710.528,-710.528
325.008,686.616,-674.904,1.12,-0.28,-0.49,366.976,733.952,-710.528
325.984,689.056,-680.76,1.05,-0.14,-0.49,343.552,733.952,-702.72
327.936,687.592,-685.152,1.12,-0.07,-0.42,359.168,741.76,-710.528
330.376,688.568,-689.056,1.26,-0.14,-0.42,359.168,733.952,-710.528
332.328,689.544,-686.616,1.12,0.0,-0.42,351.36,733.952,-694.912
335.744,686.128,-687.104,0.77,0.21,-0.35,351.36,718.336,-733.952
335.256,681.736,-684.664,0.21,0.35,-0.35,359.168,749.568,-733.952
335.256,679.296,-679.296,-0.21,0.42,-0.49,374.784,718.336,-718.336
333.792,677.832,-675.392,-0.56,0.56,-0.63,343.552,702.72,-710.528
331.84,678.32,-676.856,-0.77,0.49,-0.77,366.976,726.144,-710.528
329.888,678.808,-676.368,-1.05,0.56,-0.98,351.36,741.76,-718.336
329.888,680.272,-673.44,-1.12,0.56,-1.12,359.168,749.568,-710.528
325.984,682.712,-669.536,-1.19,0.35,-1.26,359.168,733.952,-694.912
325.496,683.688,-662.216,-1.12,0.35,-1.4,335.744,718.336,-702.72
325.496,683.688,-657.336,-0.98,0.14,-1.54,351.36,733.952,-679.296
322.568,683.688,-650.504,-0.84,0.21,-1.47,327.936,726.144,-679.296
321.592,682.712,-646.112,-0.77,0.14,-1.61,343.552,726.144,-679.296
322.08,681.248,-643.184,-0.84,0.14,-1.61,343.552,733.952,-687.104
319.64,678.32,-647.576,-1.05,0.0,-1.75,359.168,741.76,-679.296
319.152,675.88,-651.48,-1.4,-0.14,-1.75,351.36,733.952,-679.296
319.64,672.464,-656.848,-1.68,0.0,-1.61,351.36,702.72,-679.296
320.616,667.584,-661.24,-1.82,0.07,-1.54,366.976,710.528,-710.528
320.128,659.288,-663.192,-1.89,0.21,-1.47,335.744,710.528,-687.104
319.64,653.92,-661.24,-1.61,0.35,-1.4,343.552,702.72,-702.72
317.2,647.088,-658.312,-1.26,0.49,-1.33,327.936,694.912,-687.104
313.784,640.744,-650.504,-0.77,0.63,-1.33,312.32,702.72,-663.68
311.344,632.936,-641.72,-0.21,0.7,-1.4,335.744,671.488,-679.296
306.464,627.568,-631.472,0.35,0.49,-1.61,335.744,710.528,-671.488
304.512,625.616,-624.64,0.84,0.28,-1.89,343.552,671.488,-663.68
302.56,624.152,-616.344,1.19,0.21,-2.24,327.936,671.488,-640.256
300.12,626.104,-610.488,1.4,0.0,-2.66,304.512,671.488,-640.256
300.608,631.472,-608.048,1.61,-0.28,-3.01,327.936,663.68,-632.448
298.656,641.232,-610.976,1.89,-0.49,-3.29,335.744,694.912,-655.872
298.168,650.504,-618.296,2.24,-0.77,-3.64,327.936,702.72,-624.64
300.12,664.168,-628.056,2.66,-1.05,-3.85,320.128,694.912,-671.488
301.096,676.856,-637.328,3.22,-1.33,-3.92,320.128,733.952,-655.872
301.584,689.544,-642.696,4.06,-1.61,-3.85,359.168,726.144,-648.064
306.464,699.792,-646.112,4.69,-1.75,-3.71,335.744,757.376,-679.296
305.976,710.528,-645.136,5.18,-1.96,-3.43,351.36,749.568,-694.912
307.928,718.824,-644.648,5.6,-2.17,-3.15,312.32,780.8,-671.488
309.392,727.12,-648.552,5.95,-2.1,-2.8,335.744,765.184,-694.912
309.88,731.024,-648.064,5.95,-2.24,-2.59,335.744,788.608,-679.296
312.32,734.928,-651.48,6.09,-2.38,-2.17,343.552,765.184,-694.912
311.832,737.856,-651.48,6.02,-2.66,-1.82,312.32,780.8,-687.104
313.296,737.856,-650.992,6.02,-2.66,-1.61,351.36,772.992,-679.296
311.832,737.856,-649.04,6.09,-2.66,-1.26,335.744,796.416,-687.104
310.856,736.88,-646.6,6.02,-2.8,-1.05,335.744,780.8,-671.488
311.832,732.488,-645.624,6.02,-2.8,-0.84,351.36,780.8,-671.488
309.88,729.072,-643.672,5.81,-2.87,-0.77,366.976,772.992,-679.296
307.928,724.192,-643.672,5.67,-3.01,-0.56,327.936,765.184,-671.488
305.488,723.216,-641.72,5.39,-3.08,-0.49,335.744,765.184,-663.68
303.048,718.336,-644.16,5.11,-3.29,-0.35,343.552,765.184,-687.104
303.048,713.456,-641.72,4.76,-3.43,-0.21,320.128,757.376,-663.68
301.584,708.576,-643.184,4.34,-3.5,-0.14,327.936,733.952,-663.68
299.632,705.16,-641.72,3.99,-3.5,-0.21,320.128,749.568,-679.296
299.144,702.72,-641.72,3.71,-3.64,-0.14,312.32,749.568,-687.104
298.656,698.816,-640.744,3.64,-3.78,-0.14,327.936,757.376,-679.296
298.168,696.376,-638.792,3.5,-4.13,0.0,335.744,749.568,-655.872
294.752,693.448,-636.84,3.15,-4.2,0.07,343.552,726.144,-655.872
296.704,691.008,-633.912,2.8,-4.34,0.21,312.32,749.568,-663.68
296.216,688.08,-632.936,2.45,-4.55,0.35,351.36,718.336,-687.104
295.728,686.128,-630.984,2.03,-4.62,0.28,320.128,726.144,-648.064
294.752,688.568,-629.52,1.61,-4.62,0.14,320.128,733.952,-655.872
294.752,691.984,-629.52,1.26,-4.76,0.07,312.32,741.76,-655.872
295.24,697.84,-630.984,0.91,-4.83,-0.07,304.512,757.376,-655.872
295.24,702.232,-631.96,0.42,-4.83,-0.07,335.744,749.568,-679.296
297.68,709.064,-635.376,0.07,-4.97,0.0,320.128,741.76,-663.68
298.656,715.408,-642.208,-0.21,-4.97,-0.07,343.552,765.184,-671.488
298.656,718.824,-642.208,-0.35,-4.97,0.14,343.552,765.184,-663.68
300.608,720.776,-643.672,-0.56,-5.11,0.35,312.32,765.184,-671.488
303.536,720.776,-643.672,-0.63,-5.25,0.56,343.552,741.76,-663.68
304.512,716.384,-649.528,-0.91,-5.25,0.77,327.936,741.76,-687.104
305.976,710.528,-650.504,-1.19,-5.46,0.98,320.128,757.376,-694.912
307.928,701.744,-652.456,-1.4,-5.53,1.19,351.36,733.952,-671.488
307.928,692.96,-654.896,-1.61,-5.46,1.12,351.36,741.76,-687.104
309.88,683.2,-656.36,-1.89,-5.53,1.12,343.552,718.336,-694.912
309.88,671.976,-656.36,-1.96,-5.6,0.98,327.936,726.144,-687.104
310.856,663.192,-656.36,-1.82,-5.39,0.84,320.128,671.488,-679.296
309.88,655.384,-661.24,-1.4,-5.39,0.7,343.552,687.104,-694.912
307.928,647.088,-662.216,-0.98,-5.32,0.63,312.32,710.528,-687.104
305.976,638.304,-663.68,-0.28,-5.18,0.7,359.168,663.68,-694.912
303.536,629.032,-660.752,0.56,-5.25,0.84,351.36,702.72,-671.488
299.144,618.784,-654.408,1.61,-5.18,0.98,320.128,663.68,-687.104
295.24,611.952,-648.552,3.01,-5.18,1.05,327.936,648.064,-663.68
290.848,605.608,-644.16,4.13,-5.11,1.19,312.32,648.064,-694.912
285.968,599.752,-642.696,5.32,-5.11,1.26,335.744,671.488,-679.296
282.064,597.8,-642.208,6.44,-5.32,1.33,312.32,663.68,-671.488
282.552,597.8,-643.672,7.49,-5.67,1.33,312.32,655.872,-671.488
281.576,601.704,-647.576,8.4,-5.81,1.12,304.512,640.256,-663.68
284.016,607.56,-651.968,9.31,-5.81,0.98,304.512,655.872,-679.296
284.992,616.344,-655.384,10.01,-6.02,0.84,320.128,648.064,-694.912
288.408,624.152,-658.312,10.71,-6.09,0.56,343.552,663.68,-694.912
291.824,636.352,-661.728,11.06,-6.23,0.35,312.32,679.296,-687.104
295.24,644.16,-664.656,11.34,-6.16,0.21,335.744,694.912,-702.72
298.168,651.968,-670.512,11.55,-6.02,0.14,304.512,694.912,-702.72
302.072,659.776,-672.464,11.83,-5.88,0.14,343.552,694.912,-710.528
301.584,664.168,-675.88,11.9,-5.74,0.35,327.936,726.144,-679.296
305.488,668.56,-677.344,11.97,-5.67,0.56,335.744,702.72,-694.912
304.024,670.512,-679.296,12.11,-5.46,0.84,335.744,718.336,-718.336
305.0,673.44,-682.712,12.18,-5.32,1.05,351.36,749.568,-718.336
306.952,672.464,-683.688,12.18,-5.25,1.33,335.744,718.336,-718.336
307.44,674.904,-691.496,12.39,-5.11,1.54,335.744,710.528,-741.76
306.464,676.856,-694.424,12.46,-5.11,1.68,343.552,718.336,-741.76
305.0,679.296,-700.28,12.6,-4.97,1.75,351.36,718.336,-718.336
305.0,683.2,-703.208,12.81,-4.97,1.75,351.36,718.336,-749.568
305.976,687.104,-704.672,12.88,-5.04,1.75,335.744,733.952,-726.144
305.488,691.496,-705.648,13.02,-5.11,1.82,335.744,741.76,-733.952
308.416,696.376,-707.112,12.88,-5.11,1.75,343.552,749.568,-718.336
308.904,701.744,-707.112,12.67,-5.18,1.75,351.36,741.76,-733.952
307.928,706.624,-704.672,12.32,-5.32,1.75,343.552,749.568,-733.952
309.392,710.04,-704.672,11.9,-5.39,1.75,327.936,741.76,-726.144
310.368,712.968,-701.256,11.41,-5.53,1.75,359.168,749.568,-733.952
311.832,715.408,-698.328,10.85,-5.67,1.82,335.744,765.184,-733.952
311.832,716.384,-692.96,10.22,-5.6,1.89,351.36,757.376,-726.144
309.88,717.848,-683.2,9.73,-5.67,1.89,351.36,765.184,-733.952
308.904,718.336,-673.928,9.17,-5.74,1.96,335.744,765.184,-702.72
307.928,719.312,-669.048,8.61,-5.74,2.03,351.36,772.992,-702.72
305.488,715.408,-665.632,7.77,-5.74,2.17,327.936,772.992,-679.296
304.512,711.504,-663.68,6.93,-5.74,2.59,343.552,757.376,-710.528
304.024,708.088,-659.288,6.02,-5.74,2.87,327.936,749.568,-710.528
303.048,701.744,-658.8,5.32,-6.02,3.01,359.168,757.376,-671.488
301.584,694.424,-657.336,4.76,-6.02,3.15,327.936,741.76,-687.104
301.096,689.056,-662.704,4.13,-6.23,3.15,351.36,741.76,-687.104
300.608,683.688,-665.144,3.92,-6.37,3.15,343.552,702.72,-679.296
300.608,675.88,-665.632,3.64,-6.44,3.15,327.936,733.952,-687.104
300.12,667.584,-662.704,3.64,-6.72,3.15,327.936,733.952,-702.72
298.656,662.216,-661.728,3.57,-6.79,3.15,335.744,702.72,-679.296
300.608,653.92,-657.824,3.5,-7.07,3.22,327.936,718.336,-679.296
299.144,649.04,-658.312,3.71,-7.21,3.29,366.976,687.104,-694.912
301.096,647.576,-660.264,3.85,-7.49,3.29,343.552,687.104,-718.336
303.048,650.016,-659.776,3.99,-7.7,3.22,343.552,702.72,-679.296
306.952,648.552,-655.384,4.69,-7.77,3.01,335.744,687.104,-687.104
303.048,648.064,-646.6,6.58,-7.77,2.66,343.552,710.528,-679.296
305.976,650.504,-647.576,9.1,-8.05,2.59,343.552,710.528,-679.296
309.88,647.088,-666.608,11.27,-8.47,2.8,320.128,702.72,-687.104
323.056,637.816,-692.96,12.18,-8.89,3.01,335.744,687.104,-718.336
336.72,619.272,-719.8,12.11,-9.17,3.22,359.168,663.68,-772.992
350.872,595.848,-735.904,11.41,-9.17,3.01,382.592,632.448,-765.184
360.632,569.008,-733.952,10.5,-8.68,2.59,359.168,585.6,-757.376
361.12,548.512,-723.216,9.94,-8.05,1.82,382.592,577.792,-772.992
354.288,533.384,-708.088,10.08,-7.35,1.05,398.208,538.752,-757.376
337.208,526.552,-687.592,10.43,-6.86,0.21,359.168,593.408,-726.144
317.688,526.064,-668.56,11.06,-6.44,-0.77,335.744,562.176,-694.912
299.144,531.432,-652.456,11.55,-6.65,-1.4,343.552,593.408,-687.104
281.576,550.952,-641.72,11.9,-7.0,-2.03,312.32,577.792,-694.912
271.328,578.28,-640.744,12.04,-7.56,-2.59,288.896,632.448,-663.68
263.52,613.904,-641.72,11.97,-8.05,-3.08,288.896,663.68,-663.68
257.664,651.968,-644.16,11.76,-8.47,-3.36,288.896,702.72,-687.104
255.224,694.912,-647.576,11.76,-8.96,-3.29,273.28,726.144,-679.296
255.224,739.808,-650.016,11.62,-9.24,-2.8,265.472,796.416,-694.912
257.176,780.8,-655.384,11.41,-9.38,-2.17,273.28,827.648,-671.488
258.152,816.912,-663.192,11.13,-9.45,-1.33,288.896,866.688,-687.104
259.616,847.168,-665.632,10.57,-9.45,-0.42,281.088,890.112,-733.952
262.544,869.128,-668.56,9.87,-9.45,0.7,296.704,897.92,-687.104
266.936,880.352,-672.952,9.17,-9.45,1.82,320.128,952.576,-694.912
275.72,881.816,-674.416,8.12,-9.52,2.87,320.128,960.384,-710.528
282.552,873.032,-675.88,6.86,-9.66,3.78,335.744,929.152,-726.144
291.824,855.952,-676.856,5.39,-9.87,4.55,335.744,897.92,-702.72
300.608,831.064,-675.88,3.57,-9.94,5.04,320.128,874.496,-726.144
306.952,797.392,-675.392,1.75,-10.01,5.39,320.128,843.264,-687.104
312.32,762.744,-673.928,-0.14,-9.94,5.46,359.168,804.224,-694.912
315.248,726.144,-672.952,-1.75,-9.94,5.18,351.36,749.568,-702.72
316.712,692.96,-670.512,-3.01,-9.73,4.9,343.552,749.568,-702.72
315.248,662.216,-667.584,-3.85,-9.73,4.34,366.976,718.336,-702.72
313.296,632.936,-668.072,-4.13,-9.73,3.92,335.744,663.68,-702.72
309.88,610.488,-669.536,-3.85,-9.8,3.5,351.36,648.064,-702.72
305.976,591.944,-671.0,-3.43,-9.8,3.15,320.128,655.872,-710.528
300.608,578.768,-673.44,-2.52,-9.87,2.94,335.744,624.64,-710.528
296.704,570.472,-679.296,-1.61,-10.01,2.66,312.32,616.832,-687.104
293.288,567.056,-680.272,-0.35,-10.01,2.38,327.936,624.64,-710.528
287.432,567.544,-683.2,0.91,-10.01,2.17,335.744,624.64,-726.144
282.552,574.864,-686.128,2.31,-10.08,1.89,320.128,624.64,-710.528
280.6,583.648,-690.52,3.78,-10.22,1.68,312.32,624.64,-726.144
280.112,595.36,-693.936,5.32,-10.43,1.4,296.704,648.064,-733.952
278.648,604.144,-691.984,6.72,-10.36,1.33,304.512,640.256,-726.144
279.624,613.416,-688.568,8.05,-10.71,1.47,327.936,655.872,-702.72
283.04,618.296,-687.592,9.31,-10.92,1.4,304.512,655.872,-726.144
286.456,618.784,-688.08,10.36,-10.85,1.54,288.896,694.912,-726.144
289.872,618.784,-690.52,11.06,-10.78,1.68,343.552,663.68,-726.144
290.36,615.368,-686.616,11.9,-10.71,1.75,320.128,679.296,-726.144
293.776,613.416,-686.616,12.53,-10.43,1.75,296.704,671.488,-741.76
293.288,607.072,-685.152,13.23,-10.36,1.89,327.936,648.064,-694.912
292.312,602.68,-681.248,13.79,-10.01,1.96,335.744,655.872,-710.528
292.8,600.728,-682.712,14.42,-9.94,1.82,320.128,663.68,-718.336
287.432,598.776,-686.616,15.05,-9.66,1.61,312.32,640.256,-726.144
287.432,599.752,-690.52,15.68,-9.59,1.33,320.128,640.256,-726.144
283.04,602.68,-691.984,16.45,-9.38,1.12,296.704,624.64,-726.144
282.064,606.096,-693.448,17.36,-9.24,1.19,312.32,648.064,-733.952
279.136,610.976,-691.496,18.2,-9.31,1.26,281.088,679.296,-718.336
276.696,612.44,-689.056,19.04,-9.38,1.4,335.744,663.68,-749.568
277.184,616.832,-691.984,19.74,-9.52,1.33,312.32,679.296,-710.528
278.16,620.736,-696.376,20.09,-9.66,1.47,304.512,671.488,-726.144
278.648,625.128,-698.328,20.3,-9.59,1.33,312.32,663.68,-741.76
280.112,628.056,-701.744,20.37,-9.66,1.26,312.32,687.104,-741.76
280.6,633.424,-698.328,20.3,-9.66,1.05,304.512,687.104,-710.528
281.088,637.328,-699.304,20.23,-9.52,0.91,320.128,710.528,-733.952
283.528,642.208,-697.84,20.16,-9.59,0.84,312.32,694.912,-710.528
284.504,648.552,-699.304,19.74,-9.59,0.77,320.128,702.72,-741.76
286.944,654.896,-699.304,19.46,-9.66,0.7,327.936,718.336,-733.952
286.456,659.288,-699.304,18.9,-9.66,0.63,320.128,694.912,-741.76
287.432,664.168,-699.792,18.34,-9.59,0.7,327.936,663.68,-733.952
287.432,669.048,-700.768,17.71,-9.59,0.77,296.704,726.144,-726.144
286.944,672.952,-699.304,17.15,-9.66,0.77,312.32,733.952,-718.336
286.944,675.392,-697.352,16.31,-9.66,0.84,288.896,702.72,-710.528
283.528,678.808,-694.912,15.68,-9.66,0.91,312.32,710.528,-741.76
284.016,679.296,-693.448,14.91,-9.66,0.91,335.744,733.952,-718.336
281.576,680.272,-691.984,14.21,-9.73,0.84,304.512,726.144,-733.952
279.624,679.296,-691.984,13.58,-9.73,0.63,304.512,726.144,-718.336
277.672,677.344,-694.912,13.16,-9.94,0.56,312.32,733.952,-733.952
277.184,676.856,-693.936,12.81,-10.22,0.56,304.512,718.336,-726.144
273.28,672.464,-694.912,12.67,-10.5,0.7,312.32,726.144,-726.144
273.28,666.608,-691.008,12.6,-10.71,0.77,312.32,726.144,-733.952
272.792,658.312,-692.96,12.81,-10.85,0.91,312.32,694.912,-733.952
270.84,655.384,-691.496,13.02,-11.06,0.91,312.32,694.912,-718.336
270.84,647.576,-691.984,13.44,-11.06,1.05,312.32,694.912,-718.336
270.352,640.256,-691.984,13.79,-11.06,1.05,288.896,687.104,-741.76
270.352,635.376,-694.424,14.0,-11.34,1.12,296.704,694.912,-726.144
269.376,627.568,-694.424,14.42,-11.48,1.26,296.704,663.68,-726.144
269.864,624.152,-697.84,14.98,-11.62,1.19,265.472,671.488,-726.144
271.816,619.76,-699.792,15.33,-11.76,1.26,296.704,663.68,-749.568
274.256,614.88,-703.208,15.75,-11.83,1.12,288.896,655.872,-726.144
275.232,614.392,-704.184,16.17,-11.97,1.05,320.128,648.064,-718.336
277.672,612.928,-707.112,16.59,-12.04,0.91,304.512,687.104,-749.568
279.136,612.44,-711.016,16.94,-11.97,0.98,304.512,663.68,-741.76
278.648,613.416,-709.552,17.29,-12.04,0.98,304.512,663.68,-741.76
278.16,617.808,-711.504,17.64,-12.11,0.98,265.472,679.296,-741.76
277.672,617.32,-716.384,17.92,-12.32,0.98,312.32,648.064,-733.952
279.624,616.344,-713.944,18.41,-12.32,0.98,296.704,655.872,-757.376
280.6,617.32,-717.848,18.97,-12.53,0.98,304.512,671.488,-741.76
282.064,616.832,-721.752,19.32,-12.67,1.05,312.32,648.064,-757.376
282.064,618.296,-722.728,19.53,-12.6,0.98,296.704,671.488,-757.376
280.6,613.904,-719.312,19.88,-12.74,0.98,320.128,648.064,-741.76
281.088,613.904,-716.384,20.23,-12.88,0.98,312.32,648.064,-726.144
283.04,610.976,-712.968,20.44,-12.95,0.98,296.704,655.872,-765.184
282.064,609.512,-707.112,20.65,-13.09,0.84,312.32,648.064,-757.376
283.04,609.024,-704.672,20.86,-13.23,0.77,312.32,663.68,-741.76
282.064,609.512,-701.256,20.93,-13.23,0.77,304.512,648.064,-741.76
281.088,609.512,-697.84,20.79,-13.37,0.77,320.128,655.872,-733.952
278.16,611.464,-695.888,20.72,-13.44,0.77,320.128,648.064,-726.144
279.136,612.928,-693.936,20.79,-13.51,0.84,288.896,655.872,-718.336
277.184,617.808,-695.888,20.58,-13.72,0.77,312.32,663.68,-702.72
278.16,618.784,-693.936,20.3,-13.72,0.77,304.512,687.104,-710.528
276.696,623.176,-696.864,20.16,-13.86,0.63,304.512,655.872,-726.144
275.232,626.592,-696.376,19.81,-13.86,0.63,312.32,671.488,-718.336
272.792,628.056,-693.448,19.32,-13.86,0.63,296.704,671.488,-733.952
269.864,634.4,-695.4,18.83,-13.79,0.42,281.088,663.68,-749.568
267.912,639.28,-702.72,18.34,-14.0,0.49,273.28,694.912,-726.144
263.52,642.696,-707.112,17.99,-14.14,0.42,281.088,694.912,-741.76
264.496,648.064,-711.504,17.57,-14.14,0.56,281.088,679.296,-741.76
263.032,649.528,-716.384,17.22,-14.14,0.63,312.32,710.528,-733.952
261.568,651.48,-719.312,16.8,-14.21,0.77,296.704,702.72,-741.76
259.616,652.456,-725.168,16.45,-14.21,0.98,327.936,710.528,-765.184
259.128,652.456,-729.072,16.24,-14.28,1.26,288.896,718.336,-741.76
258.152,652.944,-734.44,15.89,-14.28,1.47,296.704,702.72,-757.376
257.664,650.016,-737.856,15.4,-14.42,1.54,265.472,694.912,-772.992
257.176,648.552,-743.224,15.19,-14.28,1.61,304.512,671.488,-780.8
256.2,648.064,-749.568,14.98,-14.21,1.75,296.704,702.72,-788.608
256.2,646.112,-754.936,14.77,-14.35,1.75,281.088,679.296,-804.224
258.152,646.6,-758.84,14.77,-14.42,1.82,281.088,694.912,-772.992
258.64,646.112,-761.28,14.77,-14.49,1.96,296.704,687.104,-812.032
261.568,646.6,-765.672,14.63,-14.49,2.1,320.128,710.528,-788.608
262.544,645.624,-765.184,14.56,-14.49,2.24,273.28,671.488,-812.032
263.52,645.136,-766.16,14.49,-14.42,2.31,281.088,694.912,-804.224
261.568,645.624,-762.744,14.42,-14.56,2.38,281.088,679.296,-812.032
263.52,645.136,-762.256,14.35,-14.56,2.45,288.896,687.104,-804.224
264.496,644.648,-759.816,14.35,-14.56,2.38,288.896,694.912,-780.8
264.984,649.04,-757.864,14.42,-14.56,2.52,296.704,679.296,-804.224
264.984,648.552,-756.888,14.49,-14.77,2.59,288.896,710.528,-788.608
265.472,649.04,-754.936,14.49,-14.91,2.87,304.512,694.912,-788.608
263.52,646.112,-751.032,14.49,-15.05,2.94,288.896,679.296,-780.8
265.472,648.064,-749.568,14.35,-15.12,3.15,281.088,694.912,-788.608
264.008,648.064,-748.104,14.0,-15.33,3.15,296.704,702.72,-757.376
263.032,647.088,-744.688,13.72,-15.33,3.15,265.472,679.296,-780.8
262.056,647.088,-737.856,13.16,-15.47,3.15,288.896,687.104,-741.76
262.056,647.088,-730.536,12.6,-15.68,2.94,288.896,702.72,-757.376
262.056,648.064,-723.216,11.76,-15.89,2.94,281.088,687.104,-765.184
262.056,649.528,-723.216,11.06,-16.03,2.73,281.088,702.72,-733.952
262.544,651.48,-722.728,10.15,-16.17,2.8,288.896,702.72,-757.376
265.96,649.528,-720.776,9.1,-16.31,2.8,288.896,687.104,-749.568
265.96,649.528,-716.872,8.19,-16.17,2.94,296.704,671.488,-741.76
263.52,649.04,-712.48,7.35,-16.1,2.94,281.088,687.104,-733.952
260.592,648.064,-706.136,6.37,-15.96,2.8,296.704,710.528,-710.528
256.2,648.064,-704.184,5.46,-15.89,2.59,312.32,679.296,-749.568
253.76,649.04,-701.744,4.41,-15.89,2.59,273.28,710.528,-733.952
250.344,648.552,-698.816,3.36,-15.82,2.38,273.28,710.528,-733.952
248.88,648.064,-697.84,2.38,-15.89,2.31,288.896,694.912,-733.952
248.88,649.04,-697.84,1.47,-15.82,2.31,288.896,671.488,-726.144
248.88,646.6,-701.744,0.56,-15.75,2.38,273.28,687.104,-718.336
245.952,645.136,-704.672,-0.35,-15.68,2.52,257.664,687.104,-741.76
246.44,643.672,-707.6,-1.05,-15.75,2.52,273.28,702.72,-749.568
246.928,639.28,-713.944,-1.61,-15.61,2.52,273.28,694.912,-757.376
246.44,639.768,-721.752,-2.24,-15.68,2.59,281.088,663.68,-741.76
246.44,634.888,-727.608,-2.66,-15.61,2.59,281.088,694.912,-757.376
250.832,630.008,-733.952,-2.8,-15.47,2.59,273.28,632.448,-765.184
250.832,629.032,-740.296,-2.87,-15.47,2.66,281.088,710.528,-772.992
251.808,624.152,-745.176,-2.87,-15.4,2.73,304.512,671.488,-757.376
251.32,619.76,-748.592,-2.73,-15.33,2.73,288.896,663.68,-765.184
249.856,615.856,-751.52,-2.59,-15.33,2.66,304.512,640.256,-772.992
250.832,614.392,-752.984,-2.52,-15.33,2.59,296.704,655.872,-788.608
250.832,610.976,-756.888,-2.31,-15.26,2.52,265.472,663.68,-804.224
251.808,610.0,-759.328,-2.1,-15.26,2.38,288.896,679.296,-796.416
253.272,609.024,-763.72,-1.61,-15.19,2.45,281.088,648.064,-796.416
255.224,608.048,-763.72,-0.98,-15.05,2.59,273.28,640.256,-812.032
257.176,605.12,-767.624,-0.28,-14.98,2.73,304.512,655.872,-788.608
257.176,601.216,-768.6,0.56,-14.84,2.87,273.28,679.296,-819.84
257.176,596.824,-766.16,1.54,-14.91,3.01,273.28,648.064,-796.416
256.688,591.456,-765.672,2.59,-14.91,3.22,288.896,640.256,-819.84
257.176,587.064,-766.16,3.78,-15.05,3.43,273.28,609.024,-796.416
255.224,583.16,-767.136,4.97,-14.98,3.5,281.088,624.64,-819.84
255.224,578.28,-768.6,6.09,-15.12,3.64,288.896,632.448,-796.416
254.248,575.84,-769.576,7.07,-15.05,3.71,288.896,616.832,-804.224
253.76,575.352,-768.6,7.84,-14.91,3.71,296.704,632.448,-812.032
254.736,576.328,-769.088,8.33,-14.98,3.43,288.896,632.448,-812.032
253.272,579.256,-767.136,8.96,-14.98,3.22,265.472,632.448,-788.608
254.248,583.648,-765.184,9.38,-15.12,3.08,273.28,624.64,-812.032
255.712,591.944,-766.648,9.8,-15.19,3.01,273.28,624.64,-804.224
256.688,600.24,-769.088,10.15,-15.33,2.94,281.088,648.064,-796.416
257.176,609.024,-767.624,10.57,-15.26,2.94,304.512,663.68,-804.224
258.152,615.368,-766.648,10.85,-15.19,3.08,281.088,655.872,-796.416
257.664,622.688,-763.232,11.06,-15.19,3.22,288.896,663.68,-804.224
257.176,629.52,-760.792,11.2,-15.05,3.64,281.088,694.912,-788.608
255.224,634.888,-754.936,11.34,-15.05,3.85,304.512,702.72,-772.992
251.32,642.696,-751.52,11.2,-14.7,3.99,273.28,694.912,-788.608
248.88,648.064,-746.152,10.78,-14.63,3.92,296.704,687.104,-796.416
246.44,650.992,-741.76,10.36,-14.63,3.85,296.704,710.528,-780.8
243.512,656.848,-741.272,9.87,-14.49,3.92,273.28,702.72,-772.992
244.976,658.8,-736.392,9.24,-14.7,3.99,265.472,718.336,-780.8
245.464,661.24,-737.368,8.82,-14.84,4.2,304.512,710.528,-757.376
247.416,661.728,-735.416,8.05,-14.77,4.27,249.856,702.72,-749.568
248.88,660.752,-739.32,7.21,-14.63,4.41,288.896,726.144,-788.608
249.856,656.848,-740.784,6.3,-14.42,4.41,296.704,702.72,-772.992
246.928,653.92,-740.784,5.25,-14.21,4.41,265.472,702.72,-788.608
242.048,650.992,-741.76,4.48,-14.07,4.27,281.088,694.912,-765.184
238.144,646.112,-739.808,3.78,-14.0,4.13,281.088,694.912,-772.992
235.216,641.232,-742.736,3.22,-13.79,4.06,257.664,702.72,-780.8
232.288,634.888,-743.712,2.45,-13.93,4.06,265.472,694.912,-757.376
230.336,632.936,-746.152,1.82,-13.72,3.85,257.664,687.104,-772.992
231.8,629.032,-745.664,1.12,-13.51,3.71,226.432,694.912,-749.568
232.288,624.64,-745.664,0.42,-13.37,3.43,281.088,671.488,-780.8
232.288,623.176,-749.568,-0.21,-13.09,3.29,265.472,671.488,-780.8
232.288,620.736,-746.152,-0.63,-13.02,3.08,242.048,687.104,-780.8
235.216,620.248,-747.128,-0.98,-13.02,2.94,257.664,671.488,-788.608
233.752,618.296,-748.104,-1.26,-13.02,3.01,257.664,671.488,-788.608
235.216,614.88,-750.056,-1.4,-12.95,2.94,288.896,648.064,-788.608
234.728,608.536,-750.544,-1.4,-12.95,2.94,257.664,687.104,-772.992
234.728,602.192,-749.08,-1.33,-12.95,2.94,257.664,640.256,-788.608
233.264,596.336,-752.496,-1.19,-12.88,3.01,265.472,616.832,-796.416
232.776,589.016,-754.448,-0.91,-12.88,2.8,281.088,640.256,-780.8
234.728,583.16,-758.352,-0.7,-13.02,2.52,265.472,624.64,-819.84
234.728,578.28,-766.648,-0.42,-12.88,2.31,249.856,632.448,-812.032
237.168,576.816,-771.528,-0.07,-12.88,1.96,273.28,640.256,-812.032
240.584,578.28,-776.408,0.35,-13.02,1.68,288.896,640.256,-812.032
242.048,580.232,-776.896,0.63,-13.16,1.4,304.512,624.64,-804.224
245.464,585.112,-779.336,1.19,-13.02,1.19,273.28,648.064,-827.648
245.464,591.944,-783.728,1.61,-12.88,1.12,296.704,648.064,-819.84
246.928,603.168,-783.728,2.03,-12.95,1.26,288.896,648.064,-827.648
247.416,610.976,-784.704,2.45,-13.02,1.26,273.28,655.872,-827.648
247.416,616.832,-782.264,2.8,-13.02,1.4,281.088,687.104,-827.648
247.904,622.688,-782.752,3.43,-13.09,1.61,273.28,679.296,-804.224
247.904,628.544,-787.144,3.99,-13.23,1.75,257.664,655.872,-812.032
245.952,629.52,-784.216,4.76,-13.44,1.96,273.28,671.488,-819.84
245.952,626.104,-778.848,5.6,-13.65,2.17,281.088,687.104,-812.032
242.536,622.2,-772.016,6.79,-13.86,2.45,265.472,663.68,-827.648
239.608,615.368,-767.136,8.12,-14.14,2.73,296.704,632.448,-796.416
235.704,606.096,-758.84,9.24,-14.35,3.08,249.856,671.488,-788.608
233.752,595.848,-754.936,10.29,-14.56,3.29,273.28,655.872,-812.032
234.728,585.112,-752.496,10.85,-14.63,3.43,257.664,616.832,-796.416
235.704,577.304,-756.888,11.06,-14.7,3.36,281.088,624.64,-804.224
238.632,573.888,-761.28,11.13,-14.35,3.15,265.472,640.256,-804.224
241.56,571.448,-764.208,10.85,-14.21,2.8,281.088,663.68,-780.8
243.512,569.984,-764.696,10.71,-14.07,2.45,273.28,655.872,-812.032
242.536,576.816,-762.256,10.57,-14.07,2.31,273.28,624.64,-804.224
245.464,579.744,-756.888,10.15,-14.35,2.1,265.472,616.832,-796.416
247.416,586.576,-752.984,9.59,-14.28,1.96,288.896,640.256,-772.992
246.928,597.8,-748.104,8.89,-14.14,1.68,257.664,648.064,-804.224
247.416,608.048,-748.104,8.47,-14.07,1.47,281.088,655.872,-780.8
245.952,618.784,-747.128,7.91,-14.0,1.33,288.896,671.488,-757.376
246.44,628.056,-748.104,7.35,-14.0,1.4,281.088,655.872,-780.8
244.0,636.84,-748.592,6.72,-14.07,1.4,273.28,679.296,-780.8
245.464,642.696,-745.664,5.81,-14.07,1.33,257.664,679.296,-804.224
247.416,647.576,-747.616,4.9,-13.93,1.4,281.088,671.488,-796.416
244.488,645.624,-747.128,3.92,-13.86,1.47,288.896,702.72,-772.992
243.512,642.696,-748.592,3.01,-13.93,1.61,281.088,710.528,-780.8
245.464,637.328,-753.96,2.03,-13.86,1.61,265.472,663.68,-804.224
244.488,630.008,-759.328,1.05,-13.72,1.75,281.088,663.68,-796.416
242.048,615.856,-759.328,0.0,-13.51,1.89,265.472,655.872,-796.416
237.656,603.168,-756.888,-0.91,-13.44,1.96,257.664,663.68,-796.416
236.192,587.064,-758.352,-1.68,-13.23,1.89,257.664,648.064,-804.224
233.752,574.376,-758.352,-2.31,-13.09,1.89,281.088,609.024,-788.608
231.312,563.152,-756.888,-2.94,-13.02,1.61,265.472,601.216,-788.608
229.848,553.88,-752.496,-3.43,-12.95,1.12,273.28,585.6,-780.8
231.8,543.632,-749.568,-3.78,-12.88,0.84,249.856,601.216,-780.8
234.728,536.8,-748.592,-3.92,-13.09,0.49,296.704,569.984,-788.608
240.584,530.944,-748.592,-3.78,-13.09,0.28,257.664,593.408,-796.416
244.0,528.016,-752.008,-3.43,-12.88,0.21,273.28,569.984,-765.184
246.44,527.528,-752.496,-3.15,-12.81,0.07,273.28,554.368,-772.992
243.512,527.528,-752.008,-2.59,-12.6,-0.07,288.896,585.6,-780.8
240.096,528.992,-750.544,-2.17,-12.32,-0.42,257.664,593.408,-780.8
235.216,532.408,-748.104,-1.61,-12.18,-0.7,265.472,569.984,-788.608
232.776,537.776,-741.76,-1.05,-12.25,-1.05,242.048,577.792,-780.8
230.336,542.168,-742.248,-0.35,-12.18,-1.4,265.472,585.6,-765.184
230.824,549.488,-739.32,0.35,-12.25,-1.54,257.664,577.792,-772.992
228.872,555.832,-736.88,0.77,-12.25,-1.68,249.856,616.832,-804.224
227.408,561.2,-736.88,1.47,-12.25,-1.75,249.856,616.832,-749.568
225.456,566.08,-732.0,2.31,-12.32,-1.75,226.432,624.64,-796.416
222.528,575.352,-726.632,3.08,-12.39,-1.82,234.24,616.832,-749.568
222.04,583.16,-719.312,3.78,-12.39,-1.96,273.28,648.064,-749.568
218.624,592.92,-711.992,4.55,-12.67,-2.1,218.624,632.448,-733.952
218.136,603.656,-705.16,5.39,-12.81,-2.17,265.472,640.256,-741.76
219.6,613.904,-702.72,6.16,-13.02,-2.17,249.856,663.68,-741.76
223.016,624.152,-701.256,7.14,-13.51,-2.03,257.664,687.104,-733.952
225.456,630.008,-703.208,8.33,-13.79,-1.54,257.664,671.488,-749.568
228.872,633.424,-702.72,9.59,-13.93,-1.12,249.856,671.488,-733.952
228.384,635.376,-706.624,10.71,-14.0,-0.7,265.472,694.912,-733.952
226.92,633.424,-708.576,11.55,-14.14,-0.21,273.28,671.488,-741.76
221.552,626.104,-715.896,12.04,-14.14,0.42,249.856,671.488,-741.76
217.16,617.808,-723.216,12.25,-14.21,1.05,265.472,663.68,-749.568
214.72,608.536,-732.0,12.11,-14.35,1.47,257.664,640.256,-780.8
209.352,602.68,-739.808,11.69,-14.35,1.54,242.048,655.872,-749.568
203.496,597.8,-745.664,11.41,-14.56,1.26,234.24,632.448,-796.416
199.104,594.872,-743.712,10.85,-14.63,0.91,234.24,632.448,-772.992
195.2,596.336,-746.64,10.29,-14.98,0.49,210.816,624.64,-780.8
197.64,597.8,-747.128,9.59,-15.54,0.21,226.432,671.488,-780.8
201.544,599.264,-747.128,8.75,-15.82,0.21,210.816,640.256,-788.608
204.96,599.752,-749.08,7.98,-16.1,0.07,226.432,663.68,-765.184
206.912,602.192,-747.616,6.93,-16.17,-0.07,226.432,663.68,-796.416
210.328,601.704,-745.176,5.95,-16.45,-0.21,265.472,648.064,-757.376
208.864,601.704,-741.76,5.04,-16.59,-0.42,249.856,648.064,-757.376
208.864,602.192,-739.808,4.13,-16.73,-0.63,234.24,663.68,-765.184
206.424,603.168,-739.32,3.15,-16.8,-0.84,234.24,648.064,-741.76
203.984,601.704,-733.464,2.31,-16.8,-1.12,265.472,632.448,-765.184
198.128,600.24,-725.168,1.54,-16.94,-1.33,249.856,632.448,-772.992
193.248,599.752,-717.36,0.7,-17.22,-1.54,226.432,632.448,-757.376
191.296,598.776,-710.528,-0.07,-17.29,-1.75,226.432,632.448,-726.144
184.952,599.264,-704.184,-0.98,-17.08,-2.1,210.816,663.68,-741.76
180.56,599.752,-701.744,-1.75,-17.01,-2.31,187.392,648.064,-733.952
175.192,599.752,-698.816,-2.45,-16.87,-2.59,203.008,616.832,-726.144
171.776,598.776,-699.304,-2.87,-16.87,-2.8,210.816,624.64,-710.528
164.944,597.312,-701.744,-2.87,-16.94,-3.08,179.584,624.64,-741.76
162.992,596.824,-702.72,-3.01,-17.22,-3.08,203.008,648.064,-718.336
162.992,591.456,-706.624,-2.94,-17.43,-3.01,187.392,640.256,-741.76
164.456,587.552,-709.552,-3.01,-17.57,-2.94,195.2,616.832,-726.144
167.872,582.672,-715.896,-2.87,-17.78,-2.94,195.2,632.448,-772.992
169.336,578.768,-720.288,-2.8,-17.78,-3.01,187.392,616.832,-741.76
170.8,574.376,-726.144,-2.59,-17.92,-3.01,179.584,624.64,-741.76
172.264,571.448,-727.608,-2.17,-17.92,-3.01,171.776,601.216,-757.376
171.776,567.056,-728.096,-1.68,-17.92,-3.08,195.2,616.832,-741.76
169.824,563.64,-727.12,-1.12,-17.92,-3.22,218.624,593.408,-780.8
169.336,561.2,-728.584,-0.35,-17.99,-3.29,187.392,609.024,-765.184
167.872,555.344,-731.512,0.35,-17.92,-3.29,218.624,601.216,-788.608
166.408,554.856,-736.88,1.19,-18.06,-3.43,195.2,624.64,-780.8
163.968,550.952,-742.248,2.17,-18.06,-3.57,203.008,601.216,-749.568
164.944,549.488,-746.64,3.15,-18.27,-3.57,195.2,585.6,-780.8
163.968,545.096,-749.568,4.27,-18.34,-3.71,179.584,577.792,-796.416
163.968,542.656,-752.008,5.39,-18.27,-3.92,179.584,593.408,-780.8
161.04,542.168,-753.472,6.58,-18.27,-3.99,187.392,585.6,-765.184
158.6,543.632,-753.96,7.7,-18.34,-3.99,171.776,562.176,-788.608
155.672,541.68,-752.008,8.82,-18.55,-3.85,179.584,609.024,-796.416
153.72,539.24,-748.104,10.01,-18.76,-3.99,187.392,593.408,-780.8
153.232,550.464,-754.448,11.41,-18.97,-3.92,156.16,601.216,-772.992
153.232,552.904,-758.352,12.25,-19.11,-3.92,156.16,616.832,-780.8
153.72,558.76,-760.304,13.37,-19.18,-3.85,179.584,609.024,-804.224
147.864,569.496,-761.768,15.05,-19.32,-3.85,187.392,593.408,-796.416
145.424,579.744,-762.744,16.38,-19.74,-3.71,187.392,609.024,-788.608
146.888,584.624,-757.376,17.64,-20.02,-3.57,156.16,640.256,-788.608
145.912,590.48,-750.544,18.76,-20.44,-3.5,195.2,640.256,-772.992
145.424,595.36,-742.736,19.88,-20.72,-3.36,179.584,632.448,-757.376
144.936,601.704,-735.904,20.65,-21.28,-3.36,171.776,655.872,-749.568
145.424,607.56,-728.096,21.42,-21.56,-3.36,187.392,671.488,-772.992
143.96,613.416,-724.192,21.91,-21.98,-3.36,179.584,663.68,-749.568
142.496,615.856,-717.848,22.33,-22.33,-3.29,171.776,663.68,-772.992
142.008,621.712,-715.896,22.61,-22.75,-3.08,148.352,671.488,-741.76
139.568,625.616,-709.064,22.96,-23.24,-3.15,171.776,694.912,-733.952
136.64,628.056,-702.232,23.17,-23.73,-2.87,163.968,671.488,-733.952
134.2,630.008,-696.376,23.45,-24.5,-2.73,179.584,671.488,-726.144
133.224,625.128,-686.128,23.45,-25.06,-2.52,163.968,702.72,-679.296
131.272,621.224,-677.344,23.52,-25.9,-2.24,179.584,679.296,-694.912
129.808,618.296,-667.584,23.38,-26.6,-2.1,163.968,663.68,-663.68
126.88,611.952,-659.288,23.03,-27.37,-1.96,140.544,655.872,-710.528
126.392,608.048,-656.36,22.4,-28.14,-2.1,163.968,655.872,-702.72
124.44,605.608,-653.432,21.49,-28.7,-2.31,148.352,663.68,-679.296
122.0,602.68,-649.528,20.37,-29.33,-2.66,171.776,640.256,-679.296
117.12,601.704,-644.16,19.11,-30.03,-3.01,163.968,648.064,-694.912
113.216,604.144,-645.136,17.85,-30.66,-3.5,163.968,648.064,-679.296
109.8,606.584,-649.04,16.31,-31.5,-4.13,156.16,663.68,-694.912
107.36,606.584,-650.504,14.7,-32.27,-4.55,124.928,648.064,-694.912
105.896,612.928,-652.944,13.09,-33.04,-4.97,140.544,687.104,-687.104
103.944,621.224,-656.848,11.48,-33.6,-5.32,132.736,655.872,-687.104
101.504,627.568,-661.24,9.59,-34.23,-5.74,132.736,655.872,-687.104
96.624,634.888,-664.168,7.77,-34.65,-6.09,109.312,687.104,-694.912
91.744,643.672,-666.12,5.95,-35.14,-6.37,124.928,710.528,-710.528
84.912,648.064,-666.608,4.2,-35.7,-6.65,101.504,687.104,-702.72
80.032,655.872,-671.0,2.24,-36.19,-6.86,101.504,702.72,-687.104
75.64,662.216,-674.416,0.21,-36.75,-7.07,101.504,718.336,-710.528
70.272,665.144,-679.296,-1.89,-37.17,-7.28,78.08,718.336,-726.144
65.392,667.096,-684.664,-4.13,-37.66,-7.35,101.504,694.912,-702.72
61.488,669.048,-688.568,-6.44,-38.29,-7.42,93.696,718.336,-726.144
55.632,668.072,-691.008,-8.68,-38.92,-7.49,85.888,710.528,-710.528
49.288,665.144,-690.032,-10.92,-39.48,-7.7,78.08,718.336,-710.528
44.896,663.192,-689.056,-13.23,-40.32,-8.05,101.504,726.144,-726.144
39.528,659.288,-685.152,-15.54,-41.23,-8.47,78.08,694.912,-718.336
36.6,653.432,-683.2,-17.85,-42.0,-8.96,62.464,710.528,-718.336
32.208,648.552,-680.272,-20.16,-42.84,-9.52,101.504,710.528,-702.72
29.768,645.136,-676.368,-22.4,-43.75,-10.15,62.464,687.104,-694.912
25.864,642.696,-673.44,-24.5,-44.52,-10.71,31.232,694.912,-710.528
22.936,639.768,-665.632,-26.95,-45.43,-11.41,46.848,694.912,-687.104
20.496,636.84,-657.336,-29.12,-46.2,-12.04,62.464,679.296,-694.912
16.104,638.792,-650.016,-31.5,-47.18,-12.74,23.424,671.488,-679.296
12.2,639.28,-641.232,-34.02,-47.88,-13.51,46.848,679.296,-687.104
8.784,642.696,-628.544,-36.54,-48.72,-14.28,39.04,694.912,-671.488
2.928,646.112,-621.712,-39.27,-49.63,-15.12,39.04,694.912,-640.256
-2.928,651.48,-611.464,-42.0,-50.4,-16.03,7.808,710.528,-648.064
-7.808,656.848,-600.728,-44.8,-51.31,-16.8,23.424,694.912,-632.448
-14.64,663.192,-588.528,-47.74,-52.29,-17.57,31.232,733.952,-624.64
-24.888,671.488,-574.376,-50.68,-53.2,-18.34,7.808,718.336,-624.64
-33.672,677.344,-564.128,-53.62,-54.39,-19.11,-39.04,710.528,-577.792
-40.992,685.64,-551.44,-56.77,-55.37,-19.81,-31.232,726.144,-593.408
-50.752,689.544,-539.24,-59.78,-56.56,-20.51,-39.04,702.72,-562.176
-60.024,693.936,-525.088,-63.14,-57.75,-21.21,-31.232,757.376,-538.752
-71.736,699.792,-513.864,-66.43,-58.94,-22.05,-31.232,733.952,-562.176
-82.472,703.696,-497.272,-69.93,-60.2,-22.82,-62.464,733.952,-515.328
-95.648,705.16,-482.144,-73.64,-61.53,-23.73,-70.272,757.376,-515.328
-104.92,706.624,-467.992,-77.56,-63.14,-24.71,-78.08,765.184,-484.096
-115.168,711.504,-458.72,-81.34,-64.54,-25.83,-62.464,757.376,-476.288
-123.464,714.92,-447.984,-85.47,-65.94,-27.09,-78.08,765.184,-452.864
-135.664,715.408,-435.784,-89.74,-67.41,-28.35,-117.12,765.184,-460.672
-149.328,715.896,-420.656,-94.08,-68.95,-29.75,-124.928,749.568,-445.056
-159.576,717.848,-411.384,-98.49,-70.49,-31.08,-117.12,757.376,-468.48
-167.872,718.336,-399.672,-103.25,-72.24,-32.69,-140.544,765.184,-398.208
-178.12,716.872,-388.448,-108.15,-73.71,-34.16,-132.736,741.76,-413.824
-190.808,715.408,-374.296,-113.19,-75.25,-35.84,-156.16,749.568,-406.016
-202.52,712.48,-366.0,-118.23,-76.86,-37.52,-179.584,749.568,-398.208
-213.744,707.6,-357.216,-123.55,-78.61,-39.2,-187.392,757.376,-374.784
-227.896,701.256,-347.456,-128.94,-80.57,-41.3,-210.816,718.336,-351.36
-239.608,693.448,-342.088,-134.33,-82.53,-43.54,-210.816,749.568,-359.168
-250.832,682.712,-335.256,-139.93,-84.42,-45.78,-249.856,726.144,-366.976
-258.64,672.464,-333.792,-145.6,-86.31,-48.37,-218.624,726.144,-359.168
-269.864,663.192,-330.376,-151.41,-87.92,-51.03,-226.432,710.528,-343.552
-284.992,651.968,-331.352,-157.15,-89.25,-53.97,-257.664,687.104,-366.976
-294.752,641.232,-335.256,-163.17,-90.93,-57.19,-288.896,679.296,-351.36
-308.904,630.008,-339.648,-169.12,-92.68,-60.48,-312.32,679.296,-374.784
-318.176,622.2,-342.576,-175.07,-94.36,-63.98,-288.896,671.488,-366.976
-329.4,611.952,-345.992,-181.09,-95.9,-67.48,-320.128,679.296,-374.784
-340.136,602.192,-348.432,-187.32,-97.65,-71.12,-304.512,655.872,-382.592
-350.384,592.432,-351.36,-193.55,-99.33,-74.97,-335.744,640.256,-366.976
-356.728,582.184,-354.776,-199.71,-100.8,-78.75,-343.552,616.832,-374.784
-363.56,574.376,-351.848,-205.73,-102.48,-82.46,-343.552,640.256,-406.016
-373.32,568.032,-349.408,-211.82,-103.88,-86.38,-351.36,616.832,-382.592
-383.568,559.248,-340.624,-217.63,-105.42,-90.51,-335.744,585.6,-351.36
-392.84,555.344,-341.6,-223.58,-107.24,-94.43,-374.784,601.216,-351.36
-395.768,549.976,-341.6,-229.53,-108.92,-98.49,-374.784,577.792,-343.552
-401.624,548.512,-339.16,-235.69,-110.32,-102.69,-374.784,593.408,-359.168
-411.384,545.096,-336.72,-241.71,-111.65,-107.31,-374.784,601.216,-351.36
-420.656,546.56,-336.72,-247.73,-112.84,-112.07,-413.824,585.6,-374.784
-427.0,546.56,-341.112,-253.68,-114.24,-116.83,-390.4,601.216,-366.976
-434.32,550.464,-346.968,-259.56,-115.64,-121.52,-413.824,593.408,-374.784
-442.616,551.44,-350.384,-265.16,-116.9,-126.0,-382.592,585.6,-343.552
-451.4,554.368,-356.24,-270.41,-118.23,-130.2,-452.864,601.216,-382.592
-459.696,559.736,-354.776,-275.24,-119.35,-134.61,-452.864,601.216,-366.976
-470.432,562.664,-353.8,-279.86,-120.12,-139.09,-452.864,601.216,-382.592
-483.12,567.544,-354.776,-284.41,-121.03,-143.43,-468.48,609.024,-382.592
-493.856,575.352,-356.24,-289.1,-122.08,-147.91,-476.288,632.448,-398.208
-499.224,578.28,-360.632,-293.79,-122.92,-152.18,-491.904,632.448,-406.016
-505.08,583.648,-370.88,-298.69,-123.55,-156.24,-460.672,624.64,-398.208
-509.472,590.968,-390.4,-303.66,-123.97,-160.44,-484.096,640.256,-413.824
-515.328,593.408,-409.432,-308.84,-124.11,-164.92,-476.288,632.448,-421.632
-523.136,597.8,-428.464,-313.88,-124.11,-169.47,-484.096,648.064,-460.672
-526.064,602.68,-448.96,-318.71,-124.18,-173.88,-491.904,648.064,-452.864
-529.968,608.536,-458.232,-323.26,-124.18,-178.22,-515.328,640.256,-484.096
-539.24,606.096,-460.672,-327.32,-124.11,-182.63,-515.328,616.832,-476.288
-545.584,607.072,-462.136,-331.24,-124.11,-187.11,-507.52,648.064,-499.712
-550.952,600.24,-469.944,-334.74,-124.32,-191.52,-515.328,648.064,-491.904
-551.44,595.848,-484.584,-337.54,-124.74,-195.72,-538.752,663.68,-491.904
-551.928,594.384,-499.712,-339.92,-124.46,-199.92,-538.752,616.832,-538.752
-555.344,595.848,-518.256,-342.02,-124.39,-204.26,-515.328,624.64,-569.984
-553.392,601.704,-540.216,-343.77,-124.25,-208.53,-515.328,655.872,-562.176
-555.344,614.392,-552.904,-345.66,-124.25,-213.01,-523.136,671.488,-585.6
-556.32,622.688,-566.568,-347.97,-124.46,-217.21,-546.56,648.064,-593.408
-549.976,631.96,-585.112,-350.63,-125.02,-221.27,-523.136,671.488,-616.832
-541.68,640.744,-604.144,-353.64,-125.02,-225.33,-499.712,687.104,-624.64
-534.36,646.6,-616.832,-356.86,-124.74,-229.6,-499.712,694.912,-624.64
-529.48,655.872,-623.176,-360.29,-123.9,-233.87,-523.136,702.72,-648.064
-522.648,654.408,-625.616,-364.14,-123.34,-238.35,-499.712,694.912,-632.448
-509.472,639.28,-624.152,-367.43,-122.43,-243.32,-476.288,679.296,-640.256
-501.664,621.712,-619.76,-369.81,-120.82,-248.22,-468.48,648.064,-640.256
-499.224,609.512,-615.368,-371.63,-119.14,-253.68,-468.48,648.064,-663.68
-489.952,595.36,-614.88,-373.45,-118.02,-259.28,-468.48,640.256,-655.872
-478.728,581.696,-618.296,-375.76,-116.69,-264.32,-460.672,632.448,-640.256
-466.04,560.712,-616.344,-378.35,-115.01,-269.08,-452.864,609.024,-655.872
-445.056,535.824,-618.296,-381.22,-112.98,-273.35,-398.208,562.176,-632.448
-435.784,508.984,-614.392,-383.39,-109.69,-277.2,-429.44,554.368,-632.448
-436.76,495.32,-604.144,-384.86,-106.4,-281.33,-413.824,530.944,-632.448
-434.32,486.536,-600.728,-386.54,-103.74,-285.88,-406.016,523.136,-624.64
-425.048,487.512,-604.144,-388.5,-101.22,-290.43,-390.4,530.944,-624.64
-414.312,494.832,-604.632,-390.39,-98.07,-294.84,-406.016,530.944,-616.832
-410.896,501.664,-596.336,-392.77,-94.08,-298.76,-406.016,530.944,-616.832
-417.728,503.128,-584.136,-394.87,-89.81,-301.84,-406.016,546.56,-609.024
-415.288,496.296,-574.864,-396.34,-85.33,-304.29,-374.784,554.368,-601.216
-416.752,493.368,-564.616,-396.62,-80.5,-306.18,-390.4,530.944,-593.408
-423.096,500.688,-556.32,-396.13,-75.74,-308.21,-406.016,554.368,-562.176
-430.416,510.448,-558.76,-395.43,-70.98,-310.8,-421.632,538.752,-585.6
-431.392,517.768,-559.736,-394.73,-66.78,-313.88,-406.016,569.984,-601.216
-417.728,527.04,-563.64,-393.54,-61.95,-316.89,-398.208,554.368,-585.6
-420.168,529.968,-556.32,-391.79,-55.23,-319.27,-390.4,585.6,-577.792
-433.344,549.0,-551.928,-389.62,-48.3,-321.23,-413.824,601.216,-593.408
-455.304,572.912,-552.904,-387.59,-42.0,-322.91,-437.248,624.64,-601.216
-469.944,589.992,-553.392,-385.63,-36.4,-324.38,-445.056,648.064,-593.408
-484.096,607.072,-552.416,-383.04,-30.73,-325.78,-460.672,648.064,-577.792
-497.272,630.496,-543.632,-380.1,-24.85,-327.39,-460.672,663.68,-577.792
-515.816,650.992,-534.848,-376.88,-18.55,-329.14,-491.904,679.296,-562.176
-543.632,672.952,-519.72,-373.87,-12.46,-330.61,-530.944,765.184,-554.368
-564.128,705.16,-500.688,-370.72,-7.14,-332.08,-554.368,757.376,-538.752
-579.256,733.952,-478.728,-367.99,-1.82,-333.27,-569.984,788.608,-499.712
-602.68,754.448,-451.888,-365.4,4.2,-334.18,-569.984,812.032,-452.864
-633.912,774.456,-425.536,-362.25,10.36,-335.16,-616.832,819.84,-437.248
-673.928,789.584,-396.744,-358.12,15.47,-335.93,-640.256,819.84,-421.632
-692.472,805.2,-375.272,-353.29,19.6,-336.21,-663.68,843.264,-390.4
-708.088,822.768,-350.872,-348.39,24.22,-335.79,-694.912,858.88,-359.168
-725.168,836.92,-324.032,-343.42,29.54,-334.81,-718.336,874.496,-335.744
-743.224,847.656,-292.8,-338.94,35.14,-333.06,-718.336,882.304,-312.32
-756.888,853.512,-265.472,-334.67,40.67,-330.75,-757.376,874.496,-304.512
-781.776,843.752,-243.024,-330.61,46.27,-328.23,-749.568,905.728,-273.28
-793.0,834.968,-231.312,-326.2,51.31,-324.45,-772.992,858.88,-273.28
-797.392,830.088,-223.016,-321.65,56.28,-320.6,-796.416,890.112,-249.856
-822.768,807.152,-218.624,-318.01,61.74,-317.59,-812.032,851.072,-257.664
-848.144,780.312,-210.816,-313.6,65.59,-314.3,-812.032,819.84,-249.856
-847.168,758.352,-198.128,-308.14,67.97,-309.82,-804.224,788.608,-203.008
-846.68,731.024,-184.464,-302.19,70.91,-304.92,-835.456,780.8,-218.624
-855.952,699.792,-163.48,-295.47,74.2,-300.51,-851.072,765.184,-179.584
-865.712,670.512,-142.008,-287.21,76.72,-296.03,-858.88,726.144,-148.352
-861.32,651.968,-121.024,-277.69,79.1,-291.62,-835.456,710.528,-148.352
-854.0,639.28,-111.752,-267.47,81.76,-287.7,-819.84,687.104,-140.544
-846.68,637.816,-101.992,-256.62,85.12,-284.48,-827.648,694.912,-109.312
-840.336,637.816,-82.472,-245.21,89.25,-281.47,-835.456,694.912,-101.504
-840.336,647.576,-52.216,-233.73,93.73,-278.53,-812.032,694.912,-78.08
-838.384,663.68,-37.088,-222.04,98.42,-275.66,-819.84,733.952,-39.04
-842.288,679.784,-35.624,-210.56,103.25,-272.86,-835.456,757.376,-78.08
-850.584,705.16,-34.648,-199.36,107.8,-270.2,-835.456,765.184,-62.464
-857.904,727.12,-28.792,-188.37,111.86,-267.4,-835.456,796.416,-46.848
-869.616,759.328,-20.984,-177.31,115.64,-263.97,-835.456,843.264,-39.04
-878.4,789.096,-12.2,-166.32,119.0,-260.05,-835.456,851.072,-15.616
-890.6,824.72,-4.88,-155.89,122.71,-256.27,-866.688,874.496,-23.424
-913.536,855.464,-1.464,-146.3,126.35,-252.63,-897.92,913.536,-23.424
-938.912,883.768,13.664,-136.92,129.22,-249.06,-929.152,952.576,7.808
-950.136,910.608,32.208,-127.96,131.32,-245.21,-913.536,960.384,23.424
-959.896,929.64,47.336,-119.63,133.98,-241.29,-944.768,983.808,23.424
-977.952,947.696,66.368,-111.58,136.71,-237.23,-968.192,976.0,54.656
-985.272,970.632,89.792,-103.81,138.74,-232.61,-976.0,1038.464,46.848
-993.568,992.104,105.896,-96.88,141.4,-228.41,-983.808,1046.272,101.504
-1017.968,1009.184,114.68,-90.79,143.85,-224.42,-968.192,1054.08,93.696
-1034.56,1034.56,127.368,-84.98,145.32,-220.71,-991.616,1100.928,117.12
-1051.152,1061.888,142.496,-79.73,146.44,-216.93,-1022.848,1132.16,124.928
-1061.888,1089.704,159.088,-75.18,147.35,-213.29,-1046.272,1147.776,132.736
-1070.672,1119.96,170.312,-70.98,148.26,-209.79,-1061.888,1179.008,156.16
-1086.776,1144.36,175.192,-67.13,149.24,-206.71,-1054.08,1194.624,132.736
-1102.392,1162.416,176.168,-63.7,149.52,-203.49,-1093.12,1202.432,156.16
-1113.128,1171.688,178.608,-60.97,149.24,-199.92,-1085.312,1218.048,156.16
-1124.84,1172.176,182.024,-58.66,148.96,-195.72,-1100.928,1202.432,148.352
-1138.992,1160.464,190.808,-56.42,148.33,-190.54,-1124.352,1202.432,187.392
-1144.848,1149.24,195.688,-53.83,147.0,-184.87,-1116.544,1202.432,171.776
-1152.168,1135.576,189.832,-51.73,145.46,-179.76,-1155.584,1171.2,179.584
-1164.368,1122.888,190.32,-49.98,143.71,-174.93,-1163.392,1155.584,179.584
-1172.664,1109.712,190.32,-48.79,141.75,-170.59,-1147.776,1147.776,163.968
-1184.376,1096.048,195.688,-48.02,139.58,-166.39,-1186.816,1147.776,187.392
-1194.624,1080.432,205.448,-47.11,137.48,-162.19,-1186.816,1124.352,218.624
-1203.408,1071.16,217.16,-45.99,135.38,-157.71,-1139.968,1100.928,195.2
-1212.192,1062.864,224.968,-44.24,133.28,-153.16,-1186.816,1100.928,218.624
-1219.512,1051.64,233.264,-42.0,131.39,-148.26,-1202.432,1077.504,218.624
-1219.512,1041.88,229.848,-39.41,129.57,-143.08,-1179.008,1061.888,242.048
-1224.88,1032.12,225.944,-36.4,127.89,-137.76,-1218.048,1085.312,210.816
-1228.784,1022.36,219.6,-33.32,126.28,-132.37,-1225.856,1069.696,210.816
-1239.032,1015.04,219.6,-30.17,123.97,-126.63,-1233.664,1061.888,195.2
-1247.328,1003.328,233.752,-27.02,120.75,-120.19,-1233.664,1046.272,210.816
-1251.232,990.152,252.784,-23.73,116.97,-113.19,-1225.856,1015.04,257.664
-1253.184,974.536,272.304,-20.02,112.77,-105.77,-1225.856,1054.08,242.048
-1253.184,954.04,284.504,-15.47,108.57,-98.0,-1233.664,991.616,288.896
-1259.04,925.736,288.408,-9.94,104.3,-90.09,-1233.664,952.576,281.088
-1267.336,894.016,296.216,-2.66,99.82,-82.25,-1249.28,960.384,288.896
-1273.68,860.344,314.76,6.02,95.13,-74.76,-1241.472,890.112,304.512
-1282.952,824.232,342.088,16.1,90.37,-67.76,-1272.704,882.304,335.744
-1296.616,789.096,389.424,27.86,85.05,-61.32,-1280.512,835.456,406.016
-1302.96,756.888,442.616,41.23,79.52,-55.44,-1288.32,812.032,421.632
-1291.736,734.44,488.0,56.0,74.13,-49.84,-1272.704,780.8,468.48
-1271.24,715.408,517.28,71.61,69.79,-44.45,-1257.088,757.376,515.328
-1244.4,703.208,525.088,87.43,66.43,-39.06,-1241.472,772.992,515.328
-1220.0,701.744,525.088,102.69,64.4,-34.16,-1202.432,749.568,515.328
-1211.704,711.992,520.208,116.62,62.72,-29.19,-1194.624,757.376,507.52
-1201.944,738.832,520.208,128.8,60.41,-24.29,-1163.392,796.416,538.752
-1191.208,779.336,515.328,138.74,57.82,-19.25,-1147.776,819.84,507.52
-1186.816,827.648,510.936,146.23,54.81,-14.35,-1155.584,897.92,476.288
-1180.472,879.864,510.448,152.32,51.31,-9.45,-1147.776,929.152,507.52
-1172.176,929.64,503.616,157.29,47.74,-4.76,-1147.776,999.424,460.672
-1159.0,972.584,491.416,161.49,43.96,-0.42,-1139.968,1022.848,468.48
-1144.848,1006.744,473.848,165.27,40.67,3.78,-1116.544,1046.272,452.864
-1133.136,1032.12,454.328,168.63,37.45,7.63,-1093.12,1077.504,421.632
-1123.376,1046.272,440.664,171.5,34.16,11.62,-1061.888,1100.928,429.44
-1109.712,1053.592,431.392,173.88,30.73,15.68,-1100.928,1116.544,413.824
-1097.024,1051.152,423.096,175.84,27.37,19.88,-1077.504,1132.16,390.4
-1081.896,1041.392,415.776,177.59,23.87,24.01,-1038.464,1077.504,398.208
-1059.936,1031.632,413.336,179.48,20.44,28.14,-1030.656,1077.504,406.016
-1032.608,1022.36,416.264,181.16,17.29,32.06,-991.616,1061.888,413.824
-1000.4,1017.968,422.608,182.56,14.84,35.63,-976.0,1069.696,406.016
-973.56,1018.944,424.072,183.61,13.16,38.99,-944.768,1077.504,406.016
-944.768,1029.192,424.072,183.89,11.48,41.86,-921.344,1085.312,429.44
-919.88,1047.736,425.048,183.05,10.22,44.38,-866.688,1124.352,406.016
-905.728,1067.744,427.0,180.95,8.96,46.76,-858.88,1124.352,413.824
-888.16,1097.024,428.952,178.01,7.28,49.14,-827.648,1147.776,413.824
-875.472,1123.376,422.608,173.74,5.74,51.1,-851.072,1155.584,406.016
-867.176,1152.656,415.288,168.63,3.99,52.99,-827.648,1210.24,382.592
-862.784,1180.472,411.384,162.4,2.24,54.67,-843.264,1210.24,390.4
-855.464,1204.872,406.992,155.26,0.35,56.28,-866.688,1249.28,374.784
-849.608,1226.832,405.04,147.21,-1.47,57.68,-796.416,1264.896,398.208
-843.752,1240.496,403.088,138.18,-3.29,58.8,-812.032,1288.32,374.784
-840.824,1247.328,399.184,128.38,-5.04,59.85,-819.84,1296.128,390.4
-841.312,1248.304,398.696,118.16,-7.0,60.69,-819.84,1280.512,390.4
-838.872,1242.936,400.648,107.38,-8.96,61.32,-812.032,1311.744,390.4
-833.016,1233.176,404.552,96.32,-11.34,61.81,-819.84,1264.896,406.016
-828.136,1217.56,404.064,85.19,-13.51,62.02,-812.032,1257.088,398.208
-823.256,1199.016,398.208,73.99,-15.61,62.23,-804.224,1210.24,382.592
-815.936,1171.688,396.256,63.28,-17.71,62.23,-772.992,1202.432,374.784
-810.568,1141.92,397.232,53.06,-19.74,62.09,-796.416,1179.008,359.168
-804.712,1102.88,396.744,43.61,-21.77,61.95,-765.184,1163.392,374.784
-799.832,1061.888,393.816,34.79,-23.59,61.81,-780.8,1116.544,359.168
-800.32,1012.112,396.744,26.81,-25.55,61.81,-788.608,1069.696,366.976
-797.88,955.992,402.112,19.95,-27.72,62.02,-796.416,991.616,374.784
-794.464,891.088,406.992,13.93,-29.82,62.16,-757.376,929.152,406.016
-792.512,826.184,413.336,9.31,-31.99,62.3,-772.992,858.88,406.016
-787.144,760.304,414.312,5.6,-33.81,62.51,-757.376,796.416,406.016
-784.216,691.984,414.312,2.66,-35.35,62.51,-726.144,718.336,406.016
-782.752,624.152,415.776,0.63,-36.75,62.51,-733.952,663.68,406.016
-782.264,554.856,425.048,-0.56,-37.94,62.23,-780.8,616.832,413.824
-782.752,491.416,426.512,-0.98,-39.13,62.02,-765.184,515.328,398.208
-783.24,431.88,429.928,-0.35,-40.39,62.02,-741.76,476.288,421.632
-782.752,377.712,431.392,1.12,-41.65,62.09,-749.568,413.824,413.824
-772.016,330.864,428.952,3.36,-42.84,62.23,-741.76,366.976,406.016
-760.304,288.896,422.608,6.02,-43.33,62.3,-749.568,304.512,390.4
-758.84,252.784,412.36,9.45,-43.68,62.3,-733.952,296.704,413.824
-747.616,229.36,406.992,13.44,-44.1,62.23,-718.336,288.896,374.784
-745.176,214.72,393.816,17.64,-44.31,62.16,-710.528,242.048,398.208
-737.368,210.816,386.008,21.98,-44.8,62.23,-710.528,265.472,351.36
-723.216,218.624,377.712,26.11,-45.01,62.44,-687.104,273.28,366.976
-708.088,236.68,368.928,30.38,-45.01,62.79,-671.488,281.088,335.744
-692.472,266.936,357.216,34.51,-44.66,63.28,-679.296,312.32,335.744
-675.88,302.56,345.016,38.08,-43.82,63.98,-640.256,359.168,312.32
-659.288,343.064,329.4,41.44,-42.63,64.68,-640.256,382.592,312.32
-650.016,390.4,315.736,44.31,-41.16,65.38,-616.832,437.248,288.896
-641.232,439.2,298.656,46.62,-39.55,66.15,-624.64,476.288,281.088
-635.376,489.464,283.04,48.02,-37.8,66.71,-616.832,530.944,265.472
-632.936,540.216,266.448,48.51,-35.84,67.13,-593.408,601.216,234.24
-638.304,586.576,247.416,47.95,-33.74,67.34,-609.024,632.448,226.432
-646.112,629.52,230.824,46.55,-31.64,67.34,-609.024,687.104,210.816
-657.824,668.56,214.232,44.31,-29.68,67.13,-624.64,702.72,187.392
-673.928,699.792,196.664,41.44,-28.21,66.57,-648.064,749.568,156.16
-689.544,725.656,181.048,38.01,-26.81,65.87,-648.064,772.992,156.16
-706.624,743.712,165.92,34.23,-25.83,65.17,-694.912,788.608,156.16
-719.8,755.912,154.696,29.96,-24.85,64.33,-702.72,812.032,109.312
-735.416,762.256,141.032,25.69,-24.29,63.42,-733.952,827.648,117.12
-744.2,760.792,131.272,21.21,-23.66,62.72,-710.528,796.416,124.928
-751.032,753.472,121.512,16.66,-23.1,62.02,-733.952,812.032,93.696
-755.424,741.76,112.728,12.25,-22.47,61.39,-741.76,796.416,93.696
-759.328,723.704,102.48,7.77,-21.84,60.9,-749.568,749.568,70.272
-763.232,700.28,91.256,3.5,-21.21,60.55,-749.568,749.568,62.464
-764.208,675.392,81.984,-0.56,-20.79,60.2,-741.76,733.952,70.272
-762.744,647.088,77.104,-4.48,-20.37,60.06,-757.376,671.488,54.656
-759.816,618.296,67.832,-8.19,-20.09,59.71,-757.376,655.872,31.232
-753.472,593.408,55.144,-11.76,-19.74,59.08,-718.336,640.256,7.808
-744.688,567.544,43.92,-15.05,-19.25,58.45,-718.336,601.216,39.04
-734.928,544.12,29.28,-18.13,-18.62,57.61,-694.912,577.792,-7.808
-726.632,527.04,20.496,-21.0,-17.99,56.63,-702.72,585.6,-15.616
-716.872,508.496,7.808,-23.87,-17.36,55.58,-694.912,530.944,-7.808
-707.112,492.392,-1.952,-26.32,-16.59,54.53,-663.68,530.944,-31.232
-697.352,476.288,-14.152,-28.49,-15.89,53.2,-694.912,515.328,-46.848
-687.104,460.184,-20.984,-30.1,-15.05,52.08,-671.488,491.904,-46.848
-678.808,447.984,-20.008,-31.5,-13.72,50.61,-663.68,499.712,-39.04
-674.416,440.176,-12.2,-32.62,-12.11,49.0,-663.68,484.096,-46.848
-670.512,433.344,-5.368,-33.67,-10.64,47.32,-640.256,476.288,-23.424
-673.928,423.096,-6.344,-34.72,-8.96,45.78,-655.872,452.864,-7.808
-677.832,410.896,-9.76,-35.7,-7.35,44.03,-648.064,468.48,-31.232
-686.616,395.28,-5.856,-36.33,-5.88,42.35,-679.296,452.864,-39.04
-697.352,376.248,5.368,-36.68,-4.62,40.67,-694.912,406.016,-15.616
-707.6,351.36,7.32,-36.89,-3.64,38.85,-671.488,406.016,0.0
-714.92,327.936,3.416,-36.89,-3.01,37.1,-702.72,359.168,-7.808
-720.288,299.144,-2.928,-36.68,-2.1,35.21,-702.72,335.744,-39.04
-726.144,269.864,-9.272,-36.61,-1.4,33.32,-671.488,288.896,-23.424
-731.512,238.632,-7.808,-36.4,-0.7,31.36,-710.528,281.088,-39.04
-736.88,207.888,-6.832,-35.77,-0.14,29.61,-687.104,265.472,-23.424
-739.808,176.168,-3.904,-34.72,0.28,28.0,-726.144,226.432,-31.232
-743.224,147.376,-5.856,-32.9,0.63,26.39,-718.336,195.2,-15.616
-739.808,119.56,-16.104,-30.59,0.77,24.85,-733.952,148.352,-31.232
-739.32,91.256,-19.032,-28.0,1.19,23.52,-726.144,148.352,-39.04
-744.2,57.584,-24.888,-24.99,1.47,22.12,-718.336,70.272,-39.04
-747.128,28.792,-35.624,-21.7,1.54,20.72,-726.144,78.08,-39.04
-748.104,0.976,-45.872,-18.2,1.33,19.11,-726.144,39.04,-46.848
-750.544,-22.936,-58.072,-14.28,1.26,17.29,-726.144,7.808,-62.464
-749.08,-42.944,-63.44,-10.15,1.12,15.54,-726.144,0.0,-70.272
-750.544,-58.56,-65.392,-5.32,1.12,13.65,-718.336,-7.808,-101.504
-749.08,-67.832,-74.176,-0.28,1.19,11.69,-718.336,-39.04,-93.696
-746.64,-72.224,-84.912,5.11,1.4,9.8,-718.336,-39.04,-117.12
-748.592,-70.272,-89.792,10.78,1.89,8.19,-710.528,-31.232,-124.928
-749.568,-58.56,-89.304,16.87,2.52,6.79,-741.76,-7.808,-93.696
-754.448,-42.944,-90.28,22.96,3.22,5.46,-702.72,7.808,-117.12
-760.304,-23.912,-90.28,29.05,4.06,4.48,-726.144,46.848,-132.736
-769.088,1.464,-82.96,35.14,4.76,3.78,-741.76,46.848,-101.504
-780.312,27.328,-72.224,41.37,5.6,3.22,-741.76,46.848,-93.696
-790.56,56.608,-59.048,47.39,6.44,2.94,-765.184,117.12,-85.888
-802.272,86.864,-46.848,52.92,7.07,2.59,-804.224,132.736,-70.272
-813.984,117.608,-39.04,57.89,8.12,2.38,-796.416,163.968,-46.848
-827.648,150.792,-36.6,62.09,9.24,2.1,-812.032,218.624,-54.656
-845.216,183.488,-32.208,65.38,10.01,1.68,-827.648,226.432,-62.464
-861.32,215.696,-32.208,67.9,10.64,1.12,-827.648,257.664,-46.848
-876.448,248.392,-28.792,69.51,11.13,0.56,-843.264,296.704,-54.656
-894.016,276.208,-25.864,70.49,11.2,0.14,-851.072,335.744,-15.616
-912.072,301.584,-22.448,71.19,11.06,-0.35,-890.112,335.744,-46.848
-928.176,321.104,-14.64,71.4,10.71,-0.98,-874.496,382.592,-62.464
-939.888,335.744,-10.248,71.47,9.94,-1.54,-897.92,382.592,-31.232
-950.624,344.04,-2.44,71.54,9.03,-2.17,-921.344,398.208,0.0
-958.92,347.944,4.392,71.4,7.84,-2.73,-921.344,398.208,-15.616
-959.408,346.968,4.392,71.26,6.44,-3.43,-921.344,398.208,-7.808
-956.968,343.552,0.0,71.26,5.32,-4.27,-929.152,382.592,7.808
-954.04,341.112,0.488,71.33,4.13,-5.11,-897.92,398.208,-23.424
-950.624,332.328,-3.904,71.61,3.01,-5.95,-921.344,374.784,-15.616
-946.72,323.056,-10.248,72.1,1.75,-6.51,-921.344,359.168,-39.04
-937.936,311.344,-7.32,72.87,0.35,-7.0,-905.728,343.552,-31.232
-928.176,300.608,-4.88,74.27,-1.05,-7.21,-929.152,335.744,-15.616
-915.0,288.896,-9.272,76.09,-2.31,-7.42,-866.688,359.168,-15.616
-898.896,279.136,-12.688,78.33,-3.36,-7.7,-866.688,312.32,-23.424
-888.16,268.888,-10.736,80.78,-4.2,-8.05,-851.072,304.512,-7.808
-876.448,259.616,-4.88,83.65,-5.04,-8.47,-843.264,304.512,-15.616
-863.76,252.784,-2.928,86.73,-5.88,-8.82,-858.88,288.896,-23.424
-849.608,247.904,-6.832,89.88,-6.65,-9.1,-804.224,281.088,-31.232
-837.896,239.608,-13.664,93.31,-7.0,-9.31,-804.224,281.088,-15.616
-829.112,236.68,-19.032,97.09,-7.21,-9.1,-796.416,296.704,-39.04
-820.816,234.24,-34.16,101.15,-7.7,-9.31,-796.416,288.896,-54.656
-811.056,232.776,-47.824,105.35,-8.05,-9.38,-788.608,296.704,-62.464
-802.76,230.824,-60.024,109.34,-8.12,-9.45,-780.8,273.28,-109.312
-795.44,231.312,-73.688,113.19,-8.19,-9.38,-749.568,257.664,-70.272
-788.608,234.728,-90.768,116.76,-8.05,-9.24,-757.376,296.704,-124.928
-783.24,238.632,-108.336,120.19,-7.98,-8.96,-733.952,281.088,-132.736
-781.288,243.512,-119.072,123.48,-7.91,-8.96,-765.184,312.32,-124.928
-782.264,251.32,-126.88,127.05,-7.84,-8.89,-765.184,296.704,-140.544
-779.336,264.008,-131.272,130.69,-8.12,-8.82,-741.76,304.512,-179.584
-779.824,280.6,-139.08,134.12,-8.33,-9.17,-749.568,312.32,-148.352
-781.776,300.608,-143.96,137.13,-8.4,-9.59,-772.992,335.744,-179.584
-784.704,325.008,-147.376,139.93,-8.61,-10.01,-765.184,374.784,-148.352
-792.024,351.848,-142.984,142.1,-9.1,-10.15,-757.376,390.4,-156.16
-796.416,376.736,-144.448,144.13,-9.87,-10.01,-772.992,421.632,-156.16
-802.272,404.552,-148.352,146.09,-10.5,-9.66,-804.224,476.288,-156.16
-802.76,435.784,-154.208,147.77,-11.55,-9.17,-772.992,484.096,-163.968
-810.08,464.088,-150.792,149.1,-12.6,-8.4,-804.224,507.52,-156.16
-817.4,480.68,-134.688,149.8,-14.21,-7.42,-819.84,530.944,-148.352
-822.28,484.584,-118.584,150.5,-16.38,-6.44,-780.8,546.56,-140.544
-825.208,471.408,-91.744,151.27,-18.41,-5.74,-819.84,523.136,-93.696
-833.504,443.592,-44.408,152.25,-20.86,-5.32,-812.032,468.48,-70.272
-837.408,418.704,-9.272,153.37,-23.24,-5.11,-796.416,476.288,-23.424
-832.04,401.624,12.2,154.07,-25.83,-4.9,-796.416,452.864,-15.616
-817.888,389.912,14.64,154.07,-27.3,-4.34,-796.416,437.248,-7.808
-798.368,384.056,-2.928,154.07,-27.72,-3.64,-772.992,445.056,-15.616
-785.68,387.472,-22.448,154.84,-26.81,-2.8,-757.376,437.248,-78.08
-778.36,391.864,-42.944,156.87,-24.99,-2.1,-757.376,429.44,-70.272
-781.288,404.552,-68.808,160.23,-22.33,-1.33,-772.992,437.248,-117.12
-803.736,419.68,-79.056,164.85,-19.39,-0.42,-812.032,460.672,-124.928
-844.728,438.712,-60.512,170.59,-17.43,1.12,-835.456,491.904,-70.272
-878.4,475.312,-47.824,176.4,-17.43,3.36,-858.88,515.328,-46.848
-891.576,517.768,-66.368,181.37,-17.99,6.58,-866.688,585.6,-62.464
-905.24,558.76,-98.088,185.5,-17.78,10.22,-882.304,616.832,-109.312
-926.224,593.408,-113.216,189.42,-16.87,14.07,-890.112,648.064,-132.736
-948.184,622.688,-119.56,194.11,-16.1,17.57,-897.92,679.296,-132.736
-968.192,653.92,-127.856,199.78,-15.4,21.0,-929.152,694.912,-140.544
-983.32,682.712,-144.448,206.15,-14.63,24.08,-952.576,733.952,-179.584
-1000.4,713.456,-158.6,212.87,-13.44,27.16,-983.808,757.376,-187.392
-1019.92,738.832,-176.656,219.52,-11.97,30.31,-991.616,780.8,-195.2
-1043.344,760.792,-186.904,225.89,-10.57,33.46,-1022.848,819.84,-203.008
-1068.72,780.8,-202.52,232.05,-9.38,36.68,-1038.464,812.032,-218.624
-1092.632,802.272,-214.232,238.07,-8.75,39.9,-1069.696,851.072,-257.664
-1114.104,820.328,-229.848,243.25,-8.68,42.91,-1108.736,866.688,-273.28
-1135.576,839.848,-241.56,247.66,-8.89,45.85,-1108.736,905.728,-242.048
-1156.072,857.904,-258.152,251.23,-9.66,48.65,-1108.736,890.112,-288.896
-1166.32,879.864,-273.28,253.75,-10.99,51.31,-1147.776,921.344,-304.512
-1173.64,899.872,-290.36,255.43,-12.32,53.69,-1147.776,968.192,-327.936
-1175.592,922.32,-306.464,256.34,-13.93,56.07,-1163.392,960.384,-335.744
-1173.152,942.816,-327.936,256.41,-15.47,58.52,-1132.16,968.192,-343.552
-1165.832,965.264,-343.064,255.64,-17.01,60.97,-1147.776,991.616,-359.168
-1154.608,983.808,-359.168,254.17,-18.34,63.49,-1124.352,1015.04,-390.4
-1142.896,1000.4,-373.808,251.65,-19.67,66.01,-1100.928,1077.504,-398.208
-1130.696,1012.112,-386.008,248.5,-20.86,68.67,-1108.736,1061.888,-398.208
-1116.544,1019.432,-397.232,244.37,-22.19,71.47,-1093.12,1054.08,-429.44
-1099.952,1025.776,-409.92,239.68,-23.45,74.2,-1069.696,1077.504,-421.632
-1082.384,1029.68,-421.144,234.15,-24.36,76.72,-1054.08,1108.736,-429.44
-1064.328,1036.024,-430.416,227.43,-25.06,79.17,-1038.464,1093.12,-437.248
-1050.664,1031.144,-438.224,220.01,-25.62,81.41,-1030.656,1093.12,-460.672
-1031.144,1023.336,-445.056,211.96,-25.9,83.44,-1007.232,1093.12,-468.48
-1007.232,1008.696,-455.304,204.19,-25.76,85.33,-983.808,1077.504,-491.904
-984.296,985.272,-466.04,196.77,-25.27,87.01,-960.384,1007.232,-468.48
-963.312,956.48,-473.848,189.63,-24.01,88.97,-952.576,991.616,-484.096
-945.744,918.416,-470.92,182.91,-22.12,91.0,-905.728,960.384,-484.096
-935.008,874.496,-463.6,176.61,-20.3,93.03,-905.728,897.92,-491.904
-924.272,823.744,-453.352,170.73,-18.62,94.85,-890.112,851.072,-484.096
-917.44,767.136,-445.544,165.69,-17.08,96.11,-890.112,804.224,-468.48
-906.216,708.576,-442.128,161.35,-15.61,97.02,-890.112,749.568,-476.288
-896.456,651.48,-441.152,157.85,-13.86,97.37,-874.496,687.104,-452.864
-890.112,596.824,-445.056,155.19,-12.11,96.88,-866.688,616.832,-484.096
-887.184,542.168,-451.888,153.44,-10.36,95.83,-858.88,601.216,-476.288
-886.208,489.464,-454.816,152.39,-8.54,94.15,-858.88,530.944,-499.712
-894.992,443.104,-441.64,151.97,-7.07,91.91,-866.688,499.712,-437.248
-901.824,407.968,-415.776,152.18,-5.88,89.25,-882.304,452.864,-445.056
-914.512,375.76,-381.128,152.11,-5.18,86.52,-882.304,421.632,-398.208
-925.736,352.336,-347.456,152.46,-5.32,84.35,-897.92,413.824,-366.976
-929.152,329.4,-316.712,152.88,-6.09,82.88,-921.344,390.4,-327.936
-934.032,303.536,-279.136,153.37,-7.07,81.76,-921.344,351.36,-312.32
-933.544,283.04,-248.392,154.14,-8.4,80.99,-882.304,335.744,-265.472
-928.664,263.52,-213.744,154.49,-9.94,80.22,-897.92,312.32,-218.624
-921.344,247.904,-178.12,154.63,-11.41,79.31,-890.112,273.28,-187.392
-896.456,223.992,-165.432,154.42,-11.83,78.12,-866.688,281.088,-195.2
-878.4,195.688,-162.016,154.63,-11.06,76.3,-858.88,234.24,-195.2
-843.752,184.952,-170.8,155.68,-9.73,73.99,-819.84,242.048,-195.2
-827.16,173.24,-161.528,157.22,-6.79,71.82,-780.8,218.624,-187.392
-831.552,168.848,-136.64,159.25,-4.06,70.14,-804.224,203.008,-156.16
-835.456,158.6,-103.944,161.84,-2.8,68.32,-804.224,203.008,-132.736
-829.6,151.768,-88.816,164.99,-2.38,66.71,-819.84,195.2,-109.312
-828.624,142.984,-83.448,168.56,-2.17,65.24,-788.608,195.2,-93.696
-817.4,124.928,-101.992,172.48,-2.24,63.98,-804.224,171.776,-124.928
-852.048,127.856,-39.528,176.26,-2.24,62.44,-804.224,156.16,-39.04
-873.032,144.448,11.224,178.57,-4.97,60.62,-851.072,226.432,-7.808
-858.392,178.12,10.248,179.13,-8.47,58.59,-819.84,218.624,-7.808
-848.632,212.768,-7.808,177.94,-10.5,56.21,-819.84,273.28,-31.232
-842.776,256.688,-24.4,175.77,-12.04,53.83,-796.416,320.128,-54.656
-832.04,301.096,-48.312,173.04,-13.16,51.59,-804.224,343.552,-78.08
-820.816,340.136,-85.888,170.03,-14.21,49.77,-804.224,390.4,-124.928
-803.248,381.128,-120.048,167.44,-15.33,49.21,-780.8,429.44,-148.352
-785.192,408.456,-160.552,165.27,-15.96,49.07,-741.76,452.864,-179.584
-772.504,427.488,-197.64,164.15,-16.38,49.35,-765.184,476.288,-195.2
-764.208,429.44,-218.136,163.87,-17.01,49.84,-702.72,484.096,-249.856
-758.84,433.344,-229.36,164.15,-18.13,50.68,-733.952,491.904,-257.664
-751.032,439.688,-247.416,163.59,-19.53,51.73,-733.952,476.288,-265.472
-740.296,438.224,-263.52,163.03,-21.14,53.13,-726.144,484.096,-296.704
-733.952,430.416,-254.248,163.38,-22.47,54.74,-679.296,460.672,-273.28
-738.344,412.848,-238.144,164.71,-23.38,55.72,-710.528,452.864,-242.048
-743.712,401.136,-225.456,166.39,-24.29,55.02,-726.144,460.672,-249.856
-754.448,392.84,-212.768,167.09,-24.85,52.85,-726.144,429.44,-249.856
-764.696,392.352,-202.52,166.53,-25.41,49.98,-741.76,445.056,-234.24
-776.896,395.28,-183.488,164.5,-25.62,47.04,-772.992,452.864,-210.816
-784.704,405.04,-177.144,161.21,-26.32,44.59,-749.568,460.672,-187.392
-783.728,418.216,-167.872,157.36,-27.37,42.91,-749.568,476.288,-171.776
-769.576,438.712,-177.632,153.23,-28.63,41.93,-726.144,484.096,-179.584
-753.472,433.344,-183.0,149.73,-29.47,41.51,-733.952,476.288,-195.2
-730.536,437.736,-198.616,147.28,-29.47,41.3,-726.144,484.096,-218.624
-707.112,443.592,-240.584,144.9,-28.21,40.74,-687.104,491.904,-273.28
-690.52,432.856,-276.696,143.29,-26.18,39.9,-655.872,460.672,-288.896
-695.4,420.168,-284.016,143.29,-23.94,38.85,-640.256,476.288,-327.936
-708.088,418.216,-288.896,143.99,-22.33,37.66,-679.296,468.48,-304.512
-719.8,412.848,-301.096,143.92,-21.7,36.47,-702.72,445.056,-343.552
-732.0,405.04,-302.072,143.01,-21.21,35.56,-694.912,445.056,-335.744
-746.64,405.528,-293.776,141.61,-20.58,34.51,-726.144,476.288,-304.512
-759.328,402.112,-284.016,139.72,-19.95,33.04,-741.76,413.824,-288.896
-770.064,395.28,-278.16,137.34,-18.83,31.01,-741.76,429.44,-288.896
-777.384,393.328,-287.432,134.89,-17.57,28.49,-741.76,445.056,-304.512
-772.504,388.448,-291.824,132.79,-16.17,25.9,-749.568,429.44,-327.936
-772.504,386.984,-292.8,131.6,-14.21,22.96,-733.952,452.864,-335.744
-764.696,388.936,-305.488,130.2,-11.83,19.46,-718.336,421.632,-335.744
-764.696,388.936,-325.496,128.73,-9.03,16.17,-718.336,429.44,-359.168
-768.112,386.008,-344.528,127.05,-6.65,13.79,-741.76,429.44,-351.36
-776.896,388.448,-351.36,125.93,-5.25,12.46,-741.76,421.632,-374.784
-779.336,394.792,-359.168,124.88,-4.83,12.04,-741.76,445.056,-359.168
-775.432,399.184,-377.224,123.9,-4.41,11.9,-772.992,437.248,-390.4
-776.896,395.768,-391.376,123.06,-3.71,12.11,-726.144,421.632,-413.824
-777.872,391.864,-393.816,122.29,-3.22,11.62,-772.992,468.48,-437.248
-773.968,388.936,-415.776,121.38,-2.52,10.78,-726.144,406.016,-468.48
-767.136,377.712,-441.64,120.75,-1.54,9.24,-741.76,413.824,-484.096
-772.992,357.216,-433.832,120.89,-0.7,7.91,-765.184,398.208,-460.672
-776.408,340.624,-412.36,121.87,-0.91,6.72,-772.992,374.784,-421.632
-759.328,355.264,-422.608,122.5,-1.26,5.67,-733.952,398.208,-460.672
-735.904,369.416,-464.088,121.17,-0.21,4.62,-718.336,429.44,-507.52
-723.704,385.52,-504.592,119.7,1.82,4.34,-694.912,429.44,-546.56
-722.728,408.944,-541.68,119.49,3.78,4.48,-694.912,437.248,-577.792
-720.776,442.616,-578.28,120.82,4.97,5.18,-702.72,484.096,-624.64
-715.896,473.848,-611.464,122.99,5.95,6.02,-687.104,515.328,-624.64
-723.216,502.152,-625.616,126.14,7.21,7.21,-694.912,554.368,-640.256
-736.88,531.92,-621.224,129.85,8.26,8.19,-726.144,593.408,-640.256
-750.056,566.08,-622.688,132.65,9.45,8.19,-726.144,616.832,-671.488
-753.472,617.32,-642.696,133.28,10.71,7.21,-718.336,655.872,-671.488
-762.256,671.976,-669.048,131.25,12.04,5.88,-726.144,702.72,-687.104
-781.288,709.064,-676.368,127.82,12.53,5.46,-741.76,757.376,-694.912
-811.544,722.728,-654.896,125.72,12.04,6.37,-788.608,780.8,-655.872
-827.648,727.12,-622.688,125.86,10.01,7.28,-804.224,772.992,-655.872
-823.744,729.072,-600.728,127.12,7.91,7.49,-796.416,780.8,-648.064
-799.832,738.832,-598.776,127.26,6.86,6.79,-804.224,772.992,-632.448
-779.824,757.864,-609.024,124.6,7.0,5.6,-733.952,804.224,-624.64
-763.232,788.12,-620.248,118.93,7.91,4.48,-772.992,843.264,-663.68
-749.568,815.448,-637.328,111.3,8.47,4.2,-733.952,866.688,-655.872
-727.608,843.752,-669.536,103.25,9.1,4.34,-710.528,905.728,-702.72
-710.528,869.128,-702.72,95.34,9.94,5.11,-679.296,913.536,-718.336
-694.424,894.016,-726.144,88.06,10.57,5.81,-679.296,952.576,-741.76
-681.736,913.536,-744.2,81.48,10.92,6.44,-632.448,968.192,-749.568
-670.024,932.08,-748.592,75.11,10.99,6.72,-632.448,976.0,-772.992
-664.656,948.184,-738.344,68.46,10.78,6.51,-640.256,983.808,-741.76
-662.704,952.088,-719.8,61.32,10.64,6.09,-663.68,983.808,-741.76
-665.632,949.16,-692.472,53.69,10.43,5.81,-624.64,999.424,-694.912
-671.488,938.424,-658.312,45.71,10.08,5.46,-640.256,976.0,-694.912
-674.904,915.976,-621.224,37.59,9.59,5.25,-648.064,952.576,-624.64
-673.928,881.816,-587.552,29.61,9.31,4.97,-648.064,921.344,-609.024
-668.56,840.336,-561.2,22.47,9.59,4.62,-624.64,874.496,-601.216
-669.536,796.904,-541.68,16.45,10.57,4.2,-624.64,835.456,-569.984
-676.856,760.304,-527.528,11.41,11.76,3.71,-648.064,812.032,-554.368
-689.056,732.0,-516.792,7.21,12.95,3.29,-663.68,772.992,-546.56
-702.232,709.064,-508.008,3.64,13.72,2.59,-679.296,757.376,-507.52
-712.968,691.496,-496.784,0.42,14.28,1.82,-694.912,749.568,-523.136
-717.848,677.832,-492.392,-2.24,14.28,1.05,-694.912,702.72,-507.52
-720.776,669.536,-488.488,-4.41,14.21,0.7,-718.336,718.336,-484.096
-717.36,665.144,-483.608,-6.23,14.21,0.56,-702.72,694.912,-507.52
-715.896,666.608,-477.752,-7.84,14.07,0.7,-687.104,710.528,-491.904
-718.336,669.536,-476.776,-9.38,13.93,0.91,-687.104,710.528,-491.904
-717.848,672.952,-472.384,-11.06,13.79,1.54,-687.104,718.336,-499.712
-717.36,674.904,-469.944,-13.09,13.44,2.24,-687.104,741.76,-499.712
-717.36,676.368,-469.456,-15.05,12.95,3.01,-671.488,733.952,-507.52
-715.408,674.904,-470.432,-17.29,12.46,3.85,-687.104,733.952,-484.096
-710.04,674.416,-472.872,-19.81,11.9,4.2,-702.72,710.528,-476.288
-705.16,674.416,-478.24,-22.68,11.76,4.2,-694.912,718.336,-515.328
-704.672,673.44,-477.752,-25.83,11.76,3.92,-710.528,718.336,-476.288
-703.208,677.344,-474.336,-29.05,11.69,3.36,-671.488,726.144,-499.712
-700.768,682.224,-467.016,-32.41,11.55,2.59,-687.104,726.144,-484.096
-704.184,687.104,-464.088,-36.05,11.69,1.82,-702.72,765.184,-460.672
-711.992,693.936,-459.208,-39.62,12.11,0.84,-687.104,765.184,-491.904
-719.8,702.232,-456.28,-43.26,12.39,0.07,-687.104,749.568,-460.672
-729.072,711.992,-457.744,-46.83,12.67,-0.84,-687.104,749.568,-484.096
-740.784,719.8,-460.184,-50.54,12.95,-1.75,-726.144,765.184,-484.096
-758.352,728.584,-466.528,-54.46,12.95,-2.59,-718.336,765.184,-491.904
-780.312,740.296,-462.624,-58.66,12.74,-3.71,-757.376,788.608,-507.52
-804.712,761.28,-449.936,-63.28,11.55,-5.18,-780.8,827.648,-468.48
-822.28,787.144,-432.856,-68.25,9.59,-7.14,-812.032,843.264,-452.864
-827.648,813.984,-418.704,-73.85,7.42,-9.52,-812.032,843.264,-421.632
-827.16,841.8,-407.48,-80.43,5.18,-12.18,-804.224,897.92,-429.44
-823.744,868.64,-399.184,-87.5,2.87,-14.91,-804.224,913.536,-421.632
-813.984,893.528,-394.792,-95.69,0.63,-17.22,-796.416,952.576,-437.248
-797.88,917.928,-395.768,-105.0,-1.19,-19.39,-772.992,968.192,-421.632
-781.288,946.232,-397.72,-115.08,-2.59,-21.35,-757.376,976.0,-429.44
-754.936,974.536,-415.776,-125.65,-3.57,-23.1,-733.952,1046.272,-445.056
-735.904,1002.84,-436.272,-136.57,-4.13,-24.92,-726.144,1061.888,-476.288
-718.824,1035.536,-456.28,-147.77,-4.13,-26.53,-702.72,1093.12,-476.288
-703.696,1074.576,-484.096,-159.18,-3.78,-28.14,-671.488,1124.352,-507.52
-692.472,1119.96,-512.888,-170.73,-3.43,-29.61,-616.832,1155.584,-546.56
-688.568,1171.2,-548.512,-182.84,-2.73,-30.94,-671.488,1241.472,-593.408
-693.448,1223.904,-578.768,-194.74,-2.03,-32.27,-671.488,1264.896,-616.832
-710.528,1280.512,-594.872,-206.92,-1.68,-33.6,-687.104,1335.168,-624.64
-728.584,1337.608,-605.608,-219.31,-1.82,-35.35,-687.104,1374.208,-632.448
-751.032,1390.8,-615.856,-231.91,-1.96,-37.45,-718.336,1428.864,-655.872
-783.728,1443.992,-629.032,-244.72,-2.03,-39.76,-772.992,1506.944,-655.872
-822.768,1490.84,-642.696,-258.16,-2.66,-42.14,-827.648,1514.752,-679.296
-861.808,1525.976,-653.432,-272.02,-3.85,-44.59,-843.264,1561.6,-679.296
-902.312,1556.232,-671.976,-286.44,-5.88,-46.97,-882.304,1616.256,-694.912
-940.376,1577.704,-694.424,-301.56,-8.4,-49.28,-913.536,1631.872,-702.72
-972.584,1587.952,-719.312,-316.89,-11.55,-51.52,-952.576,1631.872,-733.952
-1006.744,1585.024,-745.664,-332.08,-15.12,-53.69,-983.808,1600.64,-812.032
-1037.976,1572.336,-762.744,-346.36,-19.32,-55.86,-1015.04,1616.256,-796.416
-1054.08,1550.864,-777.872,-359.94,-24.01,-58.17,-1038.464,1585.024,-780.8
-1068.232,1523.048,-796.416,-372.96,-28.63,-60.76,-1054.08,1585.024,-819.84
-1064.816,1488.888,-818.376,-385.14,-33.46,-63.42,-1054.08,1522.56,-835.456
-1061.888,1452.776,-834.48,-397.04,-37.94,-65.87,-1022.848,1499.136,-851.072
-1055.544,1412.272,-844.728,-408.31,-42.42,-67.48,-1015.04,1460.096,-890.112
-1039.44,1366.888,-855.464,-419.3,-46.48,-68.04,-1022.848,1421.056,-897.92
-1011.624,1330.288,-875.96,-430.29,-49.91,-67.2,-983.808,1350.784,-897.92
-996.008,1294.664,-884.744,-441.49,-52.5,-65.17,-960.384,1350.784,-890.112
-977.952,1247.816,-872.544,-452.55,-55.86,-62.02,-944.768,1288.32,-890.112
-966.728,1193.648,-835.944,-462.42,-59.08,-58.52,-952.576,1257.088,-866.688
-966.728,1149.728,-786.656,-470.4,-62.16,-54.81,-960.384,1179.008,-804.224
-963.312,1106.784,-726.144,-477.4,-65.87,-51.17,-952.576,1147.776,-757.376
-957.944,1065.304,-675.392,-483.21,-68.74,-46.48,-936.96,1108.736,-679.296
-949.648,1016.504,-635.376,-489.02,-71.05,-40.74,-913.536,1077.504,-655.872
-933.544,951.6,-602.192,-494.06,-72.31,-33.39,-897.92,976.0,-632.448
-929.64,894.504,-600.728,-497.63,-72.87,-25.48,-921.344,944.768,-616.832
-923.784,841.312,-594.384,-500.01,-73.01,-18.83,-882.304,905.728,-616.832
-915.976,788.608,-580.232,-500.64,-72.87,-13.02,-882.304,827.648,-609.024
-900.848,734.44,-543.632,-499.45,-72.52,-7.7,-858.88,772.992,-562.176
-887.672,698.328,-510.936,-496.3,-71.47,-2.73,-843.264,741.76,-530.944
-867.664,665.632,-469.456,-492.45,-70.14,2.31,-812.032,726.144,-476.288
-839.36,624.152,-429.44,-487.2,-68.67,7.91,-819.84,648.064,-437.248
-808.616,592.92,-387.472,-480.62,-66.57,14.28,-812.032,648.064,-398.208
-778.848,553.392,-343.552,-472.71,-63.98,20.02,-741.76,616.832,-374.784
-758.352,528.992,-303.048,-462.91,-60.2,25.48,-733.952,585.6,-327.936
-750.056,508.008,-257.176,-451.99,-56.49,30.87,-726.144,546.56,-265.472
-746.64,490.44,-215.208,-440.09,-53.13,36.33,-710.528,538.752,-226.432
-746.152,473.36,-172.752,-427.7,-50.19,41.65,-710.528,523.136,-195.2
-737.856,461.16,-142.008,-414.68,-47.95,46.69,-718.336,515.328,-156.16
-716.872,446.52,-115.656,-401.38,-45.29,51.59,-710.528,491.904,-132.736
-703.208,438.224,-89.304,-388.22,-41.65,56.84,-663.68,499.712,-117.12
-702.232,432.856,-64.416,-374.85,-37.73,61.95,-687.104,484.096,-85.888
-703.696,431.392,-42.456,-361.13,-34.51,66.5,-671.488,476.288,-70.272
-702.232,435.784,-20.984,-347.34,-31.29,70.49,-679.296,484.096,-46.848
-688.568,437.736,-15.128,-333.76,-28.49,73.78,-632.448,499.712,-31.232
-674.904,443.104,-15.616,-320.11,-25.55,77.0,-632.448,491.904,-31.232
-663.192,447.984,-15.616,-306.39,-22.4,80.29,-648.064,499.712,-31.232
-667.584,455.304,-2.44,-292.53,-19.11,83.93,-640.256,515.328,-7.808
-671.488,466.04,-0.488,-278.32,-16.73,87.85,-648.064,515.328,-23.424
-667.584,490.928,-5.368,-264.32,-14.63,91.7,-671.488,523.136,-46.848
-670.024,516.792,-15.616,-250.88,-12.39,95.48,-632.448,585.6,-54.656
-669.536,530.944,-19.032,-238.0,-10.5,99.54,-640.256,577.792,-46.848
-662.704,551.928,-22.936,-224.35,-8.75,103.88,-624.64,624.64,-39.04
-657.824,577.792,-21.472,-210.63,-7.0,108.36,-632.448,616.832,-39.04
-662.216,602.68,-16.104,-197.26,-5.18,112.91,-609.024,671.488,-31.232
-675.392,636.84,-5.856,-183.89,-4.06,117.67,-655.872,694.912,-15.616
-684.664,677.832,0.0,-171.01,-3.57,121.94,-640.256,718.336,-23.424
-687.592,721.752,-1.464,-158.9,-3.22,125.79,-655.872,772.992,-31.232
-689.056,766.16,-3.416,-147.35,-2.73,129.71,-671.488,819.84,-31.232
-685.152,810.08,-13.664,-136.64,-2.1,133.14,-671.488,858.88,-39.04
-677.832,853.024,-22.936,-126.7,-1.26,136.15,-632.448,897.92,-39.04
-663.192,895.968,-32.208,-117.95,-0.42,138.95,-632.448,936.96,-62.464
-643.184,937.936,-46.36,-110.04,0.63,141.26,-616.832,983.808,-70.272
-625.616,974.048,-57.584,-103.04,2.45,142.87,-585.6,1015.04,-85.888
-610.488,1002.352,-64.904,-96.81,4.27,144.34,-593.408,1069.696,-101.504
-592.432,1030.168,-71.736,-91.14,6.16,145.81,-554.368,1069.696,-85.888
-576.816,1054.08,-79.544,-86.45,7.98,147.21,-538.752,1077.504,-101.504
-560.712,1073.112,-85.4,-82.6,9.8,148.54,-515.328,1132.16,-101.504
-541.68,1087.264,-87.84,-79.66,11.9,149.59,-515.328,1124.352,-124.928
-527.528,1094.096,-94.672,-77.63,14.35,150.22,-507.52,1139.968,-117.12
-515.816,1094.096,-96.136,-76.37,16.52,150.78,-507.52,1124.352,-117.12
-502.64,1089.216,-99.064,-75.53,18.48,151.2,-491.904,1116.544,-109.312
-493.368,1082.384,-96.624,-74.62,20.51,151.62,-437.248,1124.352,-148.352
-487.512,1071.648,-92.72,-73.92,22.33,152.11,-437.248,1100.928,-117.12
-481.168,1059.448,-92.232,-73.43,23.94,152.6,-460.672,1116.544,-101.504
-476.288,1043.832,-92.72,-73.15,25.34,153.16,-460.672,1085.312,-109.312
-465.064,1030.168,-95.648,-72.73,26.95,153.72,-452.864,1054.08,-117.12
-464.088,1015.04,-92.232,-72.31,28.91,154.0,-437.248,1061.888,-124.928
-464.576,997.96,-92.232,-71.68,30.73,154.14,-445.056,1038.464,-124.928
-460.184,981.856,-91.256,-70.91,32.41,154.49,-421.632,1022.848,-109.312
-458.72,963.312,-96.136,-69.93,33.95,154.91,-437.248,991.616,-140.544
-457.744,944.768,-95.16,-68.53,35.49,155.33,-421.632,1015.04,-117.12
-456.768,932.08,-95.648,-66.71,37.24,155.96,-429.44,991.616,-124.928
-455.792,921.344,-94.184,-64.89,38.78,156.59,-429.44,968.192,-109.312
-453.84,916.952,-92.72,-63.14,40.67,157.29,-429.44,952.576,-93.696
-450.424,917.44,-91.744,-61.46,42.21,157.92,-406.016,944.768,-117.12
-446.032,917.928,-90.768,-60.27,43.96,158.55,-429.44,960.384,-140.544
-443.104,914.512,-92.72,-58.73,45.85,159.18,-398.208,960.384,-132.736
-438.712,910.608,-88.816,-57.26,47.67,159.95,-406.016,968.192,-117.12
-434.808,902.8,-88.816,-55.3,49.49,160.65,-437.248,952.576,-93.696
-431.392,893.528,-93.208,-53.48,51.17,161.21,-413.824,944.768,-117.12
-427.0,875.472,-98.576,-51.45,52.78,161.63,-374.784,913.536,-132.736
-423.096,854.976,-101.504,-49.28,54.6,161.84,-382.592,905.728,-124.928
-422.12,834.968,-102.968,-46.76,56.35,161.91,-406.016,890.112,-140.544
-421.632,818.864,-104.432,-43.82,58.03,161.56,-382.592,851.072,-148.352
-416.264,799.344,-106.872,-41.02,59.78,161.07,-382.592,858.88,-109.312
-416.264,778.848,-106.384,-37.73,61.6,160.58,-382.592,827.648,-109.312
-415.776,752.984,-104.432,-33.88,63.35,160.23,-382.592,788.608,-132.736
-412.36,727.608,-107.36,-29.19,64.75,160.02,-390.4,757.376,-101.504
-407.968,708.576,-112.24,-24.01,66.29,159.81,-366.976,741.76,-140.544
-402.6,694.912,-118.096,-18.69,67.83,159.32,-390.4,749.568,-156.16
-396.744,680.76,-123.952,-13.23,69.65,158.83,-366.976,718.336,-140.544
-393.816,668.072,-127.368,-7.56,71.68,158.27,-374.784,718.336,-163.968
-390.4,660.752,-131.272,-1.4,73.57,158.06,-359.168,726.144,-171.776
-384.544,657.336,-140.056,4.69,75.39,157.85,-366.976,718.336,-148.352
-379.664,651.48,-152.256,10.78,77.14,157.57,-343.552,694.912,-163.968
-373.32,642.696,-166.408,16.66,79.1,157.85,-320.128,694.912,-203.008
-365.512,635.864,-177.632,22.61,81.27,158.34,-343.552,679.296,-210.816
-357.704,636.352,-189.832,28.63,83.37,158.76,-320.128,671.488,-203.008
-347.456,640.256,-199.592,34.3,85.54,158.55,-320.128,679.296,-218.624
-342.576,646.112,-206.424,39.69,88.34,158.06,-335.744,694.912,-226.432
-341.6,655.872,-212.768,44.8,90.86,157.43,-320.128,718.336,-249.856
-338.184,664.656,-216.672,49.84,93.1,156.66,-335.744,718.336,-234.24
-330.376,672.952,-226.432,54.67,95.34,155.82,-304.512,718.336,-265.472
-322.568,682.224,-236.68,59.36,97.65,155.05,-304.512,733.952,-281.088
-317.2,685.152,-244.488,63.77,100.31,154.21,-312.32,749.568,-288.896
-318.176,686.128,-250.832,67.83,102.9,153.23,-296.704,726.144,-281.088
-318.176,683.2,-258.152,71.61,105.28,152.04,-312.32,749.568,-281.088
-316.224,674.904,-268.888,75.32,107.73,150.57,-265.472,726.144,-288.896
-318.176,666.12,-278.16,78.82,110.32,148.89,-296.704,726.144,-304.512
-323.544,653.92,-282.064,82.18,112.84,146.86,-296.704,702.72,-296.704
-330.376,643.672,-283.528,85.54,115.15,144.55,-288.896,687.104,-312.32
-334.768,628.056,-280.6,89.11,117.18,142.03,-304.512,694.912,-296.704
-343.064,615.368,-276.696,92.96,118.79,139.23,-327.936,663.68,-304.512
-350.872,603.656,-272.304,97.09,120.4,136.01,-343.552,640.256,-312.32
-355.264,595.848,-272.792,101.01,121.87,132.65,-335.744,640.256,-296.704
-362.584,588.528,-272.792,104.86,123.41,129.36,-304.512,632.448,-288.896
-366.488,581.208,-282.064,108.43,124.53,125.86,-359.168,593.408,-304.512
-373.808,578.768,-293.288,111.79,125.72,122.5,-351.36,640.256,-288.896
-374.296,576.816,-304.024,114.52,126.77,119.42,-351.36,609.024,-327.936
-373.808,569.984,-312.32,116.69,127.75,116.41,-343.552,593.408,-327.936
-376.736,570.96,-324.52,118.86,128.73,113.47,-320.128,632.448,-351.36
-375.76,569.496,-328.912,120.61,129.78,110.6,-359.168,593.408,-351.36
-377.712,568.032,-331.84,122.08,130.76,108.08,-366.976,577.792,-366.976
-381.616,571.448,-328.424,123.48,131.67,105.42,-359.168,616.832,-327.936
-382.592,575.84,-333.304,124.46,132.58,102.9,-343.552,609.024,-351.36
-384.056,576.328,-337.208,125.3,133.63,100.31,-382.592,624.64,-359.168
-386.008,572.424,-340.624,125.86,134.96,98.07,-374.784,609.024,-374.784
-387.96,571.448,-345.504,126.77,136.5,95.69,-374.784,624.64,-366.976
-392.84,571.936,-344.04,127.68,137.97,93.24,-359.168,601.216,-366.976
-396.744,574.376,-344.528,127.96,139.44,90.86,-413.824,609.024,-359.168
-402.6,579.744,-340.624,127.75,140.77,88.62,-374.784,632.448,-366.976
-408.456,579.744,-337.208,126.7,142.03,86.31,-366.976,640.256,-359.168
-416.752,582.672,-334.28,125.02,143.5,83.86,-366.976,640.256,-374.784
-428.952,583.16,-328.912,122.92,144.76,80.92,-413.824,632.448,-351.36
-441.64,581.208,-320.128,120.47,145.6,77.84,-413.824,601.216,-366.976
-458.72,585.6,-315.248,118.16,146.23,74.76,-445.056,624.64,-343.552
-475.8,578.28,-304.512,115.71,146.65,71.68,-429.44,640.256,-335.744
-496.784,576.328,-292.312,113.75,146.79,68.81,-460.672,640.256,-312.32
-516.792,574.864,-278.16,112.14,146.37,66.15,-491.904,640.256,-273.28
-533.384,570.96,-266.448,110.6,145.6,63.84,-507.52,632.448,-288.896
-544.12,567.056,-258.64,109.06,144.9,61.67,-515.328,616.832,-273.28
-555.832,560.712,-248.392,107.8,144.41,59.64,-515.328,616.832,-265.472
-569.496,553.88,-240.096,106.75,143.5,57.47,-546.56,601.216,-226.432
-579.256,547.536,-226.92,105.56,142.24,55.16,-554.368,585.6,-249.856
-584.624,543.144,-220.576,104.23,140.84,52.99,-577.792,593.408,-234.24
-589.504,543.144,-218.624,102.9,139.09,50.89,-546.56,585.6,-242.048
-591.456,535.824,-217.648,101.64,137.69,49.14,-554.368,585.6,-234.24
-597.8,527.04,-211.304,100.73,136.15,47.53,-585.6,601.216,-249.856
-599.752,515.328,-203.984,100.24,134.4,45.99,-569.984,530.944,-187.392
-603.168,504.592,-201.056,100.52,132.93,44.45,-569.984,562.176,-218.624
-607.56,489.464,-195.688,101.15,131.25,43.19,-577.792,523.136,-234.24
-609.512,474.824,-187.88,102.41,129.36,41.72,-593.408,523.136,-210.816
-611.464,459.696,-184.464,104.09,127.4,40.18,-554.368,499.712,-179.584
-614.88,451.4,-177.632,105.63,125.51,38.36,-562.176,507.52,-210.816
-617.32,439.688,-167.384,107.1,123.48,36.26,-601.216,484.096,-187.392
-619.272,430.416,-159.088,108.43,121.38,34.3,-593.408,476.288,-171.776
-620.736,417.728,-153.72,109.41,119.14,32.41,-585.6,460.672,-163.968
-621.224,406.016,-147.376,110.53,117.04,30.66,-609.024,468.48,-203.008
-623.176,393.816,-150.792,111.79,115.29,29.05,-593.408,445.056,-171.776
-626.592,378.2,-150.304,113.19,113.47,27.51,-601.216,421.632,-179.584
-635.376,369.416,-142.496,115.01,111.72,26.04,-609.024,421.632,-140.544
-637.816,367.464,-144.936,116.76,109.62,24.29,-616.832,413.824,-171.776
-645.136,369.416,-135.664,118.23,107.66,22.4,-624.64,406.016,-156.16
-653.92,379.176,-123.952,119.84,105.77,20.51,-616.832,421.632,-132.736
-663.68,389.912,-120.048,121.17,103.6,18.34,-624.64,437.248,-132.736
-665.144,407.968,-129.808,122.08,101.01,16.17,-648.064,452.864,-163.968
-670.512,427.488,-138.104,122.5,98.77,14.42,-640.256,468.48,-171.776
-682.224,442.128,-138.104,122.64,96.67,13.3,-663.68,491.904,-163.968
-695.4,456.28,-139.568,122.64,94.01,12.6,-655.872,499.712,-171.776
-703.696,463.112,-140.544,122.71,91.21,11.9,-648.064,507.52,-171.776
-717.36,469.456,-145.424,123.06,88.55,11.48,-679.296,538.752,-156.16
-729.56,478.24,-149.816,123.55,85.68,10.85,-694.912,562.176,-171.776
-739.32,486.536,-157.136,123.34,82.6,9.87,-687.104,538.752,-195.2
-751.032,492.392,-156.648,122.85,79.45,8.68,-726.144,554.368,-163.968
-754.448,492.392,-164.456,121.94,75.81,7.35,-726.144,554.368,-171.776
-751.52,497.272,-168.848,121.1,72.52,6.16,-733.952,554.368,-195.2
-749.08,498.248,-174.216,120.19,69.23,5.32,-710.528,538.752,-187.392
-746.152,498.248,-183.0,119.63,66.08,4.76,-710.528,546.56,-203.008
-737.368,503.128,-193.248,119.28,63.07,4.2,-702.72,546.56,-218.624
-734.928,509.472,-207.4,118.86,60.55,3.92,-702.72,569.984,-234.24
-734.44,515.328,-217.16,118.16,58.17,3.5,-733.952,577.792,-226.432
-735.904,527.04,-225.944,117.32,55.72,2.94,-679.296,585.6,-234.24
-738.832,537.776,-234.24,116.34,53.06,2.03,-694.912,593.408,-265.472
-739.32,555.832,-239.608,115.22,50.12,0.91,-702.72,609.024,-257.664
-737.368,573.888,-243.024,113.61,47.6,-0.07,-718.336,624.64,-257.664
-737.856,591.456,-247.904,111.51,44.94,-1.19,-710.528,648.064,-288.896
-735.416,607.072,-252.296,109.34,42.49,-2.1,-687.104,663.68,-273.28
-729.56,625.616,-261.568,106.89,40.18,-2.73,-702.72,687.104,-288.896
-733.464,657.824,-262.544,103.81,38.15,-3.22,-694.912,710.528,-281.088
-718.336,732.488,-294.264,99.75,36.33,-3.71,-679.296,780.8,-343.552
-726.632,819.84,-304.512,93.87,35.63,-3.99,-702.72,890.112,-320.128
-776.896,900.36,-275.72,87.57,35.14,-4.41,-772.992,976.0,-304.512
-851.56,944.768,-223.016,81.83,32.41,-5.18,-827.648,999.424,-234.24
-904.752,942.328,-179.096,77.28,27.23,-6.3,-882.304,968.192,-210.816
-943.304,906.216,-142.496,73.43,21.07,-7.84,-936.96,960.384,-179.584
-981.856,848.144,-104.432,68.53,14.91,-9.94,-944.768,874.496,-117.12
-1015.04,772.992,-71.736,61.88,8.26,-12.53,-991.616,804.224,-85.888
-1034.56,707.6,-49.776,53.97,1.61,-16.03,-1007.232,718.336,-62.464
-1038.952,658.8,-45.384,45.29,-4.9,-19.81,-1007.232,694.912,-70.272
-1030.168,627.568,-40.992,36.75,-10.99,-24.08,-991.616,671.488,-46.848
-1017.968,625.616,-32.696,29.12,-17.01,-28.0,-1007.232,679.296,-31.232
-1013.088,644.648,-14.64,22.19,-23.24,-31.36,-999.424,702.72,-31.232
-998.448,672.464,4.88,15.54,-29.75,-33.46,-976.0,726.144,-7.808
-985.272,696.864,21.96,8.68,-35.21,-34.58,-960.384,757.376,7.808
-969.656,708.088,18.544,1.4,-39.76,-35.35,-929.152,772.992,-7.808
-950.136,696.864,3.416,-5.81,-43.47,-36.26,-905.728,749.568,-15.616
-942.328,669.048,-5.368,-12.25,-46.76,-37.66,-897.92,726.144,-23.424
-936.472,626.592,5.856,-18.06,-50.75,-39.48,-921.344,663.68,7.808
-921.344,572.912,17.08,-23.31,-55.16,-41.37,-882.304,601.216,15.616
-894.016,512.4,17.568,-28.56,-59.64,-43.33,-851.072,546.56,0.0
-849.608,447.984,0.0,-33.95,-62.65,-45.29,-827.648,499.712,-15.616
-825.208,381.616,-11.224,-38.92,-64.05,-47.04,-804.224,406.016,-39.04
-826.184,324.032,-9.76,-43.19,-65.73,-48.51,-796.416,374.784,-39.04
-830.088,276.696,-1.952,-46.34,-68.53,-49.56,-804.224,312.32,-15.616
-821.792,236.68,10.248,-47.95,-71.54,-50.33,-812.032,281.088,-39.04
-812.52,206.912,19.032,-47.53,-73.57,-50.54,-788.608,249.856,0.0
-787.632,181.048,17.08,-44.94,-74.83,-50.33,-749.568,226.432,0.0
-736.392,168.848,-1.464,-40.25,-74.27,-49.56,-710.528,218.624,-31.232
-691.984,168.848,-37.576,-34.44,-71.61,-47.74,-687.104,195.2,-70.272
-658.8,171.776,-79.056,-28.49,-67.62,-45.36,-632.448,218.624,-117.12
-647.576,173.24,-117.608,-22.33,-63.63,-42.63,-632.448,226.432,-148.352
-647.576,179.096,-157.624,-15.61,-60.9,-39.83,-616.832,210.816,-187.392
-644.16,186.416,-202.032,-8.33,-59.29,-37.17,-624.64,218.624,-249.856
-651.48,197.64,-231.312,-0.49,-58.45,-34.72,-632.448,249.856,-242.048
-667.096,207.888,-245.952,7.56,-58.8,-32.76,-648.064,249.856,-249.856
-682.712,215.208,-245.952,15.54,-60.55,-31.22,-648.064,288.896,-257.664
-691.496,217.16,-237.168,23.59,-63.42,-30.38,-671.488,242.048,-242.048
-694.424,220.576,-215.208,31.5,-67.06,-30.52,-694.912,273.28,-242.048
-675.88,218.624,-189.832,39.13,-70.42,-31.36,-687.104,288.896,-210.816
-635.864,213.744,-177.144,46.48,-72.45,-32.41,-616.832,242.048,-203.008
-584.624,206.912,-181.048,53.76,-71.75,-33.11,-554.368,249.856,-210.816
-523.136,209.352,-220.576,61.53,-68.88,-33.53,-491.904,265.472,-257.664
-490.44,223.992,-260.592,69.86,-64.47,-33.53,-476.288,288.896,-304.512
-495.808,250.832,-274.256,78.68,-60.55,-33.67,-437.248,304.512,-296.704
-527.528,283.528,-253.76,88.69,-58.87,-33.6,-515.328,335.744,-288.896
-554.856,314.272,-225.944,99.26,-59.08,-33.74,-538.752,366.976,-257.664
-577.304,352.824,-202.52,109.76,-59.78,-34.37,-569.984,390.4,-226.432
-593.896,399.672,-187.88,118.79,-59.99,-35.28,-577.792,445.056,-226.432
-614.88,452.864,-178.608,125.23,-59.92,-36.26,-593.408,484.096,-203.008
-645.136,503.616,-176.168,128.52,-60.34,-37.17,-616.832,546.56,-218.624
-662.216,557.784,-175.192,128.87,-61.74,-38.36,-648.064,609.024,-195.2
-674.416,600.728,-177.144,126.7,-63.77,-39.97,-624.64,640.256,-187.392
-670.024,641.232,-182.512,123.27,-66.36,-41.86,-671.488,710.528,-218.624
-661.728,680.76,-192.272,119.35,-68.81,-43.61,-648.064,749.568,-203.008
-642.208,718.336,-211.792,115.64,-70.84,-44.94,-616.832,757.376,-226.432
-623.176,744.688,-226.432,112.28,-72.03,-45.64,-609.024,788.608,-234.24
-621.224,742.248,-232.288,109.55,-72.8,-45.85,-593.408,788.608,-257.664
-588.04,799.344,-256.688,106.68,-74.34,-46.2,-577.792,874.496,-296.704
-588.528,823.256,-286.456,100.38,-73.85,-46.27,-538.752,866.688,-296.704
-600.728,842.288,-272.304,92.82,-73.78,-46.48,-601.216,890.112,-304.512
-627.08,884.256,-245.952,84.21,-74.13,-46.69,-609.024,929.152,-265.472
-646.112,927.2,-231.312,73.64,-75.46,-47.32,-616.832,968.192,-242.048
-654.896,966.24,-241.56,61.88,-77.35,-48.51,-640.256,1022.848,-265.472
-649.04,1007.72,-265.96,50.75,-79.45,-49.84,-601.216,1038.464,-296.704
-630.984,1053.104,-310.856,40.88,-81.55,-51.03,-632.448,1093.12,-374.784
-610.488,1104.832,-351.36,31.85,-83.16,-51.73,-569.984,1139.968,-390.4
-598.288,1155.096,-376.736,23.31,-84.63,-51.94,-577.792,1225.856,-382.592
-591.944,1196.576,-392.84,14.77,-86.38,-51.52,-569.984,1249.28,-413.824
-583.648,1224.88,-402.112,6.02,-88.62,-50.89,-569.984,1296.128,-413.824
-571.936,1244.888,-407.968,-2.17,-90.58,-50.26,-554.368,1296.128,-421.632
-564.128,1264.408,-414.8,-10.08,-91.98,-49.91,-546.56,1303.936,-437.248
-559.248,1281.976,-415.288,-17.92,-93.17,-49.49,-507.52,1303.936,-452.864
-560.224,1289.296,-414.8,-25.97,-94.15,-49.14,-538.752,1327.36,-421.632
-562.176,1294.664,-411.384,-34.23,-95.2,-48.72,-538.752,1342.976,-445.056
-569.496,1296.616,-409.92,-42.84,-96.46,-48.3,-546.56,1342.976,-429.44
-576.328,1288.808,-407.48,-51.8,-97.93,-47.46,-546.56,1342.976,-452.864
-582.672,1277.096,-405.528,-60.83,-99.4,-46.62,-562.176,1311.744,-406.016
-594.384,1256.6,-398.696,-70.07,-101.01,-45.85,-562.176,1311.744,-429.44
-603.168,1230.248,-398.696,-79.03,-102.83,-45.08,-569.984,1264.896,-413.824
-607.072,1195.6,-399.184,-87.64,-104.16,-44.66,-585.6,1241.472,-413.824
-609.024,1159.976,-402.6,-95.69,-105.21,-44.66,-585.6,1186.816,-445.056
-613.416,1117.52,-397.232,-103.46,-105.98,-44.87,-577.792,1171.2,-429.44
-616.344,1073.112,-389.912,-110.46,-106.47,-45.43,-593.408,1093.12,-390.4
-622.2,1021.384,-377.224,-116.97,-106.82,-46.13,-585.6,1038.464,-382.592
-626.592,972.096,-358.68,-122.78,-107.1,-46.9,-609.024,1007.232,-374.784
-630.984,922.808,-346.48,-127.89,-107.17,-47.6,-609.024,968.192,-366.976
-633.912,875.472,-338.672,-132.51,-107.24,-48.3,-616.832,905.728,-374.784
-632.448,829.112,-331.352,-136.64,-107.17,-48.79,-601.216,843.264,-359.168
-627.08,783.728,-323.056,-139.72,-107.03,-49.35,-593.408,827.648,-343.552
-620.248,744.2,-315.248,-141.96,-106.75,-49.91,-585.6,796.416,-327.936
-612.44,710.04,-308.416,-143.01,-106.33,-50.61,-609.024,749.568,-335.744
-604.632,687.104,-300.608,-143.29,-105.7,-51.1,-593.408,749.568,-327.936
-597.8,664.656,-293.288,-142.52,-104.79,-51.45,-569.984,694.912,-320.128
-592.92,650.992,-285.48,-140.77,-103.88,-51.66,-569.984,702.72,-296.704
-588.528,641.232,-278.16,-138.18,-102.9,-51.66,-585.6,679.296,-312.32
-580.72,638.792,-273.28,-134.82,-102.13,-51.45,-538.752,687.104,-273.28
-575.352,643.672,-270.352,-131.11,-100.94,-51.1,-562.176,702.72,-288.896
-574.864,649.04,-260.592,-127.26,-99.89,-50.61,-538.752,687.104,-296.704
-578.768,659.776,-243.024,-123.13,-98.84,-50.05,-538.752,710.528,-288.896
-582.184,678.32,-227.896,-118.93,-98.0,-49.49,-569.984,726.144,-234.24
-584.136,696.376,-223.016,-115.01,-97.3,-49.0,-546.56,741.76,-234.24
-583.648,719.312,-222.04,-111.44,-96.74,-48.51,-546.56,765.184,-242.048
-583.16,745.664,-228.872,-108.29,-95.83,-48.3,-562.176,772.992,-265.472
-585.112,770.064,-230.824,-105.63,-94.85,-48.3,-569.984,796.416,-273.28
-590.48,789.584,-231.312,-103.32,-94.01,-48.37,-562.176,819.84,-265.472
-586.576,806.664,-238.144,-101.22,-93.38,-48.44,-562.176,858.88,-257.664
-585.6,821.304,-246.928,-98.84,-92.68,-48.44,-554.368,897.92,-257.664
-578.768,833.016,-251.808,-96.18,-92.26,-48.58,-538.752,874.496,-265.472
-569.984,840.824,-262.056,-93.73,-91.42,-48.58,-546.56,890.112,-288.896
-566.08,838.872,-264.008,-91.56,-90.44,-48.65,-554.368,874.496,-288.896
-558.272,832.04,-259.616,-89.74,-89.6,-49.21,-562.176,866.688,-273.28
-557.296,815.936,-250.344,-87.99,-88.41,-49.77,-507.52,851.072,-265.472
-555.344,798.856,-243.024,-86.31,-87.36,-50.54,-546.56,851.072,-281.088
-553.88,779.336,-233.752,-84.63,-86.1,-51.73,-538.752,835.456,-273.28
-553.88,757.376,-228.872,-83.02,-84.98,-53.13,-538.752,796.416,-249.856
-555.344,738.344,-223.016,-81.27,-83.79,-54.81,-554.368,749.568,-242.048
-563.152,722.24,-217.648,-79.24,-82.74,-56.56,-554.368,772.992,-234.24
-566.568,705.16,-210.328,-76.51,-81.76,-58.31,-523.136,741.76,-226.432
-571.448,689.544,-207.888,-72.87,-80.92,-60.06,-538.752,733.952,-242.048
-571.936,674.416,-209.352,-68.25,-79.87,-61.74,-538.752,741.76,-226.432
-574.376,664.168,-214.232,-62.72,-78.19,-63.28,-546.56,733.952,-249.856
-586.576,657.336,-214.72,-56.56,-76.37,-64.47,-562.176,710.528,-257.664
-604.632,658.312,-213.256,-49.98,-74.9,-65.24,-585.6,726.144,-218.624
-626.104,666.12,-211.304,-43.68,-73.64,-65.73,-601.216,702.72,-218.624
-636.352,679.784,-219.6,-38.08,-72.66,-65.87,-609.024,741.76,-249.856
-642.696,701.256,-236.192,-33.81,-71.54,-65.59,-616.832,757.376,-242.048
-643.184,726.144,-263.032,-30.94,-70.14,-65.38,-616.832,765.184,-304.512
-641.72,756.888,-284.992,-29.33,-68.6,-65.24,-609.024,796.416,-312.32
-639.28,788.12,-299.632,-28.7,-67.2,-65.1,-624.64,827.648,-320.128
-639.28,824.232,-306.952,-28.56,-65.66,-65.1,-616.832,866.688,-327.936
-640.256,863.76,-309.392,-28.7,-63.98,-64.96,-609.024,913.536,-335.744
-642.696,899.384,-310.856,-29.05,-62.65,-64.61,-632.448,944.768,-335.744
-647.088,932.08,-306.464,-29.33,-61.32,-64.26,-632.448,968.192,-312.32
-647.576,958.432,-298.168,-29.61,-59.71,-63.56,-632.448,1015.04,-320.128
-649.528,979.904,-280.112,-29.68,-58.31,-63.0,-616.832,1022.848,-304.512
-653.432,992.104,-262.056,-30.1,-57.05,-62.44,-616.832,1038.464,-288.896
-649.528,995.52,-246.928,-30.73,-56.07,-62.02,-632.448,1030.656,-257.664
-642.696,996.496,-239.12,-31.43,-54.6,-61.88,-601.216,1038.464,-257.664
-635.376,994.056,-238.144,-32.41,-52.92,-61.95,-585.6,1038.464,-273.28
-624.64,983.808,-240.584,-33.67,-50.96,-62.16,-601.216,1038.464,-249.856
-616.832,973.56,-244.488,-35.0,-48.65,-62.65,-562.176,1007.232,-265.472
-610.976,960.872,-248.88,-36.12,-46.48,-63.35,-593.408,991.616,-281.088
-607.072,946.72,-255.712,-37.24,-44.17,-64.26,-554.368,1038.464,-273.28
-606.096,926.224,-264.008,-38.08,-42.0,-64.96,-593.408,968.192,-296.704
-610.488,901.336,-264.008,-38.5,-39.9,-65.73,-585.6,944.768,-312.32
-618.296,873.52,-261.568,-38.29,-38.29,-66.36,-577.792,929.152,-281.088
-623.664,846.192,-258.152,-37.73,-37.17,-66.78,-609.024,905.728,-265.472
-628.544,817.4,-251.32,-36.89,-36.12,-67.27,-616.832,874.496,-273.28
-630.008,789.584,-245.952,-35.98,-35.49,-68.11,-601.216,819.84,-273.28
-630.984,766.16,-239.12,-35.49,-34.86,-68.95,-616.832,788.608,-281.088
-632.448,737.856,-233.264,-35.0,-34.65,-69.79,-616.832,788.608,-273.28
-627.568,712.48,-226.432,-34.16,-34.65,-70.49,-601.216,749.568,-242.048
-624.152,690.52,-219.6,-32.83,-34.65,-71.4,-601.216,710.528,-234.24
-622.688,673.928,-204.96,-30.94,-34.51,-72.24,-616.832,710.528,-210.816
-619.76,657.336,-187.88,-28.63,-34.3,-73.15,-593.408,710.528,-195.2
-618.296,643.184,-173.728,-25.69,-34.3,-73.78,-609.024,687.104,-187.392
-617.32,632.448,-164.944,-21.98,-34.23,-74.41,-601.216,679.296,-195.2
-612.928,623.176,-155.184,-17.99,-33.88,-74.97,-585.6,663.68,-195.2
-615.368,615.368,-145.424,-13.79,-33.32,-75.46,-593.408,663.68,-156.16
-620.248,611.952,-131.272,-9.59,-32.97,-75.74,-593.408,648.064,-156.16
-625.616,612.44,-115.656,-5.32,-32.76,-75.95,-609.024,663.68,-132.736
-628.544,610.976,-103.944,-1.4,-32.55,-76.16,-616.832,687.104,-140.544
-636.352,613.416,-92.72,2.45,-32.41,-76.16,-616.832,640.256,-101.504
-640.744,614.88,-80.52,6.44,-32.27,-76.02,-593.408,663.68,-109.312
-646.6,616.832,-71.248,10.36,-31.99,-75.81,-616.832,663.68,-93.696
-650.992,622.2,-62.464,14.42,-31.78,-75.67,-640.256,655.872,-78.08
-656.36,630.008,-57.096,18.48,-31.36,-75.53,-632.448,702.72,-54.656
-659.776,641.72,-54.168,21.91,-31.15,-75.25,-648.064,694.912,-78.08
-663.68,651.48,-50.752,25.27,-30.73,-74.69,-640.256,718.336,-31.232
-665.632,662.216,-50.264,28.07,-30.31,-74.2,-609.024,687.104,-70.272
-664.168,677.344,-56.12,30.45,-29.96,-73.64,-632.448,772.992,-85.888
-662.216,692.96,-68.808,32.06,-29.61,-73.08,-648.064,733.952,-93.696
-659.288,709.064,-81.984,33.18,-29.19,-72.8,-632.448,772.992,-109.312
-661.728,722.728,-89.304,34.02,-28.7,-72.52,-616.832,788.608,-124.928
-667.096,733.952,-93.208,34.79,-28.21,-72.17,-632.448,796.416,-124.928
-672.952,745.664,-96.624,35.49,-27.79,-71.96,-671.488,796.416,-132.736
-682.224,752.496,-94.184,36.33,-27.44,-71.68,-671.488,796.416,-109.312
-689.056,757.376,-91.256,37.31,-27.44,-71.4,-663.68,812.032,-117.12
-697.352,760.304,-85.4,38.22,-27.51,-70.98,-687.104,812.032,-93.696
-701.256,757.864,-82.96,39.06,-27.79,-70.63,-679.296,827.648,-85.888
-702.72,757.864,-85.4,39.76,-28.14,-70.28,-671.488,796.416,-109.312
-700.768,754.448,-85.4,40.25,-28.14,-69.93,-655.872,804.224,-93.696
-700.28,751.52,-87.84,40.6,-27.93,-69.65,-687.104,788.608,-85.888
-698.816,746.152,-86.864,40.46,-27.86,-69.37,-702.72,772.992,-101.504
-694.424,742.736,-89.304,40.25,-27.65,-69.02,-679.296,788.608,-101.504
-689.544,738.344,-90.768,39.69,-27.58,-68.67,-671.488,788.608,-109.312
-686.616,732.0,-92.72,39.2,-27.37,-68.32,-679.296,772.992,-124.928
-679.296,725.656,-100.04,38.78,-27.16,-68.04,-663.68,780.8,-109.312
-672.952,717.36,-105.408,38.78,-26.95,-67.69,-663.68,772.992,-132.736
-669.536,708.088,-110.288,38.92,-26.81,-67.41,-632.448,757.376,-132.736
-667.096,699.304,-111.264,39.62,-26.6,-67.13,-663.68,765.184,-140.544
-663.192,690.032,-114.192,40.67,-26.39,-66.78,-640.256,718.336,-124.928
-660.264,682.224,-118.096,42.28,-26.25,-66.5,-648.064,718.336,-156.16
-658.312,671.976,-125.416,44.03,-25.9,-66.01,-648.064,733.952,-148.352
-655.384,661.728,-132.736,46.13,-25.76,-65.66,-624.64,687.104,-163.968
-653.432,650.504,-137.616,48.3,-25.55,-65.31,-632.448,694.912,-156.16
-651.48,640.256,-140.544,50.68,-25.41,-64.89,-616.832,679.296,-171.776
-650.504,630.496,-143.472,53.2,-25.06,-64.61,-624.64,679.296,-171.776
-648.064,620.736,-144.936,55.58,-24.92,-64.26,-609.024,679.296,-163.968
-646.112,612.44,-149.816,58.03,-24.92,-63.84,-624.64,671.488,-171.776
