acc_x[mg],acc_y[mg],acc_z[mg]
-937,-41,340
-931,-36,336
-934,-41,339
-933,-35,344
-931,-29,339
-931,-34,344
-927,-29,346
-926,-29,343
-928,-30,345
-932,-34,345
-930,-35,347
-929,-36,346
-951,-55,332
-930,-35,347
-936,-35,351
-931,-31,345
-930,-30,349
-930,-37,347
-911,-25,351
-933,-29,349
-929,-31,353
-932,-32,348
-931,-31,347
-928,-31,346
-931,-35,346
-929,-32,343
-931,-25,347
-932,-30,348
-939,-29,344
-928,-22,339
-929,-30,344
-929,-30,341
-929,-26,340
-932,-34,338
-935,-32,341
-936,-30,338
-938,-35,339
-925,-29,334
-931,-31,339
-934,-30,337
-936,-32,333
-936,-31,338
-935,-23,339
-930,-28,338
-931,-29,339
-937,-26,335
-931,-32,340
-933,-33,343
-936,-35,342
-931,-34,339
-927,-24,346
-930,-24,345
-930,-29,347
-929,-30,347
-936,-32,346
-935,-35,350
-927,-35,345
-926,-34,347
-917,-27,351
-930,-30,348
-929,-31,347
-934,-33,348
-932,-24,350
-933,-31,350
-933,-32,349
-930,-33,345
-932,-34,354
-929,-29,349
-928,-28,350
-921,-23,351
-929,-30,351
-925,-31,351
-931,-27,352
-926,-31,349
-934,-29,352
-929,-29,349
-932,-25,348
-936,-23,346
-930,-30,345
-925,-25,348
-937,-33,343
-935,-30,349
-936,-26,342
-926,-29,342
-933,-28,340
-931,-26,339
-932,-28,341
-937,-31,340
-934,-27,339
-931,-30,337
-930,-29,340
-932,-34,345
-930,-31,349
-929,-31,342
-945,-32,343
-929,-30,349
-924,-31,347
-929,-28,346
-930,-33,344
-923,-32,348
-927,-35,347
-925,-33,347
-930,-36,349
-931,-33,351
-929,-32,348
-928,-31,352
-921,-27,355
-933,-30,351
-927,-36,346
-929,-34,355
-928,-31,351
-928,-32,353
-928,-32,351
-929,-28,353
-930,-31,351
-926,-30,352
-927,-31,351
-932,-33,350
-927,-27,348
-931,-31,350
-932,-28,347
-931,-27,348
-929,-24,345
-929,-27,342
-928,-25,350
-931,-30,343
-932,-26,343
-933,-28,342
-929,-28,340
-931,-30,342
-933,-26,343
-933,-29,343
-931,-32,343
-933,-32,343
-930,-31,343
-928,-29,344
-928,-30,342
-925,-26,354
-930,-34,346
-929,-29,349
-930,-31,347
-929,-32,351
-920,-27,348
-928,-25,352
-927,-30,350
-929,-32,353
-917,-21,355
-927,-31,358
-936,-33,351
-918,-20,354
-927,-32,356
-931,-31,353
-922,-29,356
-930,-33,353
-930,-29,353
-929,-30,357
-924,-26,355
-927,-24,352
-930,-31,352
-930,-32,352
-935,-27,348
-928,-29,351
-924,-26,348
-936,-29,350
-935,-27,346
-924,-25,347
-933,-27,344
-923,-22,343
-932,-25,343
-938,-32,343
-930,-29,344
-930,-28,341
-935,-35,340
-934,-32,340
-932,-27,338
-928,-30,341
-932,-31,343
-930,-31,347
-933,-31,345
-930,-31,346
-941,-43,340
-931,-33,347
-927,-27,350
-928,-34,350
-929,-36,345
-932,-34,347
-937,-35,350
-926,-27,347
-935,-35,348
-927,-28,354
-925,-32,352
-931,-34,349
-927,-34,352
-919,-22,351
-931,-27,352
-927,-29,352
-932,-41,352
-930,-23,361
-928,-26,354
-929,-27,358
-927,-27,353
-926,-25,353
-925,-26,358
-925,-30,351
-928,-28,354
-926,-29,350
-928,-27,355
-927,-26,350
-920,-28,351
-932,-26,353
-935,-27,349
-938,-26,350
-928,-27,350
-936,-27,343
-935,-31,348
-933,-29,345
-934,-27,344
-928,-30,346
-931,-27,343
-927,-24,344
-928,-28,343
-932,-28,344
-929,-32,349
-932,-30,346
-929,-33,346
-933,-31,349
-926,-29,353
-926,-32,353
-937,-46,344
-927,-30,351
-940,-34,349
-927,-28,349
-920,-20,351
-926,-26,353
-922,-25,350
-932,-24,355
-918,-23,356
-925,-31,352
-932,-30,356
-927,-22,351
-929,-27,353
-926,-31,354
-924,-28,354
-922,-28,354
-929,-31,356
-928,-24,356
-927,-26,355
-926,-26,353
-925,-28,352
-931,-28,350
-934,-29,348
-937,-30,351
-928,-28,348
-935,-30,350
-931,-21,349
-925,-20,346
-927,-23,349
-926,-29,343
-928,-27,348
-933,-27,350
-929,-30,345
-930,-27,345
-928,-27,348
-927,-28,349
-929,-25,348
-930,-26,348
-929,-29,350
-936,-29,349
-921,-24,357
-914,-19,353
-929,-28,356
-920,-23,351
-930,-31,351
-917,-19,350
-927,-28,353
-927,-26,356
-925,-26,358
-931,-29,353
-928,-27,353
-915,-27,358
-931,-27,355
-924,-29,353
-931,-29,356
-929,-32,355
-925,-26,352
-927,-31,353
-929,-27,355
-931,-30,355
-930,-28,354
-929,-26,352
-926,-22,352
-926,-20,353
-924,-26,354
-926,-27,351
-928,-27,349
-921,-25,348
-934,-26,348
-934,-28,345
-938,-30,346
-909,-13,357
-930,-29,344
-928,-27,346
-931,-30,348
-936,-26,347
-932,-27,347
-930,-29,346
-931,-30,349
-927,-30,346
-931,-29,347
-930,-26,348
-922,-26,351
-933,-33,354
-937,-30,350
-926,-23,353
-939,-35,353
-925,-30,350
-938,-35,355
-924,-26,355
-929,-21,355
-924,-24,358
-923,-23,358
-914,-19,357
-925,-28,359
-931,-27,355
-928,-26,357
-929,-30,359
-925,-23,361
-925,-27,358
-926,-25,355
-926,-27,354
-931,-32,356
-931,-28,359
-928,-23,355
-925,-22,358
-926,-31,356
-926,-28,354
-924,-24,357
-927,-25,358
-930,-26,358
-929,-25,354
-928,-26,352
-927,-25,354
-934,-23,354
-925,-23,355
-938,-25,352
-927,-20,351
-933,-26,345
-928,-32,342
-930,-26,344
-932,-25,344
-929,-24,346
-927,-30,343
-931,-22,343
-929,-24,342
-936,-37,342
-929,-29,354
-927,-31,351
-914,-22,357
-932,-29,352
-926,-27,351
-928,-22,353
-929,-30,350
-920,-21,354
-931,-24,358
-927,-27,356
-928,-24,354
-927,-31,357
-923,-26,357
-928,-29,359
-917,-14,352
-917,-22,358
-928,-23,357
-926,-23,354
-928,-26,357
-927,-28,358
-927,-25,357
-925,-27,357
-929,-26,355
-926,-26,358
-925,-23,355
-931,-27,354
-921,-23,357
-933,-23,351
-928,-27,351
-930,-27,354
-929,-25,351
-931,-27,347
-924,-22,353
-933,-26,349
-927,-27,347
-925,-25,345
-938,-33,343
-932,-28,344
-931,-31,347
-931,-28,344
-929,-30,345
-932,-28,343
-927,-25,347
-934,-34,350
-930,-25,349
-928,-27,355
-934,-30,348
-920,-30,353
-931,-33,353
-921,-25,354
-921,-23,357
-928,-30,352
-928,-24,357
-930,-34,355
-923,-20,360
-931,-29,355
-932,-28,357
-933,-28,357
-932,-33,356
-922,-25,355
-928,-29,358
-928,-30,356
-929,-27,357
-927,-29,357
-924,-29,357
-929,-31,358
-926,-26,357
-924,-23,358
-925,-28,353
-926,-26,355
-927,-25,354
-926,-25,352
-926,-26,355
-931,-25,352
-926,-27,353
-929,-25,350
-936,-26,352
-930,-24,351
-927,-23,350
-930,-26,346
-928,-27,350
-932,-30,341
-933,-31,345
-935,-26,343
-933,-29,341
-932,-31,342
-929,-33,344
-929,-26,344
-928,-27,346
-931,-26,347
-926,-30,352
-936,-34,350
-925,-31,351
-930,-27,352
-930,-29,351
-930,-32,352
-933,-27,355
-927,-32,356
-927,-29,362
-917,-22,363
-951,-38,351
-923,-27,355
-930,-34,357
-931,-26,354
-930,-26,357
-927,-25,358
-936,-34,354
-926,-30,358
-923,-34,356
-919,-29,358
-928,-29,359
-926,-29,357
-926,-27,359
-927,-28,356
-924,-27,357
-926,-31,357
-926,-23,352
-930,-27,353
-933,-28,350
-926,-26,356
-928,-21,350
-934,-25,354
-933,-26,348
-928,-30,351
-931,-22,349
-930,-32,346
-931,-24,346
-933,-28,342
-930,-25,347
-928,-27,348
-931,-28,347
-934,-23,351
-926,-27,349
-927,-26,349
-931,-29,349
-929,-29,351
-923,-28,352
-936,-30,351
-933,-29,352
-927,-21,357
-919,-25,355
-923,-24,356
-935,-37,352
-927,-23,352
-916,-23,356
-925,-24,361
-932,-46,351
-934,-25,358
-926,-30,357
-926,-31,360
-924,-26,357
-926,-27,361
-925,-32,356
-929,-29,358
-926,-30,353
-930,-28,358
-927,-27,357
-924,-26,357
-932,-29,355
-923,-27,352
-933,-26,353
-932,-27,351
-937,-27,349
-930,-26,347
-933,-28,351
-927,-25,354
-931,-27,351
-927,-22,347
-927,-24,345
-930,-28,346
-932,-28,345
-927,-25,347
-931,-26,345
-934,-28,349
-933,-30,348
-931,-31,346
-928,-26,351
-926,-33,354
-927,-29,353
-926,-28,352
-926,-28,350
-927,-31,354
-925,-28,352
-926,-28,357
-916,-22,358
-928,-23,356
-917,-25,359
-928,-33,354
-929,-31,357
-916,-20,361
-924,-30,354
-952,-34,352
-934,-36,354
-927,-29,357
-927,-28,362
-925,-27,357
-931,-31,359
-926,-30,354
-925,-30,359
-922,-31,356
-925,-29,356
-927,-27,354
-923,-21,354
-926,-23,354
-927,-24,354
-929,-24,352
-932,-28,350
-927,-23,351
-924,-20,353
-936,-26,352
-932,-23,348
-923,-28,354
-933,-29,344
-926,-26,345
-930,-25,346
-934,-29,350
-932,-30,346
-934,-27,344
-931,-32,348
-922,-26,353
-927,-29,348
-929,-34,354
-933,-30,349
-931,-35,353
-936,-32,354
-929,-32,357
-920,-20,358
-927,-39,354
-930,-25,357
-930,-29,353
-917,-22,364
-929,-31,358
-949,-44,341
-928,-26,360
-922,-24,361
-919,-21,356
-927,-28,359
-926,-30,359
-926,-28,360
-926,-27,360
-930,-30,355
-925,-25,359
-927,-25,359
-925,-29,358
-925,-31,359
-928,-28,356
-923,-31,361
-927,-25,355
-928,-24,361
-924,-23,358
-928,-23,351
-934,-26,354
-925,-25,357
-928,-28,353
-926,-25,349
-926,-24,352
-923,-25,351
-936,-30,345
-938,-26,347
-927,-29,350
-932,-31,347
-933,-31,347
-926,-29,343
-931,-28,349
-931,-29,349
-926,-27,345
-930,-28,348
-931,-29,350
-926,-32,352
-928,-33,351
-935,-31,353
-927,-27,357
-926,-26,352
-924,-23,356
-933,-32,357
-924,-26,355
-929,-31,357
-928,-31,354
-926,-30,357
-924,-28,355
-926,-26,361
-930,-35,354
-928,-32,359
-925,-31,354
-928,-30,360
-927,-30,359
-923,-29,359
-925,-28,356
-920,-27,361
-928,-26,359
-934,-28,354
-921,-29,360
-926,-32,361
-927,-29,358
-930,-28,361
-926,-27,358
-927,-31,358
-926,-29,359
-923,-32,356
-929,-28,359
-928,-27,359
-923,-27,358
-931,-28,355
-924,-24,359
-924,-29,351
-926,-22,353
-930,-29,352
-934,-32,347
-934,-30,346
-925,-22,352
-921,-23,349
-922,-24,352
-930,-25,345
-932,-27,344
-932,-30,347
-931,-30,350
-930,-28,348
-929,-31,353
-928,-29,351
-927,-27,353
-932,-29,353
-931,-31,354
-922,-30,353
-929,-30,354
-929,-30,355
-923,-31,356
-917,-27,357
-928,-29,354
-916,-25,358
-926,-30,358
-949,-48,346
-913,-22,366
-928,-31,356
-926,-27,357
-928,-33,359
-926,-29,361
-921,-30,357
-929,-26,358
-928,-30,363
-930,-28,362
-922,-25,357
-929,-33,360
-928,-28,355
-923,-29,359
-925,-29,355
-925,-27,358
-920,-27,359
-929,-29,357
-925,-26,358
-929,-29,352
-927,-29,353
-928,-23,352
-928,-25,355
-928,-25,349
-929,-30,352
-928,-27,350
-929,-20,354
-936,-28,350
-932,-29,349
-930,-30,351
-932,-25,351
-929,-29,352
-929,-30,351
-924,-29,353
-931,-32,354
-926,-31,358
-919,-16,356
-921,-24,356
-936,-41,350
-933,-32,356
-924,-24,361
-918,-26,364
-930,-32,356
-924,-31,359
-927,-25,357
-932,-33,362
-925,-30,355
-924,-28,358
-924,-30,358
-923,-28,360
-916,-27,360
-926,-28,357
-954,-43,343
-917,-27,364
-927,-27,361
-928,-29,359
-926,-30,360
-924,-27,361
-924,-28,359
-926,-26,361
-923,-26,359
-928,-25,358
-928,-29,361
-921,-26,357
-927,-30,358
-925,-23,354
-924,-25,352
-920,-13,360
-932,-25,354
-928,-20,350
-930,-30,353
-928,-27,352
-937,-31,347
-924,-27,352
-929,-24,351
-933,-26,353
-925,-27,352
-927,-25,348
-928,-26,348
-930,-24,347
-931,-24,350
-928,-28,348
-928,-26,349
-927,-31,352
-928,-28,353
-923,-29,354
-928,-28,354
-930,-37,352
-932,-30,352
-924,-27,356
-926,-24,357
-925,-31,360
-921,-27,357
-925,-31,360
-924,-29,359
-924,-32,359
-927,-30,361
-925,-30,359
-935,-32,353
-934,-28,359
-925,-29,357
-924,-33,356
-928,-33,358
-927,-27,357
-924,-30,362
-926,-27,364
-925,-29,364
-924,-31,359
-927,-32,358
-924,-29,360
-924,-27,361
-935,-22,355
-921,-23,357
-916,-32,356
-934,-29,367
-924,-24,358
-931,-23,351
-934,-27,355
-916,-26,357
-923,-25,362
-920,-15,359
-924,-10,361
-924,-20,353
-937,-40,346
-934,-45,350
-931,-34,356
-914,-15,360
-921,-18,359
-927,-25,359
-935,-29,361
-921,-29,358
-921,-31,361
-928,-26,360
-915,-22,368
-923,-28,364
-925,-28,365
-931,-44,356
-920,-20,364
-926,-26,362
-920,-30,363
-931,-23,362
-925,-32,360
-920,-28,363
-920,-27,366
-928,-25,364
-926,-25,364
-927,-29,362
-925,-27,364
-923,-27,362
-921,-29,360
-927,-25,359
-927,-24,358
-928,-27,361
-924,-25,359
-919,-20,360
-933,-28,357
-924,-22,353
-928,-27,355
-920,-24,358
-928,-28,355
-928,-25,354
-928,-29,354
-930,-27,354
-921,-29,354
-931,-28,356
-928,-30,358
-927,-31,355
-929,-32,359
-922,-26,360
-925,-30,363
-923,-26,360
-924,-33,361
-916,-21,362
-923,-35,358
-922,-34,362
-924,-32,362
-929,-33,362
-927,-27,366
-915,-26,368
-923,-30,365
-923,-28,362
-925,-31,362
-924,-27,366
-924,-30,364
-924,-31,365
-926,-32,363
-924,-33,364
-922,-30,364
-929,-31,360
-928,-29,366
-920,-31,361
-927,-25,363
-926,-25,364
-927,-31,356
-930,-29,358
-925,-23,361
-925,-26,355
-927,-29,357
-933,-27,354
-927,-26,354
-927,-26,358
-913,-27,356
-926,-27,355
-930,-26,355
-926,-25,354
-929,-26,357
-927,-34,355
-928,-32,354
-932,-29,354
-931,-29,359
-926,-31,359
-928,-27,359
-925,-29,360
-923,-33,363
-929,-33,358
-923,-24,362
-932,-38,356
-921,-27,363
-930,-33,365
-921,-31,365
-926,-32,361
-922,-30,362
-924,-28,363
-921,-30,363
-923,-29,366
-924,-30,365
-923,-28,364
-923,-27,362
-938,-40,352
-918,-29,363
-923,-27,365
-925,-30,364
-924,-29,365
-925,-29,364
-925,-27,364
-930,-27,364
-927,-27,360
-928,-29,362
-924,-27,353
-922,-12,350
-933,-18,341
-919,-14,354
-933,-27,361
-931,-38,354
-924,-24,360
-935,-16,355
-927,-16,347
-929,-20,355
-930,-19,347
-933,-29,351
-921,-21,345
-937,-31,354
-924,-33,340
-908,-39,361
-941,-21,380
-937,-45,349
-918,-48,343
-950,-50,354
-913,-15,371
-924,-20,360
-940,-28,371
-930,-45,352
-930,-50,353
-939,-42,339
-894,-34,316
-931,2,345
-957,-39,351
-878,14,354
-937,-19,344
-910,-13,348
-934,-41,343
-913,-20,338
-915,-32,369
-959,-85,352
-946,-122,349
-908,-78,346
-921,-76,373
-932,-93,331
-915,-81,348
-965,-74,350
-927,-30,345
-935,-65,344
-927,-35,362
-927,1,360
-896,-12,376
-936,-36,371
-912,-21,371
-934,-57,385
-938,-63,354
-931,-34,344
-915,-12,350
-926,-20,369
-903,-12,381
-917,-28,380
-920,-58,380
-923,-58,361
-929,-52,370
-918,-46,359
-917,-49,369
-922,-34,381
-909,-17,380
-917,-32,376
-918,-27,374
-918,-35,379
-920,-37,383
-933,-36,364
-906,-20,364
-927,-26,382
-921,-31,380
-914,-27,377
-924,-32,375
-923,-31,375
-916,-29,378
-916,-29,375
-920,-31,372
-919,-27,373
-923,-32,370
-926,-32,367
-918,-31,368
-920,-26,371
-921,-31,366
-926,-27,366
-922,-27,364
-921,-27,366
-924,-28,365
-918,-31,363
-924,-31,366
-924,-29,370
-924,-29,370
-921,-29,369
-921,-30,369
-923,-30,365
-921,-30,373
-919,-30,369
-920,-31,368
-917,-30,374
-908,-41,376
-922,-30,374
-917,-28,374
-920,-26,373
-919,-30,373
-916,-34,373
-917,-30,374
-909,-28,378
-919,-29,376
-922,-30,379
-919,-31,378
-921,-29,377
-920,-33,373
-919,-32,375
-916,-28,375
-916,-27,375
-920,-31,371
-922,-30,375
-920,-26,368
-923,-29,372
-920,-25,372
-921,-29,373
-922,-30,368
-920,-27,369
-917,-28,374
-914,-24,378
-919,-24,367
-925,-28,364
-925,-27,364
-925,-26,366
-922,-28,364
-928,-28,364
-925,-29,366
-918,-28,369
-920,-32,370
-919,-28,369
-921,-31,372
-919,-32,373
-916,-27,371
-921,-31,371
-920,-28,371
-918,-29,373
-922,-32,374
-919,-36,370
-921,-25,370
-919,-28,372
-916,-30,374
-920,-28,378
-918,-31,377
-920,-30,373
-919,-28,374
-916,-27,378
-920,-31,375
-922,-30,376
-917,-31,375
-916,-27,375
-917,-32,376
-919,-30,374
-921,-31,377
-918,-29,377
-922,-30,377
-920,-32,375
-917,-31,372
-919,-26,374
-917,-27,370
-922,-31,369
-918,-30,371
-918,-30,370
-928,-35,365
-929,-30,360
-936,-32,362
-927,-31,363
-922,-32,363
-927,-27,364
-922,-31,365
-929,-30,364
-920,-28,360
-928,-33,367
-922,-32,363
-920,-31,366
-927,-33,365
-924,-31,369
-923,-33,365
-919,-31,371
-921,-28,373
-921,-35,369
-922,-30,372
-917,-30,373
-926,-42,372
-925,-30,373
-921,-28,376
-918,-30,371
-921,-33,373
-925,-30,377
-920,-29,373
-922,-29,375
-921,-33,371
-922,-29,373
-918,-33,372
-922,-33,370
-922,-31,370
-916,-24,368
-928,-32,371
-931,-30,363
-929,-30,362
-916,-30,358
-925,-29,364
-920,-34,363
-924,-30,363
-923,-28,361
-923,-38,366
-919,-31,366
-926,-30,365
-924,-33,366
-917,-28,363
-927,-32,362
-923,-33,372
-937,-27,364
-929,-33,372
-918,-29,371
-922,-28,368
-914,-38,374
-918,-41,366
-916,-40,362
-930,-35,369
-931,-42,370
-922,-46,364
-916,-38,362
-930,-39,382
-917,-45,374
-925,-48,369
-925,-38,367
-932,-41,358
-913,-36,347
-909,-31,359
-925,-39,372
-930,-55,382
-924,-48,356
-916,-37,347
-914,-37,372
-927,-47,388
-913,-49,369
-921,-52,363
-919,-52,368
-926,-44,372
-919,-45,372
-918,-30,369
-924,-33,370
-924,-34,368
-922,-36,367
-922,-38,365
-924,-36,365
-923,-35,360
-925,-34,366
-943,-41,353
-921,-34,362
-925,-30,365
-929,-27,361
-926,-24,355
-921,-32,357
-924,-24,363
-922,-36,360
-920,-31,366
-950,-56,384
-908,-43,370
-917,-39,356
-926,-28,362
-927,-24,375
-910,-32,375
-918,-37,368
-927,-39,373
-924,-39,370
-918,-31,371
-923,-33,368
-946,-36,369
-904,-24,360
-911,-28,370
-925,-19,378
-914,-27,382
-914,-43,367
-925,-30,366
-916,-17,370
-923,-14,383
-909,-25,376
-921,-24,374
-923,-27,375
-920,-30,374
-922,-27,373
-918,-22,375
-922,-21,373
-923,-25,375
-923,-30,375
-919,-28,369
-915,-26,374
-923,-24,366
-924,-22,363
-924,-31,353
-922,-30,354
-931,-30,362
-924,-30,359
-924,-28,361
-924,-26,362
-927,-32,357
-927,-35,358
-928,-28,364
-922,-23,362
-918,-31,359
-928,-31,362
-924,-28,361
-924,-31,363
-919,-28,363
-921,-32,362
-921,-31,362
-924,-30,362
-929,-30,365
-923,-27,364
-922,-25,369
-922,-32,364
-927,-30,369
-923,-30,364
-923,-27,366
-921,-32,369
-921,-27,372
-917,-26,364
-926,-27,369
-922,-28,365
-925,-32,368
-922,-35,369
-919,-36,364
-927,-32,365
-917,-34,366
-924,-33,371
-928,-34,367
-920,-30,368
-922,-32,368
-921,-33,368
-925,-37,371
-917,-31,369
-920,-34,370
-927,-33,367
-921,-32,372
-922,-34,371
-923,-35,366
-922,-31,364
-919,-29,364
-922,-34,362
-927,-28,361
-924,-32,365
-924,-31,364
-925,-33,357
-926,-31,360
-925,-31,357
-928,-35,358
-926,-32,364
-928,-31,358
-929,-26,363
-924,-30,364
-927,-31,363
-925,-30,363
-920,-34,361
-929,-31,369
-925,-30,361
-928,-29,362
-921,-31,366
-922,-30,366
-925,-26,363
-919,-31,368
-915,-28,370
-921,-25,371
-919,-29,367
-922,-34,372
-926,-31,367
-924,-28,371
-919,-33,368
-919,-28,371
-917,-34,371
-920,-27,370
-923,-32,369
-922,-29,371
-924,-36,372
-918,-31,369
-926,-32,371
-917,-29,372
-926,-31,375
-921,-26,370
-919,-30,372
-922,-28,370
-926,-30,368
-918,-28,367
-924,-27,365
-918,-28,369
-922,-29,368
-927,-26,367
-923,-29,362
-924,-32,366
-924,-30,362
-926,-27,366
-923,-27,363
-923,-27,361
-926,-29,366
-920,-27,361
-923,-28,367
-925,-33,363
-924,-27,366
-924,-27,366
-921,-29,370
-922,-29,370
-925,-28,370
-922,-31,370
-918,-33,370
-922,-29,365
-922,-31,369
-921,-29,371
-921,-32,371
-921,-30,375
-918,-28,372
-921,-27,372
-924,-28,373
-923,-29,372
-925,-33,376
-918,-27,371
-922,-30,374
-920,-32,371
-920,-28,372
-923,-31,371
-917,-31,373
-918,-31,370
-926,-29,371
-921,-32,368
-922,-28,367
-924,-32,368
-926,-29,367
-922,-31,363
-921,-29,365
-924,-27,363
-928,-31,361
-921,-31,363
-923,-28,366
-928,-32,370
-921,-29,369
-919,-30,366
-924,-27,368
-919,-27,371
-920,-28,367
-924,-32,368
-922,-26,368
-923,-30,373
-920,-28,370
-919,-28,370
-925,-29,372
-917,-31,368
-922,-28,374
-921,-30,372
-922,-28,370
-922,-28,372
-918,-25,371
-921,-31,374
-919,-27,371
-922,-31,369
-924,-27,374
-919,-27,372
-920,-28,369
-921,-29,369
-920,-29,369
-925,-31,368
-922,-30,366
-920,-29,368
-925,-29,364
-921,-28,368
-926,-26,365
-928,-29,364
-922,-29,366
-922,-29,363
-921,-27,368
-928,-26,365
-923,-25,366
-923,-27,366
-926,-22,367
-922,-31,369
-928,-27,366
-922,-30,365
-926,-28,370
-925,-28,368
-921,-27,369
-918,-29,368
-920,-28,370
-923,-27,369
-917,-28,367
-922,-31,369
-921,-33,372
-916,-30,374
-919,-29,369
-921,-28,372
-919,-28,371
-923,-31,373
-921,-32,375
-921,-28,370
-922,-31,374
-918,-32,374
-920,-25,370
-921,-30,370
-922,-27,370
-919,-32,368
-925,-29,369
-924,-31,366
-923,-28,371
-921,-27,367
-923,-31,364
-923,-29,365
-923,-27,364
-928,-33,364
-925,-31,361
-925,-25,359
-926,-30,366
-920,-29,362
-926,-29,367
-922,-23,368
-924,-31,366
-925,-27,366
-919,-31,370
-920,-26,369
-924,-31,367
-928,-28,368
-922,-28,371
-921,-30,372
-923,-27,372
-923,-31,371
-919,-31,367
-923,-29,369
-925,-30,371
-920,-25,369
-926,-34,368
-924,-30,369
-919,-28,368
-919,-32,369
-921,-28,372
-921,-28,370
-920,-28,373
-916,-27,368
-926,-31,372
-922,-28,368
-921,-30,365
-922,-30,370
-918,-30,369
-924,-30,367
-921,-27,365
-922,-30,368
-924,-28,364
-925,-29,362
-926,-28,363
-927,-32,361
-923,-29,364
-925,-31,362
-921,-26,363
-922,-30,366
-921,-26,369
-925,-28,367
-923,-30,367
-921,-28,368
-923,-30,368
-916,-28,366
-917,-28,369
-925,-29,371
-921,-30,373
-921,-27,370
-924,-26,368
-924,-28,370
-918,-30,369
-920,-28,373
-923,-30,369
-924,-25,371
-922,-30,371
-919,-28,368
-922,-28,371
-923,-30,369
-923,-27,369
-927,-28,374
-920,-28,371
-923,-30,373
-922,-33,370
-922,-29,372
-924,-33,369
-925,-31,369
-926,-34,370
-922,-31,367
-923,-30,362
-925,-28,364
-926,-29,366
-922,-29,364
-920,-27,367
-922,-31,364
-925,-27,365
-928,-31,360
-926,-33,364
-922,-30,361
-922,-29,365
-927,-28,363
-928,-32,362
-921,-29,366
-924,-27,366
-924,-30,366
-924,-31,363
-925,-30,366
-924,-30,368
-922,-28,366
-921,-32,368
-926,-27,367
-919,-30,371
-922,-25,366
-920,-32,367
-922,-30,368
-926,-29,369
-921,-26,369
-924,-31,372
-923,-31,370
-917,-28,364
-923,-25,374
-916,-28,372
-922,-33,372
-925,-31,370
-923,-32,367
-924,-31,373
-920,-29,372
-923,-30,372
-920,-28,368
-926,-32,373
-922,-33,372
-921,-31,369
-919,-28,369
-924,-30,374
-923,-33,369
-916,-33,370
-921,-27,371
-923,-31,374
-921,-29,370
-917,-30,370
-920,-32,374
-921,-31,370
-923,-25,371
-923,-32,371
-917,-26,367
-919,-29,371
-921,-30,372
-917,-29,369
-917,-28,369
-926,-27,364
-923,-31,365
-927,-30,363
-925,-27,364
-920,-29,361
-925,-27,364
-925,-31,360
-920,-30,357
-927,-31,361
-926,-27,359
-925,-32,362
-923,-31,361
-924,-25,363
-924,-29,361
-923,-30,367
-924,-30,364
-921,-29,364
-921,-24,369
-919,-27,369
-924,-28,366
-922,-30,364
-922,-27,371
-928,-29,372
-918,-28,368
-924,-31,370
-921,-26,372
-921,-29,369
-923,-27,370
-925,-30,373
-926,-26,369
-921,-29,367
-925,-30,371
-926,-33,366
-922,-27,373
-923,-30,371
-924,-27,375
-928,-32,371
-928,-28,367
-923,-29,367
-924,-31,368
-917,-29,369
-920,-28,367
-924,-31,366
-926,-32,366
-922,-34,363
-923,-28,365
-925,-31,363
-922,-30,359
-926,-33,366
-926,-28,360
-927,-30,361
-925,-31,360
-923,-29,361
-923,-34,362
-921,-29,359
-926,-32,363
-924,-33,362
-924,-30,366
-921,-30,366
-928,-31,364
-924,-31,366
-923,-27,368
-925,-29,365
-922,-30,362
-921,-25,371
-920,-28,367
-919,-32,365
-922,-27,368
-923,-31,365
-917,-32,372
-925,-32,370
-918,-27,368
-920,-34,370
-922,-32,375
-925,-27,369
-922,-29,372
-923,-34,371
-922,-34,367
-923,-30,371
-917,-29,366
-922,-29,374
-918,-28,370
-922,-30,370
-922,-31,370
-922,-33,370
-918,-32,368
-920,-27,369
-919,-30,371
-918,-28,364
-925,-31,366
-924,-30,363
-918,-26,367
-923,-26,365
-924,-28,364
-921,-30,361
-926,-31,362
-927,-30,363
-920,-34,364
-926,-30,363
-927,-32,364
-923,-29,361
-921,-31,365
-924,-29,365
-922,-27,365
-925,-26,363
-916,-29,364
-921,-28,365
-926,-33,369
-922,-29,367
-924,-31,369
-921,-29,371
-929,-31,364
-924,-31,373
-924,-31,370
-923,-32,365
-924,-29,372
-921,-27,371
-920,-29,372
-926,-26,375
-916,-31,372
-922,-28,371
-922,-29,370
-924,-33,368
-929,-31,366
-920,-30,373
-922,-31,372
-921,-29,370
-917,-31,365
-926,-30,366
-922,-31,366
-933,-31,363
-921,-34,364
-929,-30,361
-915,-30,371
-919,-33,362
-921,-30,359
-923,-29,361
-925,-30,361
-925,-29,365
-924,-27,358
-926,-25,363
-925,-28,364
-924,-27,365
-926,-31,364
-922,-30,370
-926,-30,367
-917,-28,368
-924,-27,364
-923,-31,370
-918,-34,370
-922,-31,368
-921,-26,372
-922,-32,373
-919,-32,370
-924,-25,366
-923,-33,369
-919,-29,370
-924,-31,372
-923,-34,373
-920,-27,369
-919,-29,369
-921,-31,372
-925,-29,368
-921,-27,368
-922,-31,366
-921,-31,369
-921,-30,365
-928,-27,364
-922,-32,367
-928,-27,363
-931,-28,359
-929,-31,360
-926,-31,364
-924,-29,362
-923,-31,360
-923,-31,360
-927,-33,361
-927,-32,365
-923,-29,360
-927,-31,361
-929,-31,364
-928,-30,364
-928,-30,362
-925,-29,364
-923,-33,365
-923,-29,363
-923,-33,367
-919,-29,368
-921,-28,370
-922,-30,366
-925,-34,362
-922,-28,372
-921,-31,365
-921,-29,367
-921,-29,368
-921,-34,366
-921,-30,370
-922,-29,369
-919,-28,373
-923,-29,370
-920,-33,369
-920,-33,368
-924,-31,368
-927,-32,369
-919,-32,371
-924,-29,369
-919,-32,369
-922,-34,367
-920,-32,365
-924,-28,364
-921,-29,361
-926,-30,363
-920,-27,364
-927,-27,361
-928,-30,357
-926,-32,360
-924,-33,360
-924,-31,361
-925,-29,356
-928,-33,361
-926,-31,362
-924,-32,359
-926,-32,362
-925,-31,359
-928,-36,357
-925,-27,363
-926,-28,359
-919,-33,362
-927,-30,364
-925,-28,363
-922,-31,366
-925,-29,364
-920,-33,363
-925,-30,365
-925,-29,365
-924,-30,370
-923,-25,369
-925,-30,369
-923,-28,370
-924,-32,372
-923,-30,367
-925,-27,370
-919,-31,369
-918,-31,368
-924,-30,370
-924,-25,369
-923,-34,369
-922,-30,369
-921,-32,367
-920,-28,366
-923,-28,369
-921,-32,366
-923,-30,368
-917,-28,368
-922,-28,373
-920,-32,370
-920,-27,365
-918,-30,371
-916,-31,368
-921,-35,365
-926,-27,367
-924,-29,368
-926,-23,362
-922,-29,364
-924,-35,360
-924,-29,365
-928,-30,363
-928,-30,362
-928,-32,359
-919,-28,363
-925,-34,355
-924,-33,362
-927,-31,359
-925,-26,360
-922,-32,363
-928,-31,361
-930,-27,364
-923,-29,365
-920,-29,367
-924,-25,366
-920,-32,365
-922,-28,366
-929,-25,370
-916,-30,367
-920,-30,369
-916,-31,369
-924,-30,368
-925,-29,368
-921,-28,370
-921,-32,371
-928,-29,369
-922,-30,368
-924,-30,373
-916,-29,374
-921,-24,369
-923,-31,370
-922,-25,374
-922,-27,371
-921,-31,370
-920,-30,372
-922,-29,368
-923,-28,371
-923,-29,368
-924,-31,367
-924,-30,367
-919,-29,369
-924,-29,369
-921,-31,364
-922,-29,363
-920,-34,363
-926,-28,361
-924,-34,363
-925,-32,362
-923,-23,362
-927,-31,360
-927,-34,361
-931,-31,359
-925,-30,363
-928,-31,356
-927,-32,360
-923,-31,363
-928,-32,362
-928,-31,362
-922,-32,362
-927,-31,357
-925,-30,365
-929,-30,363
-923,-31,361
-926,-28,363
-924,-30,358
-922,-26,365
-927,-26,362
-921,-32,363
-923,-30,365
-924,-30,370
-920,-29,362
-922,-31,366
-927,-32,366
-925,-29,370
-927,-31,368
-924,-28,372
-925,-30,365
-916,-27,372
-917,-25,368
-918,-32,370
-920,-29,370
-922,-32,370
-917,-31,370
-917,-31,368
-917,-31,371
-920,-27,370
-918,-26,368
-920,-29,366
-921,-29,367
-917,-32,369
-924,-30,367
-926,-28,365
-923,-35,368
-921,-28,370
-922,-29,363
-922,-31,365
-923,-29,364
-921,-32,362
-919,-31,364
-921,-32,359
-926,-27,360
-925,-28,359
-925,-33,362
-928,-30,361
-924,-29,361
-925,-32,362
-926,-30,365
-925,-27,360
-927,-33,363
-926,-32,362
-925,-31,365
-922,-30,365
-922,-32,365
-923,-31,369
-927,-30,364
-925,-32,366
-922,-26,371
-923,-29,370
-923,-28,368
-919,-33,371
-926,-30,367
-924,-30,369
-920,-28,374
-918,-30,371
-924,-29,368
-923,-33,366
-921,-30,368
-921,-30,367
-926,-27,367
-918,-26,366
-919,-28,372
-920,-29,372
-922,-27,372
-919,-30,372
-923,-26,369
-919,-27,368
-919,-29,367
-920,-32,371
-923,-31,367
-918,-30,368
-928,-31,370
-923,-27,371
-925,-30,367
-920,-31,366
-921,-29,368
-921,-32,363
-923,-28,366
-922,-30,361
-925,-30,363
-920,-29,360
-919,-29,365
-925,-31,364
-919,-29,364
-922,-28,365
-923,-31,366
-926,-27,366
-920,-32,369
-922,-31,372
-919,-28,368
-925,-30,367
-921,-30,368
-918,-29,370
-925,-26,371
-923,-24,367
-922,-28,371
-920,-28,368
-919,-28,369
-924,-28,367
-914,-26,369
-916,-29,370
-924,-30,372
-922,-28,371
-922,-28,371
-924,-27,371
-925,-28,371
-919,-29,372
-919,-30,369
-918,-26,372
-919,-28,370
-919,-30,371
-922,-26,371
-924,-31,370
-922,-27,369
-922,-30,365
-922,-26,367
-917,-30,371
-924,-30,367
-927,-31,362
-924,-29,366
-921,-30,365
-920,-25,363
-926,-25,366
-926,-27,362
-922,-26,366
-922,-27,361
-923,-29,365
-923,-31,365
-924,-27,365
-921,-30,367
-921,-30,366
-928,-30,368
-922,-29,369
-923,-25,369
-923,-31,368
-922,-30,366
-925,-30,369
-921,-28,367
-919,-27,369
-925,-30,370
-920,-32,368
-924,-31,370
-918,-29,370
-922,-28,369
-920,-26,370
-923,-32,369
-919,-30,368
-922,-30,370
-924,-29,366
-922,-28,367
-919,-28,368
-916,-28,373
-921,-28,370
-925,-29,369
-920,-28,369
-919,-29,371
-923,-26,374
-920,-28,371
-922,-26,374
-924,-30,368
-923,-27,373
-921,-29,372
-923,-27,370
-924,-31,366
-925,-25,369
-921,-25,365
-923,-25,369
-923,-30,365
-922,-27,368
-918,-28,369
-919,-29,364
-922,-30,364
-924,-32,366
-921,-31,365
-919,-34,364
-925,-28,359
-925,-25,363
-924,-31,366
-920,-31,362
-922,-30,366
-924,-29,364
-927,-27,366
-924,-27,366
-920,-29,361
-916,-28,366
-928,-27,364
-920,-28,372
-922,-29,370
-923,-30,368
-922,-31,366
-918,-30,371
-924,-28,368
-922,-29,370
-917,-31,370
-924,-28,367
-925,-30,372
-919,-29,369
-923,-28,367
-920,-30,371
-923,-29,369
-919,-31,370
-923,-28,371
-920,-30,369
-924,-32,368
-926,-27,369
-920,-25,368
-926,-30,369
-922,-32,368
-918,-30,370
-920,-28,373
-919,-34,371
-921,-29,371
-923,-29,370
-922,-28,371
-925,-26,371
-916,-28,371
-920,-31,371
-915,-29,374
-924,-32,370
-917,-28,369
-925,-30,368
-919,-30,370
-917,-29,366
-919,-27,370
-922,-29,369
-923,-29,370
-923,-28,368
-919,-30,370
-919,-27,368
-925,-31,370
-926,-30,364
-918,-27,365
-919,-25,363
-922,-22,365
-922,-31,363
-925,-27,365
-924,-31,366
-925,-27,361
-921,-29,362
-921,-31,364
-927,-33,363
-922,-26,362
-924,-30,363
-925,-30,364
-921,-29,361
-928,-24,362
-922,-27,364
-921,-27,363
-923,-27,365
-927,-28,364
-920,-26,361
-922,-27,364
-925,-31,365
-924,-30,367
-926,-30,363
-922,-28,363
-921,-31,366
-922,-31,366
-921,-29,370
-924,-31,369
-923,-27,368
-921,-34,370
-921,-30,367
-922,-27,370
-925,-29,368
-923,-29,371
-918,-31,365
-924,-27,371
-922,-29,367
-923,-29,368
-920,-28,369
-924,-25,370
-922,-25,374
-922,-30,373
-920,-31,370
-921,-25,371
-921,-32,370
-919,-27,367
-918,-31,370
-920,-27,371
-923,-29,368
-922,-32,370
-918,-32,369
-923,-27,365
-921,-30,367
-921,-31,365
-927,-28,366
-920,-35,365
-921,-34,364
-924,-29,363
-923,-25,363
-917,-31,366
-929,-30,361
-922,-26,359
-922,-30,365
-923,-31,363
-926,-32,365
-923,-29,365
-923,-29,363
-927,-33,364
-923,-28,366
-926,-34,368
-922,-27,364
-925,-29,366
-919,-33,366
-926,-28,361
-923,-30,366
-925,-31,367
-917,-37,364
-930,-29,364
-922,-34,362
-919,-34,366
-920,-32,369
-918,-41,373
-929,-31,371
-912,-27,366
-925,-34,372
-924,-35,370
-925,-35,371
-911,-32,360
-926,-34,377
-928,-32,372
-918,-36,362
-907,-26,368
-962,-33,378
-888,-18,353
-931,-23,372
-933,-17,372
-910,-16,366
-922,-14,391
-923,-36,379
-917,-41,364
-920,-37,370
-933,-31,367
-919,-20,373
-909,-21,369
-917,-17,372
-923,-26,373
-922,-30,368
-919,-28,371
-924,-24,370
-920,-24,367
-922,-26,374
-921,-27,371
-922,-30,371
-922,-19,370
-918,-27,371
-919,-27,370
-922,-26,372
-918,-22,365
-920,-23,370
-918,-26,373
-920,-26,370
-917,-28,371
-918,-28,369
-924,-26,369
-921,-26,372
-923,-23,367
-923,-29,372
-921,-23,371
-923,-21,371
-919,-23,371
-922,-30,369
-922,-25,367
-919,-27,367
-925,-25,369
-923,-23,370
-922,-31,365
-923,-27,367
-923,-28,367
-925,-24,358
-918,-27,359
-928,-23,364
-925,-25,361
-922,-30,361
-927,-25,362
-925,-26,364
-924,-25,363
-927,-19,370
-918,-24,366
-920,-25,369
-925,-24,366
-924,-26,367
-920,-27,367
-921,-28,369
-922,-26,371
-918,-22,366
-922,-26,370
-917,-25,371
-922,-30,369
-918,-20,372
-922,-23,370
-918,-24,367
-921,-25,370
-917,-29,370
-924,-27,369
-921,-24,369
-920,-25,371
-922,-30,370
-919,-25,369
-920,-23,369
-924,-25,369
-919,-29,369
-924,-28,365
-927,-25,363
-921,-25,363
-923,-29,364
-922,-27,363
-928,-27,363
-923,-28,365
-923,-25,364
-923,-24,366
-926,-24,362
-924,-24,366
-923,-27,364
-922,-25,366
-926,-24,367
-924,-27,367
-924,-25,369
-921,-24,367
-924,-22,368
-920,-25,365
-921,-29,369
-916,-31,370
-924,-22,372
-923,-29,368
-923,-26,370
-923,-25,369
-921,-27,371
-920,-25,369
-918,-22,374
-924,-25,371
-920,-23,371
-919,-31,368
-924,-29,368
-918,-26,372
-920,-25,365
-924,-27,365
-926,-24,366
-925,-23,367
-925,-26,363
-919,-25,364
-930,-27,361
-926,-27,361
-921,-31,364
-924,-28,361
-921,-26,362
-926,-27,362
-924,-28,363
-928,-25,359
-922,-26,364
-918,-28,369
-921,-26,368
-922,-27,365
-925,-28,365
-920,-26,370
-923,-24,368
-912,-26,369
-924,-28,365
-923,-26,367
-920,-27,370
-922,-25,369
-919,-23,370
-927,-29,364
-925,-22,372
-920,-27,366
-920,-28,367
-919,-30,369
-919,-25,368
-922,-30,369
-926,-28,373
-918,-29,368
-922,-26,367
-921,-27,368
-922,-25,366
-923,-28,366
-926,-24,364
-920,-28,363
-918,-23,366
-923,-28,366
-926,-27,363
-922,-30,362
-921,-29,365
-925,-25,361
-925,-26,361
-920,-25,361
-926,-28,361
-925,-27,362
-925,-27,366
-921,-26,363
-920,-25,369
-924,-29,363
-923,-26,364
-927,-28,367
-917,-27,370
-921,-24,369
-925,-26,367
-923,-25,370
-919,-28,367
-920,-26,367
-923,-23,373
-921,-29,366
-922,-31,370
-919,-27,370
-921,-27,366
-923,-29,372
-919,-28,368
-921,-26,371
-924,-25,367
-920,-26,369
-927,-26,371
-923,-21,374
-917,-23,367
-926,-25,367
-922,-24,370
-921,-26,367
-922,-24,369
-918,-27,366
-921,-27,365
-920,-25,364
-924,-24,366
-925,-27,364
-925,-30,363
-926,-30,364
-929,-25,364
-925,-29,363
-925,-24,364
-924,-25,365
-926,-25,364
-918,-21,363
-924,-26,367
-922,-29,366
-925,-27,365
-920,-24,366
-923,-22,368
-923,-30,365
-924,-29,368
-920,-27,365
-924,-28,370
-922,-26,367
-922,-28,370
-922,-24,369
-920,-28,372
-927,-21,370
-917,-25,369
-922,-28,367
-923,-29,369
-923,-25,367
-919,-29,369
-924,-29,369
-922,-29,368
-927,-28,369
-922,-25,369
-924,-25,368
-920,-26,366
-918,-26,366
-925,-28,362
-922,-29,364
-926,-30,364
-924,-26,362
-927,-26,359
-925,-25,361
-926,-26,362
-924,-23,362
-928,-25,363
-927,-30,362
-926,-26,363
-929,-30,360
-920,-28,361
-925,-25,361
-925,-29,363
-923,-29,365
-919,-28,364
-921,-28,366
-925,-25,366
-924,-27,365
-924,-28,365
-925,-27,365
-921,-28,367
-920,-27,369
-921,-29,364
-928,-25,371
-923,-26,369
-922,-29,367
-921,-26,370
-922,-25,367
-918,-22,368
-923,-30,367
-923,-25,370
-918,-26,371
-923,-24,368
-923,-25,367
-925,-28,371
-922,-32,366
-924,-29,365
-925,-28,363
-919,-32,364
-922,-27,364
-921,-29,364
-926,-28,362
-926,-26,363
-924,-27,359
-926,-29,361
-928,-27,362
-925,-30,362
-923,-29,362
-927,-30,360
-927,-30,362
-922,-25,360
-920,-32,362
-925,-27,361
-920,-26,363
-922,-29,363
-922,-26,365
-923,-30,365
-924,-29,370
-919,-30,365
-924,-25,369
-921,-26,367
-922,-27,369
-920,-29,366
-920,-30,367
-925,-26,366
-923,-24,367
-925,-27,367
-918,-28,364
-921,-30,367
-919,-23,364
-922,-24,368
-920,-30,369
-926,-28,364
-922,-27,370
-930,-31,365
-923,-28,366
-921,-29,363
-923,-28,363
-922,-29,361
-929,-29,362
-922,-30,360
-922,-28,359
-928,-30,359
-927,-25,361
-922,-31,359
-921,-33,364
-927,-26,359
-924,-31,360
-927,-27,366
-927,-26,363
-924,-32,364
-930,-30,365
-922,-29,361
-926,-27,364
-923,-25,364
-925,-22,365
-925,-28,368
-926,-31,364
-925,-30,367
-922,-28,364
-920,-31,367
-921,-25,364
-924,-27,365
-922,-25,365
-924,-29,367
-926,-27,368
-926,-26,363
-925,-27,372
-919,-26,367
-920,-31,367
-924,-27,370
-920,-28,369
-918,-27,366
-922,-25,368
-924,-28,364
-927,-28,363
-923,-28,365
-922,-29,363
-924,-28,364
-926,-28,363
-923,-29,360
-923,-27,363
-925,-27,359
-929,-32,360
-926,-25,362
-925,-31,360
-923,-32,357
-924,-28,361
-928,-30,364
-925,-30,364
-922,-26,363
-926,-31,364
-927,-33,365
-924,-28,366
-922,-30,365
-925,-27,365
-923,-27,368
-925,-28,370
-923,-26,364
-922,-27,365
-925,-31,370
-927,-31,369
-924,-26,366
-926,-23,367
-921,-26,366
-923,-31,368
-923,-31,368
-923,-28,368
-919,-27,368
-922,-29,365
-922,-32,367
-925,-25,363
-924,-27,365
-917,-28,363
-924,-29,366
-922,-30,365
-925,-31,364
-924,-29,366
-923,-28,364
-925,-27,363
-927,-33,360
-923,-29,361
-924,-30,357
-925,-30,360
-926,-27,358
-925,-27,358
-922,-24,363
-923,-28,361
-927,-27,361
-924,-29,363
-924,-27,362
-920,-22,364
-924,-26,360
-923,-27,363
-922,-25,367
-924,-26,365
-926,-31,364
-924,-28,368
-933,-25,364
-927,-26,366
-925,-25,365
-920,-26,370
-923,-28,367
-918,-31,368
-927,-33,368
-921,-27,364
-926,-26,366
-922,-30,364
-920,-25,368
-923,-27,370
-919,-23,361
-926,-26,367
-923,-29,368
-921,-27,366
-920,-25,363
-923,-27,367
-922,-26,362
-927,-29,365
-926,-23,364
-923,-28,365
-925,-26,361
-927,-27,362
-923,-25,364
-920,-25,362
-923,-30,357
-926,-26,360
-924,-28,359
-926,-24,361
-925,-28,359
-925,-28,356
-925,-25,359
-921,-28,358
-924,-28,362
-921,-31,363
-922,-28,361
-925,-26,363
-924,-29,364
-925,-28,366
-927,-27,367
-921,-30,366
-921,-30,365
-922,-27,369
-922,-28,369
-924,-26,363
-924,-26,368
-921,-26,364
-924,-26,368
-921,-27,368
-919,-28,367
-920,-22,364
-924,-26,365
-905,-26,381
-924,-28,368
-919,-27,369
-921,-27,367
-923,-27,368
-922,-24,367
-924,-28,367
-919,-27,366
-924,-26,367
-923,-25,368
-920,-27,362
-922,-31,364
-924,-30,362
-923,-28,365
-925,-26,364
-919,-28,363
-926,-28,363
-927,-28,359
-926,-27,360
-927,-28,361
-922,-27,363
-926,-27,361
-927,-26,361
-932,-26,359
-927,-27,357
-923,-26,363
-919,-27,360
-923,-24,359
-922,-29,363
-927,-26,362
-929,-25,361
-924,-29,361
-926,-27,361
-924,-26,362
-923,-26,363
-924,-25,365
-923,-24,366
-923,-29,366
-920,-27,371
-924,-24,366
-920,-27,368
-924,-26,366
-924,-30,368
-921,-28,366
-925,-28,366
-918,-25,368
-917,-29,366
-925,-30,367
-926,-25,365
-922,-28,365
-923,-27,365
-921,-29,367
-920,-26,367
-926,-25,367
-926,-25,364
-926,-27,366
-923,-26,363
-923,-27,368
-925,-28,366
-926,-26,365
-919,-24,365
-920,-27,367
-927,-29,362
-927,-29,363
-924,-27,361
-924,-23,363
-923,-30,362
-930,-27,353
-930,-24,357
-928,-29,359
-924,-28,360
-929,-26,359
-926,-25,358
-927,-30,357
-924,-27,357
-927,-25,359
-922,-31,359
-924,-29,360
-927,-28,361
-922,-28,363
-920,-28,359
-926,-25,363
-918,-30,366
-921,-25,363
-921,-23,367
-926,-27,366
-922,-22,364
-923,-24,365
-926,-22,364
-924,-26,363
-924,-27,368
-927,-27,367
-918,-27,364
-927,-26,365
-920,-27,368
-921,-28,369
-927,-24,366
-926,-29,367
-923,-29,366
-927,-27,369
-924,-28,364
-925,-29,365
-925,-25,367
-922,-25,366
-920,-27,372
-923,-28,362
-925,-30,365
-923,-29,364
-924,-24,363
-927,-29,367
-920,-28,362
-924,-26,361
-927,-28,362
-923,-25,360
-924,-22,359
-921,-31,361
-929,-29,359
-934,-32,356
-924,-23,360
-923,-25,357
-926,-26,364
-926,-29,362
-926,-26,360
-928,-32,361
-924,-26,362
-923,-28,358
-923,-26,360
-925,-28,361
-921,-23,365
-923,-27,364
-921,-26,364
-928,-28,364
-919,-26,365
-922,-25,365
-924,-26,362
-923,-24,363
-927,-25,365
-926,-26,364
-919,-25,362
-925,-24,370
-918,-28,366
-925,-28,365
-922,-28,368
-919,-24,364
-920,-26,366
-920,-28,368
-922,-26,372
-923,-30,367
-920,-29,365
-925,-27,365
-927,-29,367
-918,-27,366
-923,-29,365
-922,-24,366
-926,-25,364
-925,-26,365
-924,-28,364
-926,-27,360
-928,-27,362
-926,-28,362
-925,-28,362
-924,-27,360
-926,-28,362
-927,-26,361
-924,-25,363
-919,-27,361
-921,-23,360
-926,-33,365
-926,-30,361
-921,-29,362
-925,-26,364
-923,-29,363
-924,-30,365
-924,-25,366
-922,-26,363
-923,-28,364
-928,-29,366
-924,-29,363
-921,-28,366
-926,-28,365
-922,-24,365
-925,-29,368
-922,-25,367
-924,-26,366
-925,-23,366
-919,-25,364
-920,-23,368
-921,-31,367
-919,-26,367
-925,-26,368
-926,-29,364
-920,-28,365
-920,-29,367
-923,-23,368
-924,-27,365
-919,-27,362
-921,-24,364
-925,-29,361
-925,-25,365
-929,-27,365
-921,-25,364
-920,-23,360
-927,-23,361
-927,-28,365
-924,-33,362
-925,-24,358
-928,-29,361
-926,-26,362
-928,-29,362
-924,-26,363
-925,-29,358
-923,-20,361
-923,-27,363
-926,-28,361
-925,-26,361
-929,-28,363
-925,-26,364
-918,-26,364
-927,-25,360
-923,-29,364
-925,-35,364
-923,-25,364
-922,-27,364
-928,-28,365
-925,-28,362
-920,-26,367
-921,-25,370
-928,-25,370
-922,-29,367
-925,-26,364
-923,-27,368
-924,-28,364
-917,-28,368
-924,-31,367
-923,-25,368
-921,-23,364
-925,-31,366
-925,-30,365
-918,-24,367
-922,-28,364
-927,-25,367
-924,-26,363
-925,-31,363
-923,-27,364
-923,-27,369
-922,-31,360
-926,-24,362
-922,-23,360
-926,-26,362
-924,-29,359
-925,-24,359
-922,-23,359
-926,-24,362
-923,-26,360
-926,-27,359
-923,-24,364
-928,-26,361
-926,-30,364
-923,-27,361
-929,-23,368
-922,-26,361
-922,-26,364
-921,-25,363
-923,-27,361
-924,-29,364
-923,-28,368
-928,-25,365
-923,-26,364
-917,-23,372
-922,-22,368
-922,-29,369
-926,-24,368
-926,-30,368
-923,-23,366
-915,-23,366
-921,-30,369
-925,-27,370
-923,-25,364
-921,-24,368
-919,-25,367
-927,-24,364
-920,-22,365
-923,-24,367
-923,-28,367
-926,-24,363
-925,-28,364
-921,-28,364
-925,-28,367
-923,-30,363
-923,-23,364
-923,-29,363
-922,-25,363
-927,-23,364
-926,-32,365
-921,-24,364
-924,-26,358
-930,-30,362
-925,-29,361
-925,-28,359
-925,-26,363
-925,-24,363
-923,-29,362
-925,-25,361
-923,-26,366
-923,-27,365
-925,-27,362
-924,-27,363
-927,-23,364
-925,-27,363
-924,-23,366
-922,-28,366
-922,-24,365
-920,-27,363
-920,-26,368
-927,-24,366
-924,-26,366
-923,-22,363
-925,-27,369
-924,-26,370
-923,-26,370
-924,-23,368
-921,-26,363
-919,-28,365
-923,-26,367
-924,-23,366
-921,-27,367
-922,-26,367
-924,-27,366
-922,-29,364
-922,-25,363
-925,-29,367
-926,-29,363
-920,-24,364
-927,-28,365
-926,-26,363
-921,-30,364
-926,-30,360
-923,-23,363
-927,-25,359
-926,-26,363
-925,-25,361
-925,-27,360
-927,-29,363
-918,-24,359
-924,-29,362
-927,-26,360
-926,-25,361
-927,-25,362
-921,-28,362
-924,-26,365
-926,-24,364
-926,-25,363
-923,-30,364
-925,-29,364
-928,-27,364
-921,-25,368
-921,-28,366
-923,-27,364
-922,-26,361
-925,-27,364
-920,-27,367
-924,-30,367
-928,-24,364
-925,-28,367
-922,-27,366
-926,-29,365
-925,-28,365
-924,-24,364
-922,-22,364
-919,-22,364
-927,-32,371
-929,-17,377
-922,-26,371
-923,-30,366
-918,-28,367
-923,-26,366
-919,-25,369
-924,-24,366
-924,-30,364
-922,-28,367
-923,-29,367
-924,-30,365
-924,-25,362
-921,-27,365
-923,-28,363
-922,-31,364
-929,-25,366
-921,-23,363
-925,-28,362
-930,-27,359
-920,-25,360
-930,-22,359
-927,-28,356
-919,-25,359
-929,-29,361
-929,-31,365
-926,-35,361
-924,-28,363
-928,-28,366
-919,-31,364
-917,-27,367
-920,-30,367
-920,-31,370
-924,-33,370
-925,-29,368
-919,-24,372
-928,-32,370
-916,-29,371
-916,-30,369
-912,-32,366
-917,-31,366
-926,-35,371
-918,-31,366
-920,-27,374
-920,-28,368
-928,-30,367
-919,-34,371
-919,-32,367
-930,-32,370
-927,-33,363
-906,-17,365
-937,-25,371
-912,-17,378
-929,-31,378
-928,-30,360
-939,-24,346
-918,-10,344
-912,-6,377
-918,-21,378
-928,-32,362
-917,-32,358
-925,-29,370
-920,-31,364
-921,-22,366
-925,-27,365
-922,-29,364
-922,-28,370
-917,-29,366
-926,-22,365
-919,-21,364
-921,-26,366
-923,-24,367
-921,-22,366
-920,-23,368
-921,-22,369
-926,-24,367
-919,-23,365
-922,-25,368
-924,-28,368
-916,-20,368
-923,-26,372
-922,-27,369
-924,-24,371
-925,-23,371
-927,-24,371
-922,-25,367
-924,-27,365
-927,-24,368
-923,-31,366
-923,-18,368
-924,-25,366
-925,-22,365
-927,-26,363
-924,-26,360
-923,-25,362
-924,-26,361
-925,-29,361
-923,-24,363
-927,-26,362
-927,-26,361
-927,-24,366
-923,-28,364
-922,-25,370
-925,-24,369
-925,-25,366
-928,-26,366
-922,-24,366
-921,-29,370
-925,-23,366
-918,-22,369
-927,-27,368
-928,-25,369
-922,-25,369
-922,-24,368
-920,-24,367
-923,-25,366
-922,-23,369
-924,-24,371
-921,-26,369
-924,-28,371
-922,-24,369
-924,-24,372
-926,-21,364
-924,-21,370
-924,-26,363
-921,-24,366
-929,-27,367
-922,-30,368
-922,-25,365
-926,-25,364
-925,-25,362
-923,-26,364
-929,-24,360
-924,-25,360
-923,-27,359
-927,-24,360
-923,-27,359
-923,-24,365
-921,-23,362
-926,-27,361
-923,-25,365
-930,-26,363
-926,-26,362
-924,-28,363
-924,-26,365
-923,-22,365
-929,-24,366
-921,-25,366
-924,-31,364
-922,-25,367
-916,-26,364
-924,-26,367
-924,-27,367
-923,-25,365
-922,-24,368
-919,-23,366
-920,-29,370
-922,-27,368
-922,-29,367
-922,-24,369
-928,-25,371
-922,-24,367
-923,-24,368
-924,-29,367
-922,-26,369
-927,-24,367
-920,-23,365
-923,-24,362
-925,-27,364
-926,-28,365
-926,-25,363
-925,-28,361
-922,-26,362
-922,-24,360
-926,-25,363
-924,-28,360
-926,-24,358
-927,-28,362
-924,-24,362
-924,-27,364
-920,-25,360
-923,-28,362
-925,-28,360
-925,-27,367
-920,-28,365
-922,-21,367
-923,-22,365
-929,-28,366
-918,-24,366
-925,-25,365
-922,-25,366
-924,-23,365
-922,-25,367
-921,-25,364
-922,-22,365
-920,-26,369
-925,-27,365
-921,-24,369
-922,-25,367
-924,-21,368
-921,-26,367
-912,-24,378
-924,-24,368
-922,-28,370
-924,-25,365
-924,-25,367
-925,-29,363
-922,-27,367
-922,-23,366
-923,-28,363
-918,-24,365
-923,-24,361
-923,-25,365
-923,-24,363
-921,-26,363
-921,-28,359
-927,-24,359
-927,-27,363
-925,-24,358
-924,-20,363
-926,-22,357
-923,-20,364
-927,-24,360
-924,-26,362
-924,-27,358
-922,-27,365
-923,-28,362
-924,-26,364
-924,-24,361
-922,-24,364
-924,-27,368
-926,-24,368
-921,-24,364
-924,-26,363
-922,-29,367
-922,-22,363
-924,-23,367
-924,-23,366
-925,-24,362
-924,-25,371
-920,-27,369
-923,-28,364
-924,-24,369
-920,-25,367
-924,-28,368
-925,-22,368
-918,-23,365
-924,-22,367
-925,-24,366
-922,-24,368
-925,-28,365
-919,-28,367
-923,-28,367
-925,-22,369
-924,-27,363
-924,-22,364
-924,-27,364
-923,-25,366
-925,-24,363
-927,-27,362
-922,-22,362
-923,-26,361
-926,-25,360
-927,-31,362
-927,-25,359
-924,-27,360
-920,-29,364
-929,-19,362
-920,-28,366
-924,-23,360
-924,-20,366
-925,-30,360
-924,-26,365
-920,-27,364
-929,-28,365
-923,-24,362
-923,-29,370
-919,-31,365
-922,-27,364
-920,-26,366
-922,-26,362
-922,-27,366
-922,-26,366
-927,-26,368
-925,-27,365
-925,-23,367
-927,-24,368
-921,-21,365
-918,-27,367
-923,-24,368
-933,-31,361
-924,-25,373
-924,-27,370
-922,-25,364
-927,-21,369
-921,-22,367
-923,-27,369
-926,-28,367
-923,-27,364
-922,-26,365
-926,-21,368
-925,-27,365
-925,-27,365
-928,-26,366
-921,-26,361
-924,-25,363
-924,-26,363
-927,-26,360
-922,-25,363
-926,-25,363
-924,-25,362
-928,-24,365
-924,-21,362
-926,-25,360
-927,-26,361
-921,-24,360
-921,-22,367
-924,-23,362
-924,-24,367
-922,-27,364
-921,-27,367
-922,-25,363
-923,-27,366
-921,-26,363
-918,-27,368
-920,-24,371
-922,-26,368
-924,-25,368
-919,-23,366
-922,-25,367
-926,-24,365
-924,-22,369
-924,-21,365
-921,-24,365
-924,-26,365
-922,-23,370
-918,-27,363
-923,-24,370
-924,-25,366
-922,-24,367
-925,-25,368
-924,-26,366
-918,-23,367
-927,-24,366
-924,-22,366
-922,-24,367
-922,-25,367
-927,-23,370
-918,-23,365
-922,-26,369
-923,-27,364
-924,-25,363
-922,-22,369
-924,-27,364
-921,-26,364
-921,-26,364
-925,-26,359
-921,-29,364
-923,-21,367
-924,-27,367
-922,-23,363
-923,-24,363
-920,-24,365
-927,-26,361
-923,-25,365
-924,-21,362
-921,-20,367
-924,-25,364
-926,-28,364
-926,-27,363
-920,-28,363
-924,-24,363
-925,-25,366
-922,-28,366
-922,-28,365
-920,-26,368
-925,-28,366
-919,-26,367
-920,-30,367
-926,-29,365
-926,-24,365
-923,-24,364
-922,-28,368
-927,-22,366
-919,-22,366
-925,-26,371
-921,-26,369
-928,-26,369
-919,-24,368
-922,-27,365
-922,-25,371
-920,-24,366
-923,-26,366
-926,-24,366
-919,-28,368
-920,-17,363
-922,-27,369
-923,-23,365
-922,-23,367
-922,-26,364
-920,-26,363
-928,-26,364
-924,-28,361
-925,-27,363
-926,-25,363
-925,-24,360
-926,-26,363
-921,-28,363
-921,-25,360
-924,-23,361
-922,-26,359
-924,-26,363
-923,-23,365
-923,-24,362
-929,-24,364
-925,-25,363
-922,-24,365
-926,-29,362
-925,-23,366
-927,-24,367
-926,-27,366
-924,-27,367
-923,-27,364
-922,-22,366
-922,-25,366
-926,-25,364
-924,-25,367
-921,-24,365
-921,-21,370
-920,-24,369
-925,-25,365
-923,-26,366
-921,-23,369
-923,-26,366
-923,-29,369
-919,-27,366
-923,-26,366
-920,-24,367
-922,-21,365
-922,-25,368
-920,-23,365
-921,-28,364
-924,-25,367
-924,-27,370
-925,-27,369
-925,-21,368
-922,-26,369
-922,-27,368
-924,-24,367
-923,-26,364
-926,-25,367
-919,-26,367
-923,-23,362
-926,-24,361
-923,-25,367
-927,-26,363
-924,-23,363
-925,-26,362
-925,-25,366
-923,-26,363
-927,-26,360
-925,-28,361
-928,-24,362
-927,-30,360
-923,-27,364
-922,-28,359
-924,-24,363
-924,-25,365
-921,-24,362
-923,-29,366
-922,-24,364
-925,-27,366
-926,-27,363
-923,-26,364
-925,-26,364
-922,-22,369
-923,-23,365
-928,-27,365
-919,-24,368
-920,-25,367
-923,-26,366
-924,-24,365
-922,-26,367
-923,-24,372
-925,-27,366
-923,-26,367
-924,-23,370
-923,-27,367
-918,-28,367
-921,-28,366
-924,-25,368
-915,-25,365
-919,-27,364
-920,-21,371
-919,-23,370
-923,-20,371
-923,-25,370
-922,-29,367
-919,-24,369
-921,-25,370
-924,-23,369
-918,-23,364
-925,-23,365
-921,-22,366
-920,-27,365
-924,-25,366
-925,-26,359
-919,-29,364
-921,-26,364
-924,-25,363
-924,-29,365
-921,-29,360
-923,-27,358
-921,-27,360
-924,-29,358
-921,-23,357
-928,-26,361
-917,-36,381
-933,-21,367
-924,-26,370
-920,-23,374
-915,-15,372
-917,-2,375
-939,80,422
-883,-19,371
-922,26,390
-925,61,402
-917,64,340
-951,55,405
-898,93,413
-825,-52,403
-979,108,413
-852,95,377
-903,86,423
-872,86,413
-875,44,460
-875,66,461
-889,60,469
-867,0,464
-885,8,432
-872,21,463
-892,-102,450
-895,-65,464
-932,-177,376
-880,-156,436
-879,-68,469
-887,-53,471
-887,-67,440
-884,-62,456
-894,-52,474
-863,-82,441
-878,-62,467
-872,-70,469
-863,-41,471
-909,-59,441
-876,-63,433
-883,-59,430
-903,-67,464
-877,-71,459
-861,-53,459
-888,-65,457
-889,-83,465
-877,-79,458
-890,-60,443
-864,-42,465
-891,-51,458
-878,-59,468
-874,-69,452
-883,-58,461
-875,-58,463
-879,-59,466
-875,-60,462
-875,-61,463
-875,-63,463
-875,-56,459
-877,-62,467
-876,-61,465
-878,-59,463
-882,-61,462
-880,-60,468
-874,-63,468
-874,-62,467
-877,-62,465
-874,-62,464
-875,-60,465
-875,-58,462
-877,-66,461
-878,-63,461
-881,-62,463
-878,-60,460
-881,-63,459
-879,-54,459
-879,-63,459
-877,-63,457
-879,-62,458
-885,-63,456
-884,-60,453
-882,-62,455
-879,-62,452
-879,-57,452
-877,-60,448
-884,-62,454
-882,-62,454
-882,-65,456
-879,-62,455
-876,-60,452
-885,-59,457
-885,-63,454
-881,-62,461
-883,-58,459
-876,-61,461
-875,-61,462
-878,-67,460
-881,-62,460
-880,-62,463
-875,-62,464
-874,-61,467
-879,-60,466
-877,-63,465
-881,-60,466
-878,-61,466
-871,-63,464
-874,-62,464
-878,-63,466
-878,-60,463
-879,-62,465
-875,-61,467
-874,-58,465
-874,-62,469
-880,-62,465
-876,-61,469
-878,-60,467
-875,-59,465
-876,-63,464
-876,-64,463
-878,-66,467
-873,-65,462
-881,-64,462
-878,-63,459
-880,-65,459
-881,-68,459
-875,-62,460
-882,-65,457
-882,-66,458
-874,-64,455
-880,-59,454
-882,-60,452
-881,-62,453
-881,-65,453
-881,-59,456
-885,-61,455
-885,-65,456
-879,-62,456
-877,-60,453
-880,-61,456
-883,-60,458
-880,-65,460
-876,-62,455
-881,-64,460
-879,-63,462
-879,-62,458
-876,-64,463
-875,-64,461
-877,-64,461
-879,-65,465
-878,-64,464
-875,-63,464
-879,-58,464
-879,-64,463
-878,-63,464
-876,-65,467
-882,-61,465
-879,-63,465
-875,-62,466
-877,-62,467
-877,-60,464
-879,-62,467
-874,-60,467
-875,-64,462
-876,-60,469
-877,-65,466
-876,-62,467
-874,-63,466
-875,-61,463
-878,-66,463
-875,-64,462
-877,-58,461
-873,-61,461
-877,-61,465
-879,-65,461
-876,-63,462
-876,-65,463
-880,-63,458
-878,-65,457
-880,-64,459
-877,-65,458
-884,-61,458
-880,-69,454
-884,-66,456
-885,-61,452
-886,-66,452
-881,-61,452
-885,-65,452
-876,-65,456
-881,-65,456
-884,-62,455
-882,-65,455
-883,-63,454
-883,-62,457
-883,-66,459
-880,-66,462
-882,-60,455
-884,-60,460
-880,-60,458
-879,-65,464
-878,-64,462
-882,-62,463
-874,-66,463
-879,-63,465
-874,-63,463
-879,-65,459
-881,-63,463
-875,-66,463
-876,-64,466
-876,-59,464
-876,-66,463
-879,-62,467
-876,-63,464
-879,-61,463
-873,-60,464
-874,-64,460
-876,-62,467
-875,-59,465
-877,-62,466
-876,-66,465
-877,-65,468
-876,-64,467
-880,-61,466
-878,-58,468
-876,-59,467
-875,-65,468
-877,-64,465
-882,-58,464
-874,-62,466
-875,-61,466
-877,-62,464
-878,-61,461
-875,-61,465
-880,-67,459
-881,-61,462
-881,-63,460
-882,-63,459
-878,-61,460
-881,-61,458
-875,-64,458
-881,-62,457
-883,-63,453
-885,-64,454
-884,-64,454
-882,-60,453
-878,-62,457
-879,-60,457
-882,-62,458
-882,-61,459
-881,-65,460
-881,-66,461
-880,-63,458
-879,-63,466
-877,-61,462
-881,-60,463
-875,-64,461
-880,-65,462
-879,-60,464
-879,-57,464
-876,-62,466
-880,-63,465
-877,-60,464
-876,-61,468
-874,-64,464
-876,-64,466
-875,-65,467
-877,-62,466
-879,-63,470
-875,-62,468
-878,-60,466
-871,-63,470
-872,-60,467
-877,-65,463
-879,-60,467
-875,-60,467
-876,-64,470
-874,-65,466
-875,-63,465
-876,-62,465
-875,-61,467
-876,-63,459
-887,-56,465
-881,-63,460
-879,-61,460
-879,-60,460
-879,-63,463
-884,-63,454
-883,-64,457
-878,-61,457
-881,-62,458
-881,-62,454
-883,-60,455
-885,-57,456
-883,-64,451
-887,-61,453
-880,-63,453
-885,-61,453
-880,-61,456
-877,-58,457
-882,-63,457
-877,-61,458
-885,-62,461
-883,-62,459
-880,-62,457
-880,-60,460
-878,-62,462
-878,-64,460
-878,-60,460
-876,-60,462
-881,-63,463
-881,-63,466
-872,-63,461
-876,-61,466
-870,-62,461
-880,-58,465
-877,-62,466
-878,-62,463
-877,-61,467
-875,-57,466
-880,-65,464
-874,-60,464
-874,-64,468
-876,-63,466
-877,-61,467
-877,-58,468
-869,-65,467
-873,-63,466
-874,-64,473
-874,-62,465
-872,-61,469
-873,-61,466
-874,-63,467
-875,-62,469
-873,-63,466
-875,-62,468
-878,-61,466
-875,-60,466
-875,-64,463
-877,-63,467
-878,-61,462
-878,-63,462
-880,-66,462
-882,-63,460
-876,-62,461
-880,-63,462
-877,-62,463
-879,-60,461
-879,-64,458
-880,-63,463
-877,-62,464
-879,-63,462
-884,-62,464
-873,-62,463
-875,-62,463
-876,-62,463
-874,-63,466
-872,-60,466
-882,-63,466
-880,-62,464
-872,-64,467
-873,-63,467
-876,-62,468
-874,-61,469
-875,-63,466
-873,-62,463
-881,-61,466
-873,-65,464
-874,-61,466
-875,-63,469
-872,-61,469
-874,-62,468
-875,-60,466
-877,-59,472
-876,-59,470
-871,-61,470
-874,-62,470
-872,-61,469
-877,-56,469
-873,-62,469
-875,-58,466
-875,-62,471
-871,-63,470
-875,-59,468
-871,-58,471
-870,-60,468
-874,-63,469
-873,-62,465
-875,-64,469
-878,-62,466
-873,-63,466
-880,-66,466
-877,-63,465
-879,-62,466
-878,-65,459
-876,-64,462
-880,-61,464
-877,-59,462
-875,-61,461
-882,-63,462
-872,-62,463
-879,-66,462
-876,-62,462
-876,-64,464
-878,-63,461
-874,-61,466
-877,-62,465
-875,-62,466
-876,-65,467
-874,-62,469
-874,-62,468
-876,-65,464
-876,-62,469
-875,-65,467
-875,-57,468
-876,-61,462
-875,-62,470
-875,-62,469
-875,-62,468
-872,-60,468
-874,-61,468
-875,-62,467
-875,-62,471
-875,-62,468
-873,-58,468
-871,-61,469
-877,-65,467
-872,-60,467
-871,-60,467
-876,-61,467
-873,-59,468
-873,-59,469
-879,-60,467
-876,-60,470
-874,-57,465
-872,-64,469
-874,-62,470
-871,-65,469
-878,-64,467
-877,-61,466
-880,-62,466
-874,-62,465
-877,-61,468
-875,-62,465
-876,-61,465
-881,-63,463
-882,-62,458
-874,-62,460
-876,-60,463
-881,-61,461
-877,-62,460
-881,-61,456
-882,-61,458
-881,-60,462
-877,-61,457
-879,-60,457
-876,-57,460
-879,-59,460
-881,-61,457
-884,-66,462
-876,-61,462
-879,-64,461
-881,-62,465
-877,-62,464
-877,-61,463
-876,-60,467
-879,-62,464
-874,-60,467
-879,-61,467
-872,-60,466
-877,-62,470
-872,-58,468
-876,-64,466
-875,-59,467
-877,-60,471
-874,-65,467
-873,-61,468
-873,-59,469
-875,-61,469
-873,-63,470
-874,-63,471
-873,-61,469
-870,-61,473
-874,-62,467
-872,-61,470
-876,-60,469
-876,-57,468
-875,-62,470
-877,-64,469
-874,-61,469
-871,-61,471
-875,-62,468
-877,-62,469
-875,-58,468
-878,-60,470
-876,-60,469
-877,-64,469
-877,-66,466
-877,-62,467
-876,-63,464
-876,-63,465
-875,-57,463
-877,-63,463
-880,-62,465
-880,-62,463
-879,-62,464
-878,-60,460
-882,-65,462
-878,-63,462
-880,-60,462
-879,-61,460
-878,-61,464
-875,-61,462
-876,-64,462
-876,-63,463
-878,-63,466
-875,-64,468
-877,-63,467
-875,-63,468
-878,-63,467
-873,-61,466
-874,-63,466
-875,-63,468
-877,-60,469
-876,-62,468
-873,-62,468
-877,-62,468
-877,-62,469
-874,-59,465
-876,-62,470
-874,-62,469
-877,-59,473
-875,-60,469
-873,-62,467
-874,-61,470
-873,-60,470
-875,-62,467
-872,-62,467
-874,-61,465
-871,-62,474
-873,-61,469
-870,-58,471
-872,-58,469
-875,-60,472
-872,-69,469
-875,-59,469
-873,-62,471
-876,-65,467
-878,-58,465
-878,-62,468
-875,-62,466
-877,-62,464
-874,-64,465
-874,-62,465
-873,-62,466
-880,-56,464
-875,-59,465
-877,-62,462
-878,-61,463
-880,-63,463
-877,-64,468
-879,-60,460
-877,-64,463
-875,-65,462
-878,-61,468
-871,-60,469
-875,-62,469
-874,-61,466
-877,-61,466
-879,-61,470
-873,-61,468
-871,-59,470
-876,-59,468
-872,-59,465
-875,-61,466
-873,-63,469
-870,-60,468
-875,-63,472
-873,-59,470
-874,-61,468
-874,-60,470
-870,-61,468
-873,-56,470
-873,-63,469
-870,-58,468
-872,-64,465
-873,-59,472
-874,-63,469
-875,-60,470
-871,-63,468
-872,-61,469
-871,-62,471
-873,-61,473
-876,-59,470
-875,-62,465
-878,-62,464
-875,-61,469
-873,-62,468
-877,-61,467
-876,-66,466
-871,-59,464
-875,-59,465
-874,-62,463
-876,-63,467
-874,-61,463
-875,-61,462
-879,-60,465
-879,-61,460
-875,-55,464
-874,-58,464
-876,-66,465
-875,-61,464
-878,-65,465
-876,-62,467
-879,-63,468
-873,-58,466
-877,-64,468
-873,-59,469
-876,-60,468
-875,-62,469
-877,-61,467
-875,-64,469
-876,-62,469
-874,-66,471
-879,-59,468
-877,-62,472
-878,-62,471
-875,-58,472
-871,-58,469
-874,-57,472
-874,-55,472
-876,-57,471
-873,-59,474
-876,-63,468
-875,-61,471
-877,-60,471
-872,-61,472
-872,-57,471
-871,-63,471
-875,-62,475
-875,-64,469
-875,-61,469
-877,-60,473
-875,-59,471
-877,-60,470
-874,-62,471
-873,-60,470
-871,-58,470
-876,-62,468
-877,-64,467
-874,-60,468
-876,-63,469
-873,-63,467
-877,-62,465
-877,-62,469
-882,-60,466
-876,-63,468
-875,-63,462
-875,-62,465
-876,-62,464
-875,-58,465
-874,-64,465
-876,-61,467
-876,-62,463
-873,-62,466
-875,-61,464
-877,-61,466
-879,-65,468
-875,-62,470
-878,-62,470
-870,-63,465
-873,-60,468
-874,-61,468
-870,-61,471
-874,-65,468
-877,-58,467
-876,-59,468
-871,-62,468
-872,-60,469
-879,-62,468
-877,-62,472
-872,-61,469
-874,-62,475
-879,-63,472
-870,-62,475
-873,-64,474
-876,-63,471
-873,-60,473
-874,-66,472
-870,-59,470
-872,-62,469
-872,-63,471
-875,-63,472
-873,-59,472
-872,-62,471
-873,-55,474
-868,-61,471
-871,-62,473
-873,-58,473
-874,-61,470
-876,-62,472
-872,-66,469
-874,-62,470
-871,-63,470
-877,-65,469
-873,-63,471
-875,-62,469
-878,-59,466
-873,-60,466
-874,-61,466
-874,-63,465
-881,-59,461
-879,-62,461
-876,-63,462
-879,-62,460
-882,-63,461
-878,-57,461
-875,-61,460
-876,-61,461
-875,-65,462
-877,-62,463
-878,-64,466
-878,-63,465
-875,-61,464
-875,-58,464
-880,-61,469
-875,-58,463
-877,-60,465
-875,-62,469
-875,-63,465
-874,-58,466
-874,-62,466
-878,-62,468
-876,-59,472
-876,-58,470
-875,-60,473
-875,-61,470
-873,-59,469
-875,-61,472
-875,-63,470
-871,-54,471
-872,-59,470
-875,-62,470
-870,-59,468
-872,-61,470
-873,-63,472
-873,-60,471
-872,-59,474
-869,-62,471
-873,-59,474
-873,-59,472
-873,-59,474
-877,-64,472
-871,-63,473
-875,-66,472
-874,-60,468
-876,-58,469
-875,-61,467
-871,-60,468
-876,-64,467
-873,-62,469
-874,-63,467
-872,-63,467
-875,-63,465
-877,-65,467
-878,-58,467
-877,-63,468
-875,-62,461
-873,-61,463
-878,-64,462
-875,-58,468
-875,-61,465
-873,-62,469
-875,-63,467
-872,-61,467
-873,-63,469
-875,-59,468
-868,-60,468
-875,-62,472
-871,-62,468
-872,-59,470
-872,-60,473
-874,-61,473
-876,-64,471
-871,-63,473
-870,-59,472
-872,-61,471
-878,-57,471
-874,-62,468
-877,-62,473
-873,-62,470
-875,-57,470
-871,-62,474
-869,-57,473
-874,-59,472
-874,-60,471
-876,-62,472
-871,-60,473
-874,-65,471
-871,-60,471
-873,-63,468
-873,-63,470
-873,-64,470
-877,-63,469
-873,-64,468
-880,-62,468
-874,-63,465
-875,-59,466
-876,-61,467
-875,-64,465
-876,-56,461
-879,-61,462
-875,-63,465
-883,-66,461
-878,-60,462
-875,-65,463
-876,-62,466
-877,-64,462
-872,-58,465
-877,-64,467
-876,-60,468
-876,-61,470
-878,-61,467
-876,-62,469
-874,-61,471
-871,-65,471
-875,-62,470
-873,-58,472
-874,-61,470
-873,-61,472
-871,-62,473
-873,-62,468
-872,-62,471
-875,-59,469
-874,-61,471
-873,-62,471
-876,-62,479
-876,-60,473
-873,-62,471
-872,-59,474
-874,-62,472
-873,-64,471
-872,-60,471
-876,-65,470
-871,-60,469
-869,-61,470
-872,-61,469
-876,-62,467
-875,-65,467
-875,-61,466
-875,-62,465
-880,-63,464
-876,-59,462
-877,-62,463
-877,-61,461
-877,-61,463
-875,-62,461
-881,-63,463
-875,-62,463
-880,-66,464
-880,-61,462
-876,-59,466
-873,-58,468
-875,-59,468
-875,-61,467
-874,-63,467
-878,-59,471
-874,-63,469
-875,-62,471
-873,-62,472
-874,-59,469
-871,-63,469
-873,-62,473
-865,-61,468
-868,-61,473
-868,-60,475
-874,-60,472
-872,-60,469
-869,-61,471
-872,-63,472
-867,-59,475
-869,-57,472
-873,-59,474
-872,-65,469
-872,-62,473
-870,-59,475
-873,-61,473
-871,-61,472
-874,-64,473
-873,-64,472
-874,-58,476
-871,-60,472
-877,-63,468
-870,-65,472
-867,-62,470
-873,-62,470
-874,-64,467
-876,-61,467
-875,-61,465
-878,-60,466
-880,-65,465
-876,-60,464
-877,-64,464
-874,-66,464
-876,-61,461
-877,-60,462
-872,-64,466
-878,-63,466
-875,-61,465
-879,-63,468
-875,-62,467
-873,-61,468
-871,-61,469
-875,-62,468
-876,-61,469
-875,-62,472
-872,-61,468
-877,-64,473
-874,-59,468
-870,-64,469
-874,-59,474
-869,-59,470
-876,-62,475
-864,-60,474
-876,-66,473
-874,-61,472
-875,-62,468
-874,-63,473
-876,-62,472
-872,-61,473
-869,-62,471
-871,-64,474
-874,-65,474
-877,-61,473
-872,-63,471
-873,-62,468
-875,-56,470
-874,-65,469
-875,-60,468
-875,-64,466
-878,-65,467
-878,-65,466
-874,-61,463
-876,-63,465
-875,-59,465
-876,-62,464
-880,-62,462
-875,-60,466
-879,-62,465
-876,-61,465
-876,-60,467
-876,-61,470
-873,-62,467
-874,-65,472
-873,-60,470
-874,-63,470
-874,-61,471
-870,-60,470
-877,-61,470
-875,-58,471
-872,-58,476
-873,-65,473
-873,-62,476
-871,-60,472
-873,-58,471
-876,-58,469
-871,-62,471
-873,-60,474
-871,-64,473
-872,-57,475
-874,-63,474
-872,-63,474
-874,-59,472
-877,-61,473
-867,-65,472
-877,-60,478
-873,-60,474
-868,-62,471
-870,-65,474
-872,-65,471
-872,-63,468
-872,-65,470
-871,-63,469
-877,-63,470
-874,-65,467
-875,-63,468
-877,-63,468
-873,-64,461
-875,-64,467
-878,-62,468
-875,-63,467
-880,-62,465
-876,-63,462
-875,-63,466
-874,-66,469
-877,-62,468
-878,-61,468
-872,-59,470
-872,-62,471
-876,-62,473
-874,-64,471
-874,-59,471
-870,-58,468
-873,-57,471
-871,-63,470
-877,-57,470
-869,-61,472
-871,-59,473
-868,-59,475
-874,-61,475
-873,-59,472
-871,-61,470
-876,-60,474
-870,-60,470
-872,-60,473
-873,-61,471
-874,-60,472
-872,-62,474
-869,-61,476
-870,-59,472
-870,-61,472
-871,-62,473
-873,-64,472
-871,-62,476
-874,-59,474
-873,-58,475
-865,-60,477
-875,-66,472
-873,-64,475
-872,-62,472
-870,-62,473
-873,-62,472
-878,-60,471
-876,-63,468
-875,-61,464
-873,-66,466
-876,-65,468
-871,-58,468
-878,-64,467
-874,-59,465
-878,-62,466
-876,-64,465
-879,-65,466
-877,-60,465
-875,-67,466
-875,-61,466
-873,-63,465
-878,-61,466
-871,-68,465
-874,-64,468
-873,-62,469
-875,-60,469
-874,-63,474
-871,-66,472
-870,-63,472
-875,-59,473
-872,-59,473
-870,-63,472
-871,-57,471
-871,-63,468
-877,-63,471
-873,-59,472
-873,-63,478
-872,-63,476
-871,-66,469
-871,-61,475
-869,-60,476
-872,-62,475
-871,-59,475
-870,-62,478
-874,-59,476
-872,-61,473
-871,-59,474
-873,-59,476
-868,-63,470
-870,-63,469
-873,-59,473
-867,-62,477
-870,-69,475
-869,-63,477
-876,-60,471
-872,-64,473
-879,-64,470
-871,-64,469
-879,-59,472
-877,-67,472
-873,-61,471
-875,-63,466
-875,-62,467
-876,-64,468
-875,-64,467
-874,-62,468
-872,-58,467
-876,-61,466
-875,-64,469
-875,-62,467
-869,-64,466
-877,-62,467
-875,-60,469
-872,-63,468
-877,-62,474
-875,-63,472
-876,-64,470
-875,-61,470
-876,-62,472
-872,-64,474
-876,-62,473
-870,-61,471
-872,-62,475
-873,-60,469
-874,-63,473
-871,-59,473
-873,-65,470
-868,-58,469
-874,-57,475
-868,-62,471
-872,-60,479
-872,-60,477
-869,-62,469
-873,-62,471
-874,-61,475
-872,-62,475
-870,-59,477
-866,-61,473
-872,-61,473
-871,-64,479
-875,-62,473
-874,-61,470
-868,-62,474
-872,-59,472
-872,-64,471
-881,-62,470
-871,-63,469
-877,-64,470
-874,-60,466
-876,-63,468
-874,-64,465
-874,-64,463
-873,-64,463
-878,-62,465
-877,-65,466
-875,-61,467
-876,-63,464
-873,-61,466
-876,-64,467
-870,-63,468
-875,-64,466
-875,-61,466
-873,-65,471
-875,-60,470
-877,-59,470
-869,-61,471
-870,-64,472
-875,-61,472
-874,-61,471
-872,-61,472
-877,-59,472
-872,-61,472
-870,-60,474
-868,-58,473
-869,-65,473
-871,-62,472
-875,-62,473
-874,-65,474
-871,-58,473
-874,-60,477
-870,-58,474
-874,-64,474
-871,-61,472
-874,-61,476
-872,-61,473
-872,-63,473
-874,-59,474
-876,-62,474
-870,-62,476
-874,-62,474
-874,-62,475
-871,-58,472
-867,-58,479
-869,-59,473
-873,-61,475
-871,-61,479
-873,-61,472
-870,-63,474
-875,-63,472
-874,-59,473
-876,-65,470
-874,-62,473
-873,-63,472
-870,-63,470
-876,-59,472
-875,-62,468
-874,-63,467
-873,-65,470
-878,-62,467
-876,-67,464
-878,-63,466
-880,-65,468
-873,-62,466
-875,-61,468
-877,-61,467
-875,-59,467
-877,-64,470
-871,-62,468
-873,-63,470
-873,-63,468
-872,-62,474
-876,-65,471
-879,-64,471
-875,-61,472
-873,-59,476
-874,-63,473
-874,-61,474
-873,-61,476
-870,-63,473
-875,-64,476
-870,-62,472
-875,-61,474
-870,-60,473
-871,-61,473
-868,-61,472
-871,-63,472
-870,-63,478
-873,-64,475
-870,-58,474
-869,-58,472
-867,-61,474
-872,-64,474
-868,-61,475
-876,-64,469
-868,-66,474
-875,-65,477
-874,-62,471
-873,-60,470
-869,-62,469
-872,-60,470
-875,-62,467
-875,-60,465
-876,-62,466
-871,-63,468
-876,-65,465
-876,-60,465
-878,-59,465
-872,-64,467
-878,-63,463
-879,-66,465
-877,-62,467
-875,-65,467
-878,-61,468
-874,-60,468
-876,-62,468
-874,-66,471
-872,-63,470
-870,-58,472
-870,-59,473
-873,-64,470
-873,-63,472
-874,-57,473
-871,-59,475
-871,-59,472
-873,-62,471
-872,-60,471
-872,-58,471
-874,-63,475
-869,-65,474
-872,-62,475
-872,-64,475
-873,-59,475
-870,-62,475
-873,-60,473
-873,-60,474
-872,-63,477
-874,-62,474
-869,-65,474
-868,-61,472
-873,-63,473
-869,-62,476
-867,-61,476
-872,-62,474
-874,-64,476
-874,-64,474
-872,-62,475
-869,-64,471
-872,-67,470
-875,-60,471
-873,-64,471
-876,-63,470
-872,-62,472
-880,-64,470
-874,-62,468
-872,-63,465
-876,-63,468
-878,-61,464
-877,-66,466
-876,-58,468
-880,-62,466
-875,-64,463
-877,-59,467
-876,-60,467
-877,-61,468
-874,-63,465
-874,-64,468
-870,-62,471
-872,-62,468
-873,-63,470
-874,-62,471
-871,-65,471
-873,-64,474
-873,-64,472
-867,-61,477
-869,-61,475
-869,-60,477
-870,-63,472
-870,-61,473
-872,-62,475
-868,-60,475
-872,-58,471
-874,-60,474
-873,-63,473
-869,-62,471
-871,-62,474
-875,-61,472
-872,-64,475
-873,-62,474
-866,-61,476
-869,-61,475
-871,-60,468
-871,-62,473
-872,-61,476
-868,-63,473
-872,-61,473
-873,-63,474
-874,-63,475
-874,-62,477
-871,-64,474
-869,-63,474
-869,-62,473
-875,-64,474
-874,-60,472
-874,-65,470
-875,-63,469
-875,-62,468
-870,-61,469
-875,-63,469
-875,-63,470
-874,-65,466
-873,-63,467
-875,-66,466
-872,-62,465
-876,-62,467
-876,-64,465
-879,-63,468
-875,-66,466
-875,-61,467
-875,-59,463
-877,-59,465
-872,-61,468
-875,-64,474
-875,-62,468
-878,-60,475
-876,-59,471
-872,-61,475
-871,-63,473
-870,-61,472
-877,-62,474
-870,-61,470
-870,-61,474
-874,-63,477
-870,-63,475
-871,-62,473
-870,-62,477
-873,-59,473
-874,-60,476
-871,-63,476
-875,-62,473
-875,-62,476
-874,-63,477
-870,-62,474
-871,-64,474
-872,-61,474
-873,-68,474
-875,-57,477
-875,-58,477
-872,-65,474
-872,-59,477
-875,-61,472
-872,-62,472
-873,-59,468
-875,-62,468
-875,-64,471
-875,-63,470
-873,-65,469
-875,-61,470
-874,-64,468
-870,-60,465
-877,-62,466
-877,-63,465
-874,-60,466
-877,-62,467
-876,-60,468
-881,-62,467
-873,-62,465
-871,-63,469
-875,-65,469
-875,-65,468
-877,-59,469
-877,-59,472
-871,-63,471
-878,-64,475
-874,-62,473
-875,-61,471
-871,-62,475
-871,-61,476
-871,-57,479
-874,-62,475
-870,-58,473
-868,-61,476
-870,-62,473
-872,-62,474
-871,-61,472
-871,-63,477
-866,-56,475
-874,-59,474
-874,-60,475
-869,-60,475
-872,-64,476
-868,-62,471
-873,-59,475
-867,-63,474
-872,-63,477
-873,-63,476
-873,-62,478
-869,-61,476
-870,-63,477
-870,-64,475
-874,-63,469
-873,-61,473
-870,-63,472
-874,-64,472
-875,-62,469
-872,-69,469
-874,-62,467
-878,-59,468
-876,-63,468
-874,-61,466
-875,-63,466
-876,-62,465
-874,-61,466
-878,-63,466
-877,-61,468
-874,-60,466
-877,-60,471
-873,-64,469
-875,-62,468
-876,-65,471
-872,-63,467
-874,-63,472
-873,-63,472
-874,-66,472
-872,-63,475
-870,-60,472
-872,-62,473
-875,-60,473
-872,-59,473
-876,-60,471
-869,-59,475
-873,-62,476
-871,-62,473
-869,-58,475
-872,-61,475
-868,-62,478
-873,-64,474
-871,-63,479
-864,-61,475
-870,-65,474
-872,-62,477
-868,-62,478
-870,-64,475
-872,-62,475
-874,-61,477
-872,-60,476
-875,-60,478
-867,-63,474
-865,-63,478
-871,-60,479
-872,-64,477
-871,-66,474
-876,-64,470
-878,-63,472
-876,-63,470
-876,-63,467
-875,-62,468
-871,-67,468
-878,-62,469
-877,-64,467
-876,-63,471
-875,-63,468
-880,-60,464
-874,-61,468
-875,-61,466
-874,-62,468
-880,-60,465
-874,-61,467
-875,-62,468
-871,-65,471
-872,-62,471
-871,-64,469
-874,-64,472
-874,-60,476
-873,-59,473
-875,-65,475
-873,-60,475
-869,-63,474
-871,-64,473
-872,-61,475
-871,-61,475
-868,-63,475
-874,-65,476
-867,-65,471
-871,-62,480
-871,-59,475
-871,-66,474
-872,-66,477
-874,-69,480
-869,-59,477
-871,-60,477
-875,-61,475
-870,-65,472
-867,-67,475
-871,-63,470
-876,-63,473
-873,-62,471
-874,-61,468
-875,-64,470
-875,-60,464
-872,-61,468
-880,-61,466
-874,-61,468
-880,-64,464
-874,-62,468
-875,-64,467
-878,-59,467
-875,-61,467
-873,-61,472
-871,-59,473
-870,-66,472
-880,-64,474
-871,-62,471
-876,-60,470
-869,-62,475
-875,-60,476
-871,-62,475
-871,-57,475
-873,-63,477
-874,-62,473
-876,-60,477
-873,-63,474
-868,-64,475
-872,-65,475
-869,-62,475
-869,-65,478
-872,-61,475
-869,-60,472
-869,-62,473
-872,-62,473
-873,-58,475
-874,-61,475
-871,-62,477
-872,-60,475
-870,-61,475
-876,-64,474
-873,-61,476
-876,-58,472
-876,-60,471
-876,-63,471
-874,-63,467
-875,-63,466
-873,-61,466
-879,-65,469
-878,-63,465
-875,-61,466
-873,-62,469
-872,-62,469
-878,-58,465
-874,-59,467
-880,-63,466
-875,-62,467
-872,-58,470
-875,-62,471
-875,-61,470
-871,-60,474
-873,-60,471
-868,-59,470
-871,-59,473
-873,-64,471
-873,-60,475
-869,-60,479
-871,-62,479
-872,-61,477
-871,-59,472
-873,-59,474
-867,-65,472
-876,-63,475
-871,-63,477
-868,-63,474
-867,-55,471
-869,-63,472
-868,-63,476
-870,-63,474
-870,-64,478
-876,-66,474
-872,-64,474
-873,-64,476
-870,-63,477
-873,-65,470
-869,-67,472
-871,-62,473
-873,-62,470
-873,-66,469
-870,-63,470
-875,-58,468
-872,-64,467
-873,-66,469
-875,-63,468
-878,-61,467
-877,-61,470
-874,-62,468
-876,-62,468
-875,-61,465
-875,-63,468
-875,-67,469
-875,-63,466
-875,-65,468
-870,-62,470
-872,-60,473
-874,-63,471
-875,-60,474
-870,-60,474
-871,-62,471
-875,-61,472
-872,-60,473
-870,-59,473
-875,-62,474
-872,-61,475
-870,-60,475
-872,-62,473
-868,-62,475
-871,-62,476
-869,-60,479
-873,-61,476
-869,-63,478
-873,-60,476
-870,-60,477
-875,-62,475
-871,-57,476
-873,-62,477
-871,-61,476
-866,-61,472
-872,-66,477
-867,-61,475
-874,-59,474
-868,-59,476
-873,-63,475
-875,-57,477
-875,-60,471
-868,-62,472
-873,-62,477
-876,-61,474
-873,-64,472
-875,-64,472
-873,-66,470
-878,-66,472
-875,-61,471
-873,-59,466
-873,-63,472
-874,-61,470
-879,-61,467
-877,-61,466
-875,-58,465
-879,-57,468
-875,-61,469
-874,-63,473
-869,-59,469
-871,-63,472
-874,-61,470
-870,-61,471
-870,-61,470
-873,-59,472
-875,-60,472
-870,-58,469
-871,-63,475
-872,-60,473
-875,-60,475
-868,-58,474
-872,-63,472
-874,-58,473
-869,-63,474
-871,-59,475
-874,-60,471
-871,-62,476
-873,-58,477
-871,-59,473
-873,-65,477
-870,-57,471
-870,-57,478
-870,-62,477
-869,-60,476
-872,-63,475
-871,-62,477
-865,-58,473
-871,-61,474
-873,-63,476
-873,-60,472
-870,-65,472
-872,-62,473
-872,-59,475
-872,-58,467
-875,-65,471
-874,-62,471
-875,-66,470
-871,-61,473
-877,-59,472
-868,-62,471
-872,-63,468
-870,-63,465
-875,-58,464
-875,-58,465
-871,-60,469
-874,-64,466
-876,-62,468
-875,-61,469
-869,-61,470
-869,-60,470
-873,-59,470
-871,-64,470
-875,-59,478
-874,-61,473
-864,-63,475
-874,-61,473
-870,-60,471
-869,-61,472
-871,-61,475
-868,-59,475
-870,-61,474
-869,-64,478
-871,-61,473
-875,-60,474
-870,-61,472
-871,-61,479
-871,-62,477
-870,-60,473
-874,-61,475
-869,-66,474
-869,-62,476
-869,-62,477
-867,-55,475
-868,-61,476
-872,-61,476
-862,-62,474
-873,-61,475
-870,-59,475
-871,-63,474
-869,-62,477
-872,-65,472
-875,-64,469
-872,-64,472
-872,-61,469
-871,-62,471
-874,-61,470
-875,-59,471
-877,-64,468
-873,-62,470
-875,-64,467
-872,-62,468
-873,-58,467
-873,-62,466
-877,-60,465
-874,-66,465
-873,-66,467
-875,-61,469
-877,-59,470
-872,-59,471
-872,-61,472
-873,-58,474
-871,-63,471
-875,-61,470
-876,-62,474
-876,-58,472
-869,-63,471
-875,-60,473
-873,-60,475
-875,-58,471
-870,-63,473
-869,-60,474
-875,-61,473
-872,-62,475
-870,-61,474
-875,-60,477
-869,-60,474
-866,-64,474
-870,-64,478
-869,-60,475
-871,-59,478
-869,-64,475
-867,-60,473
-872,-55,475
-874,-58,476
-873,-61,474
-867,-57,475
-870,-61,475
-871,-59,473
-872,-60,473
-873,-62,476
-873,-57,476
-872,-62,477
-869,-59,478
-871,-64,477
-873,-61,475
-872,-62,473
-870,-62,474
-868,-61,472
-867,-63,474
-871,-61,469
-875,-61,470
-875,-63,469
-874,-62,470
-873,-62,470
-877,-58,465
-877,-62,471
-874,-62,469
-876,-60,469
-875,-62,465
-869,-61,466
-873,-63,469
-876,-62,467
-878,-62,470
-871,-60,472
-873,-63,473
-874,-61,473
-874,-62,475
-866,-58,473
-871,-62,473
-875,-55,474
-871,-60,474
-871,-62,474
-870,-60,475
-877,-63,478
-873,-62,473
-867,-64,477
-866,-59,474
-864,-59,477
-868,-62,476
-873,-61,476
-870,-62,476
-870,-64,475
-869,-57,476
-871,-62,474
-862,-62,474
-874,-60,473
-872,-61,474
-871,-61,475
-874,-62,479
-874,-62,476
-871,-58,475
-870,-63,477
-875,-60,479
-873,-62,476
-865,-59,471
-872,-64,475
-872,-64,476
-870,-61,474
-876,-62,474
-873,-63,474
-868,-65,466
-870,-65,472
-875,-66,470
-872,-59,466
-871,-59,472
-873,-62,471
-874,-60,466
-875,-64,467
-872,-62,471
-876,-65,465
-873,-64,468
-870,-63,465
-872,-61,472
-873,-61,470
-875,-62,474
-871,-64,470
-871,-61,469
-876,-60,471
-876,-62,470
-867,-65,473
-875,-59,472
-873,-56,476
-870,-57,475
-870,-61,472
-869,-60,472
-874,-63,472
-866,-59,477
-875,-62,475
-870,-58,477
-871,-61,478
-872,-60,477
-873,-64,479
-871,-63,480
-871,-58,476
-874,-60,478
-865,-57,477
-869,-60,481
-868,-61,478
-871,-57,478
-868,-59,478
-868,-63,479
-868,-59,480
-869,-64,479
-875,-62,478
-870,-64,476
-871,-60,476
-868,-63,478
-869,-63,478
-873,-67,477
-870,-61,475
-873,-63,475
-875,-57,472
-870,-56,471
-873,-63,468
-870,-64,474
-868,-60,471
-869,-64,472
-875,-61,468
-871,-60,470
-874,-62,470
-874,-55,468
-875,-66,468
-872,-61,469
-879,-61,466
-876,-62,468
-870,-62,470
-871,-58,471
-870,-61,476
-874,-60,475
-874,-60,471
-874,-61,473
-871,-60,474
-878,-56,476
-871,-62,472
-870,-59,479
-873,-61,476
-872,-59,477
-868,-58,476
-872,-61,480
-871,-64,474
-864,-60,478
-871,-62,478
-872,-58,475
-868,-54,479
-871,-60,476
-869,-59,477
-874,-59,479
-874,-62,478
-866,-61,477
-870,-58,479
-864,-62,481
-868,-59,477
-870,-62,479
-869,-57,476
-869,-58,474
-869,-60,475
-870,-62,476
-874,-63,472
-872,-58,473
-876,-62,469
-870,-60,467
-870,-64,468
-874,-62,474
-868,-62,469
-875,-55,470
-871,-62,468
-873,-61,468
-875,-59,469
-872,-62,471
-877,-60,467
-876,-61,470
-871,-59,473
-870,-58,473
-873,-58,473
-875,-58,472
-872,-56,471
-871,-57,472
-871,-61,474
-870,-59,478
-870,-59,474
-870,-62,479
-872,-60,477
-871,-60,475
-871,-59,475
-866,-54,477
-872,-60,477
-869,-58,480
-869,-63,477
-873,-59,479
-865,-60,482
-867,-59,478
-868,-64,480
-868,-60,477
-868,-59,479
-872,-54,476
-869,-60,483
-868,-60,480
-869,-57,476
-869,-62,476
-872,-61,482
-871,-61,474
-873,-61,477
-873,-61,475
-875,-58,474
-865,-61,475
-871,-63,469
-872,-55,473
-877,-57,476
-870,-62,470
-875,-58,473
-875,-63,471
-875,-63,470
-876,-59,469
-874,-58,469
-875,-59,469
-871,-56,472
-877,-64,476
-866,-60,476
-873,-62,472
-873,-58,473
-871,-63,474
-871,-62,469
-874,-57,470
-873,-61,475
-872,-59,471
-871,-63,479
-869,-59,477
-874,-61,477
-869,-60,477
-872,-61,473
-870,-62,477
-870,-59,477
-870,-60,479
-869,-61,478
-868,-60,477
-869,-59,478
-869,-62,476
-868,-59,479
-868,-62,478
-873,-62,476
-870,-61,475
-868,-61,480
-871,-60,477
-863,-61,480
-868,-60,482
-869,-58,476
-868,-62,479
-867,-63,478
-868,-58,477
-872,-62,476
-864,-62,477
-867,-56,475
-870,-61,475
-869,-64,471
-871,-64,472
-877,-62,474
-870,-66,473
-873,-60,470
-870,-58,469
-873,-64,469
-876,-60,468
-875,-59,469
-872,-61,468
-874,-62,470
-872,-55,469
-871,-60,470
-871,-56,472
-871,-58,472
-868,-59,477
-871,-58,474
-872,-63,476
-877,-56,475
-870,-59,477
-871,-58,476
-867,-59,477
-867,-59,476
-868,-62,475
-870,-60,478
-868,-61,475
-868,-63,481
-869,-61,476
-866,-60,480
-867,-62,480
-867,-60,479
-869,-62,477
-873,-56,479
-865,-58,480
-868,-56,477
-868,-58,478
-864,-57,478
-872,-60,479
-862,-63,477
-869,-62,479
-868,-59,479
-869,-53,479
-869,-62,478
-864,-59,475
-872,-59,477
-868,-62,477
-867,-60,481
-871,-64,477
-873,-58,479
-867,-61,476
-870,-60,472
-867,-60,473
-871,-59,472
-874,-60,469
-875,-59,473
-872,-61,469
-875,-62,469
-869,-62,467
-873,-60,468
-871,-58,468
-872,-62,471
-873,-57,474
-870,-60,471
-869,-60,469
-870,-61,474
-871,-57,476
-873,-55,477
-870,-58,474
-870,-60,477
-869,-60,475
-872,-54,476
-865,-55,475
-871,-59,480
-869,-58,475
-872,-57,480
-869,-60,477
-873,-58,477
-872,-61,477
-866,-56,478
-869,-60,476
-872,-62,482
-871,-61,478
-871,-60,477
-872,-53,478
-872,-59,481
-865,-57,479
-870,-59,479
-872,-55,481
-871,-65,475
-867,-61,481
-875,-60,482
-871,-59,479
-867,-67,474
-867,-62,479
-867,-61,477
-871,-63,478
-872,-61,475
-869,-63,476
-873,-62,475
-873,-62,475
-874,-62,471
-870,-63,472
-873,-63,474
-874,-62,469
-875,-63,470
-875,-59,469
-877,-64,469
-870,-59,467
-871,-63,471
-874,-61,468
-875,-58,469
-874,-63,472
-874,-57,471
-873,-57,472
-870,-62,473
-874,-60,473
-870,-63,476
-869,-61,475
-869,-62,472
-868,-60,476
-875,-62,478
-872,-59,476
-868,-63,475
-868,-62,478
-869,-59,478
-868,-61,478
-866,-60,474
-873,-58,476
-870,-56,479
-870,-57,480
-869,-61,481
-872,-59,477
-867,-59,477
-869,-61,478
-868,-57,476
-868,-59,480
-868,-59,477
-865,-58,480
-871,-59,480
-871,-62,481
-869,-59,478
-864,-59,480
-872,-58,478
-867,-61,478
-868,-57,476
-868,-58,479
-872,-62,477
-869,-60,477
-870,-61,480
-869,-62,478
-868,-59,478
-867,-62,477
-869,-61,473
-873,-61,476
-873,-62,471
-874,-61,477
-870,-59,469
-868,-59,472
-873,-60,470
-873,-61,469
-873,-63,468
-877,-56,469
-875,-59,467
-878,-65,473
-873,-62,470
-875,-62,474
-874,-55,470
-870,-57,476
-872,-61,476
-870,-57,475
-873,-63,475
-872,-59,473
-872,-62,474
-869,-62,478
-866,-60,477
-872,-58,479
-865,-62,479
-866,-58,478
-863,-58,479
-870,-59,481
-868,-57,479
-870,-60,479
-867,-55,480
-867,-62,479
-867,-60,475
-866,-64,476
-872,-62,484
-872,-62,478
-868,-63,480
-869,-60,480
-873,-57,477
-868,-60,477
-870,-61,477
-863,-62,479
-872,-59,475
-867,-60,480
-873,-61,474
-870,-63,475
-870,-61,474
-864,-62,477
-868,-64,474
-871,-62,471
-875,-61,476
-869,-63,474
-876,-63,472
-874,-58,472
-872,-65,471
-874,-57,474
-873,-59,469
-872,-64,468
-872,-61,471
-874,-60,472
-874,-59,471
-875,-62,473
-874,-60,475
-875,-65,474
-869,-59,476
-871,-59,476
-866,-62,474
-869,-62,478
-871,-58,475
-868,-58,477
-869,-57,476
-866,-59,477
-867,-60,479
-872,-59,475
-875,-61,480
-872,-61,480
-871,-64,477
-868,-57,482
-868,-57,477
-865,-58,478
-871,-59,479
-865,-60,481
-867,-57,479
-870,-62,479
-866,-58,480
-872,-58,479
-872,-60,483
-864,-59,479
-870,-62,480
-873,-55,480
-872,-61,479
-869,-60,479
-867,-61,479
-869,-60,478
-871,-61,478
-868,-59,477
-869,-64,478
-871,-59,476
-868,-64,470
-873,-62,474
-872,-59,470
-872,-60,475
-867,-58,475
-874,-66,469
-871,-62,471
-872,-60,469
-873,-59,470
-874,-62,470
-874,-62,467
-873,-58,467
-872,-59,469
-874,-60,469
-877,-61,472
-872,-57,477
-868,-60,475
-877,-61,472
-870,-64,475
-873,-62,473
-875,-63,474
-867,-57,480
-875,-64,475
-872,-62,475
-870,-57,478
-869,-62,481
-868,-61,475
-871,-60,479
-866,-62,479
-868,-57,479
-864,-56,480
-867,-62,475
-870,-64,480
-868,-59,475
-868,-58,477
-867,-62,477
-870,-63,480
-868,-63,479
-866,-61,481
-867,-62,479
-871,-60,477
-872,-64,479
-867,-64,481
-869,-61,480
-864,-58,478
-866,-60,477
-869,-65,479
-867,-63,477
-870,-60,479
-869,-59,475
-874,-61,476
-874,-59,476
-875,-65,472
-874,-58,474
-873,-61,472
-871,-59,473
-871,-57,468
-874,-58,470
-876,-58,471
-874,-57,470
-868,-59,470
-874,-63,472
-872,-59,470
-873,-61,473
-875,-62,474
-867,-58,479
-874,-62,474
-869,-60,475
-871,-60,474
-868,-60,476
-871,-61,476
-873,-61,475
-874,-61,475
-874,-62,478
-869,-60,478
-866,-59,476
-871,-58,477
-864,-63,479
-872,-60,482
-869,-58,480
-870,-60,478
-867,-57,481
-870,-63,475
-868,-57,480
-868,-59,480
-865,-58,479
-866,-60,480
-870,-58,479
-871,-63,478
-868,-60,478
-868,-60,479
-873,-61,480
-865,-61,479
-868,-61,478
-868,-62,477
-872,-62,475
-869,-66,476
-875,-65,474
-877,-61,473
-869,-57,475
-873,-62,471
-869,-61,471
-872,-60,473
-870,-62,471
-870,-62,475
-875,-57,469
-875,-59,470
-871,-63,470
-869,-61,470
-872,-57,472
-871,-63,474
-872,-56,474
-869,-62,473
-873,-60,477
-870,-57,475
-874,-62,477
-871,-63,480
-870,-61,473
-868,-58,476
-869,-58,479
-865,-59,478
-871,-59,477
-869,-59,479
-868,-57,482
-873,-62,476
-870,-61,483
-871,-59,481
-867,-61,481
-862,-62,480
-869,-58,481
-869,-60,479
-870,-62,479
-869,-62,477
-871,-61,479
-870,-59,482
-865,-61,476
-872,-63,480
-865,-62,479
-869,-63,479
-867,-59,480
-869,-58,479
-873,-58,477
-872,-64,475
-872,-63,476
-871,-62,471
-874,-58,471
-875,-64,473
-873,-61,473
-872,-64,469
-874,-62,471
-869,-61,471
-872,-58,469
-875,-63,468
-874,-61,472
-871,-61,473
-872,-59,469
-874,-59,468
-873,-61,469
-871,-58,471
-871,-61,471
-871,-60,476
-870,-59,475
-873,-59,477
-870,-59,476
-875,-54,476
-874,-63,478
-872,-62,474
-871,-60,476
-872,-59,479
-869,-61,476
-867,-58,479
-868,-62,478
-869,-61,480
-864,-64,477
-869,-61,480
-867,-61,480
-870,-62,479
-872,-60,479
-867,-61,481
-868,-62,477
-871,-56,481
-863,-61,478
-869,-60,477
-865,-56,479
-864,-61,479
-868,-64,482
-869,-63,478
-870,-57,483
-865,-62,476
-872,-64,475
-872,-57,474
-869,-59,473
-872,-63,472
-868,-60,474
-875,-62,473
-871,-61,469
-873,-62,470
-869,-59,468
-877,-59,469
-871,-61,468
-876,-61,470
-874,-65,468
-876,-59,471
-877,-60,468
-872,-55,473
-869,-56,473
-870,-58,473
-869,-56,473
-867,-61,474
-864,-59,477
-869,-64,476
-875,-58,478
-869,-63,477
-867,-56,471
-871,-61,478
-869,-58,476
-869,-63,478
-865,-58,476
-869,-59,479
-865,-56,478
-870,-61,479
-870,-56,479
-867,-58,479
-874,-61,478
-872,-56,477
-864,-59,481
-870,-62,478
-866,-57,479
-868,-62,478
-867,-60,481
-868,-64,480
-868,-61,479
-870,-61,480
-864,-60,480
-870,-58,479
-868,-59,476
-869,-60,476
-875,-64,474
-869,-62,472
-869,-62,477
-870,-57,472
-873,-62,473
-874,-62,474
-874,-62,470
-870,-60,468
-874,-63,472
-870,-61,474
-873,-60,473
-871,-64,468
-871,-59,469
-871,-59,467
-872,-59,474
-872,-59,470
-873,-62,472
-875,-61,474
-870,-67,473
-869,-62,477
-869,-59,476
-871,-60,475
-870,-61,479
-870,-59,479
-874,-62,480
-870,-58,480
-869,-55,479
-869,-58,480
-865,-56,480
-864,-60,480
-872,-61,478
-869,-62,480
-868,-63,480
-870,-60,480
-867,-58,478
-869,-62,479
-867,-62,479
-873,-63,480
-870,-58,483
-869,-62,479
-869,-62,478
-870,-59,479
-867,-61,477
-875,-61,481
-871,-62,480
-871,-63,479
-869,-63,479
-867,-62,477
-870,-60,477
-875,-62,476
-873,-61,472
-872,-60,472
-868,-60,471
-871,-61,474
-872,-62,471
-873,-58,470
-875,-58,473
-869,-64,469
-873,-58,470
-869,-58,471
-875,-63,469
-875,-60,471
-874,-59,471
-876,-60,470
-873,-60,473
-873,-60,476
-867,-60,472
-870,-61,478
-873,-57,479
-869,-57,476
-870,-57,478
-869,-57,478
-868,-62,478
-864,-59,479
-870,-60,478
-865,-57,478
-870,-58,476
-872,-57,480
-870,-62,478
-872,-60,483
-869,-60,479
-866,-59,478
-870,-62,479
-866,-62,480
-870,-60,478
-867,-58,477
-869,-62,478
-868,-63,478
-875,-63,479
-867,-54,482
-870,-57,480
-873,-50,480
-867,-59,478
-867,-63,479
-868,-64,477
-873,-58,477
-870,-63,474
-871,-64,475
-872,-62,474
-872,-61,474
-870,-61,474
-877,-64,470
-873,-62,466
-873,-61,474
-870,-60,473
-875,-59,471
-873,-58,469
-873,-62,473
-874,-63,473
-871,-63,472
-871,-60,474
-871,-62,473
-870,-60,475
-871,-56,474
-867,-57,476
-870,-58,475
-870,-57,476
-864,-63,478
-865,-62,477
-871,-57,475
-868,-57,483
-869,-60,478
-868,-59,479
-872,-55,481
-869,-63,480
-868,-59,476
-868,-62,478
-867,-60,486
-865,-60,481
-870,-61,478
-868,-59,483
-866,-60,477
-870,-61,480
-868,-58,479
-870,-60,482
-869,-58,480
-869,-59,479
-868,-60,476
-866,-63,477
-870,-59,475
-872,-65,476
-869,-63,474
-870,-61,475
-870,-61,474
-871,-59,473
-873,-59,474
-872,-61,473
-875,-61,472
-874,-56,468
-873,-60,472
-875,-61,468
-874,-55,471
-872,-56,474
-870,-59,470
-872,-60,473
-871,-57,471
-872,-58,475
-875,-63,475
-865,-58,479
-872,-60,475
-873,-62,477
-871,-57,479
-863,-59,475
-867,-59,475
-873,-60,478
-872,-59,479
-874,-59,482
-871,-61,479
-866,-61,479
-870,-55,482
-864,-61,478
-867,-61,482
-867,-58,479
-870,-60,477
-868,-57,479
-864,-62,480
-869,-61,476
-864,-57,487
-868,-62,476
-868,-59,482
-870,-63,482
-870,-59,476
-869,-58,482
-869,-59,480
-867,-63,477
-870,-60,475
-868,-59,477
-868,-63,476
-870,-59,474
-872,-58,476
-873,-65,472
-867,-56,473
-873,-56,474
-872,-61,473
-870,-61,472
-871,-64,472
-877,-60,474
-875,-58,468
-872,-58,468
-872,-55,468
-872,-65,467
-876,-59,470
-876,-63,470
-868,-62,475
-868,-61,475
-869,-58,474
-869,-61,475
-870,-59,475
-874,-64,474
-869,-57,481
-868,-62,480
-870,-58,477
-871,-61,477
-867,-59,480
-867,-61,475
-872,-59,480
-869,-61,482
-871,-59,480
-869,-58,479
-866,-58,480
-873,-60,481
-869,-59,476
-867,-56,480
-863,-62,479
-869,-61,474
-874,-64,480
-868,-60,476
-869,-59,483
-870,-63,482
-866,-59,478
-868,-63,479
-867,-58,478
-865,-60,478
-868,-60,477
-866,-59,474
-875,-60,477
-868,-61,475
-867,-60,475
-869,-62,472
-869,-63,474
-873,-59,473
-870,-61,468
-874,-61,471
-868,-62,472
-871,-63,469
-875,-60,470
-878,-62,471
-878,-60,470
-873,-59,472
-871,-62,475
-875,-61,476
-875,-59,471
-868,-59,477
-873,-61,475
-869,-57,474
-870,-58,479
-869,-61,476
-870,-65,476
-873,-59,479
-867,-55,476
-869,-57,480
-875,-57,479
-866,-59,479
-870,-62,476
-868,-61,481
-868,-57,476
-869,-60,479
-863,-57,481
-871,-62,478
-870,-59,481
-869,-57,479
-869,-57,479
-864,-60,481
-869,-60,478
-865,-60,483
-870,-63,481
-872,-62,478
-871,-60,484
-870,-60,482
-869,-61,481
-862,-61,480
-868,-58,479
-873,-61,475
-872,-66,477
-873,-64,470
-868,-63,479
-871,-61,476
-875,-60,473
-873,-63,474
-870,-67,473
-868,-62,472
-877,-57,472
-871,-61,469
-874,-60,469
-874,-59,470
-870,-61,471
-869,-60,468
-868,-59,469
-876,-60,472
-873,-62,476
-872,-57,472
-873,-59,478
-870,-58,476
-874,-58,477
-868,-60,479
-874,-55,475
-868,-56,478
-870,-62,476
-870,-56,477
-867,-58,480
-866,-57,478
-868,-60,478
-873,-60,481
-871,-63,482
-868,-61,479
-872,-59,481
-869,-58,477
-863,-59,478
-873,-59,479
-871,-58,479
-869,-62,478
-868,-60,477
-871,-62,480
-868,-61,480
-867,-60,481
-865,-56,479
-868,-55,485
-867,-57,476
-867,-60,480
-866,-58,479
-867,-56,478
-864,-55,479
-864,-58,476
-870,-62,477
-868,-58,474
-870,-59,477
-870,-59,475
-872,-57,471
-873,-62,474
-874,-56,468
-869,-60,472
-872,-63,473
-872,-61,471
-875,-66,472
-873,-61,468
-874,-62,470
-872,-60,473
-872,-59,472
-872,-62,470
-871,-54,474
-869,-62,473
-875,-54,474
-868,-58,476
-871,-63,476
-871,-59,478
-871,-61,474
-870,-60,481
-871,-58,478
-870,-56,479
-866,-58,478
-863,-54,480
-869,-58,477
-869,-55,479
-866,-62,479
-873,-58,478
-874,-60,482
-868,-57,479
-867,-59,480
-865,-56,480
-870,-59,478
-869,-56,482
-872,-59,479
-871,-57,479
-864,-58,483
-871,-56,479
-869,-63,479
-873,-60,480
-869,-59,476
-871,-52,482
-870,-60,480
-863,-61,477
-872,-59,479
-866,-62,477
-867,-57,474
-873,-60,475
-870,-62,474
-869,-58,472
-872,-64,474
-871,-65,474
-873,-61,471
-875,-65,470
-871,-59,471
-876,-59,474
-872,-63,469
-869,-58,468
-877,-59,475
-872,-57,474
-871,-61,473
-871,-61,476
-874,-59,473
-870,-59,476
-867,-62,479
-873,-62,477
-876,-62,474
-868,-59,481
-872,-59,477
-868,-58,479
-869,-61,476
-867,-57,478
-871,-58,481
-868,-58,477
-868,-60,479
-867,-59,478
-868,-59,479
-866,-58,477
-867,-60,482
-868,-58,475
-867,-61,480
-868,-57,482
-871,-62,479
-868,-59,481
-871,-58,479
-866,-59,475
-864,-63,480
-867,-62,482
-869,-60,480
-866,-64,482
-867,-58,478
-866,-60,481
-867,-59,481
-872,-63,481
-869,-60,478
-871,-63,479
-869,-61,475
-868,-56,475
-871,-60,473
-864,-61,476
-872,-57,475
-872,-62,475
-872,-58,471
-874,-60,471
-875,-62,470
-869,-59,468
-872,-58,471
-865,-64,472
-871,-59,474
-871,-60,474
-874,-60,471
-871,-65,475
-873,-59,473
-876,-62,478
-871,-60,477
-867,-59,479
-872,-62,478
-869,-58,475
-869,-62,481
-871,-60,481
-866,-58,481
-868,-58,479
-869,-62,479
-870,-61,478
-868,-60,478
-867,-64,480
-868,-59,479
-868,-60,476
-871,-58,480
-877,-49,478
-867,-62,480
-870,-61,478
-870,-60,480
-869,-62,484
-871,-59,479
-863,-54,474
-867,-57,478
-866,-60,482
-872,-57,481
-863,-62,480
-869,-58,482
-864,-54,480
-866,-61,481
-865,-59,480
-877,-60,477
-871,-62,475
-872,-59,480
-870,-60,478
-873,-55,477
-870,-58,476
-870,-58,475
-874,-59,472
-873,-62,474
-870,-64,474
-873,-63,468
-871,-61,471
-871,-58,469
-871,-57,469
-874,-54,472
-872,-60,471
-872,-62,470
-870,-58,471
-875,-62,473
-871,-58,473
-875,-63,477
-865,-56,480
-869,-56,477
-867,-61,477
-874,-60,481
-867,-58,479
-869,-57,480
-869,-61,479
-869,-62,480
-863,-58,479
-869,-59,482
-868,-58,479
-872,-60,477
-871,-60,481
-868,-62,479
-869,-56,482
-865,-61,482
-866,-59,481
-871,-63,477
-865,-61,483
-868,-61,479
-866,-60,480
-870,-61,480
-867,-57,482
-872,-60,481
-866,-61,479
-866,-59,483
-870,-61,481
-872,-64,480
-869,-64,480
-872,-62,476
-870,-61,480
-871,-59,475
-871,-61,478
-873,-58,474
-872,-64,474
-871,-59,474
-871,-58,475
-869,-59,474
-874,-61,474
-871,-61,475
-872,-62,470
-872,-57,468
-871,-61,469
-868,-61,469
-874,-61,470
-871,-62,473
-875,-62,476
-874,-61,472
-873,-62,475
-872,-58,475
-869,-60,474
-865,-62,479
-870,-62,474
-867,-54,478
-866,-58,478
-866,-59,475
-868,-58,479
-865,-53,478
-869,-59,480
-869,-61,476
-873,-59,480
-865,-64,477
-871,-52,480
-870,-65,480
-873,-62,478
-870,-63,482
-870,-60,480
-870,-57,480
-865,-59,480
-868,-60,481
-871,-59,479
-868,-62,478
-868,-60,480
-870,-58,478
-873,-61,483
-863,-61,479
-868,-62,481
-868,-64,478
-867,-60,480
-872,-64,481
-873,-58,474
-868,-59,476
-869,-60,477
-870,-60,474
-871,-60,473
-875,-62,473
-872,-62,471
-871,-58,474
-872,-62,473
-874,-63,470
-871,-57,471
-873,-58,474
-873,-63,473
-872,-62,472
-872,-58,473
-868,-62,473
-877,-61,476
-871,-61,476
-875,-60,476
-867,-58,481
-869,-62,475
-869,-60,473
-869,-62,475
-870,-59,480
-868,-60,480
-866,-60,480
-868,-59,482
-868,-62,478
-871,-59,480
-868,-62,479
-869,-57,479
-863,-58,481
-867,-61,480
-867,-61,479
-871,-60,480
-865,-58,478
-870,-61,481
-869,-61,479
-870,-63,481
-869,-59,480
-865,-63,483
-861,-65,473
-868,-61,482
-869,-61,480
-865,-61,484
-869,-63,482
-866,-60,479
-872,-63,476
-866,-60,481
-870,-62,478
-869,-64,474
-874,-57,473
-870,-58,474
-873,-62,473
-870,-61,477
-872,-63,475
-875,-57,474
-871,-61,471
-875,-62,473
-871,-60,470
-870,-60,470
-874,-60,469
-875,-56,470
-874,-61,473
-875,-62,474
-871,-59,476
-870,-59,474
-870,-64,478
-874,-58,477
-870,-56,480
-873,-61,479
-868,-59,480
-868,-62,478
-869,-59,478
-868,-60,475
-863,-60,475
-867,-63,478
-869,-56,483
-867,-61,478
-868,-61,482
-866,-58,485
-864,-58,477
-864,-61,482
-866,-58,484
-868,-56,482
-869,-61,483
-868,-61,479
-869,-58,477
-873,-58,481
-869,-62,479
-871,-64,478
-867,-63,475
-871,-60,479
-867,-62,475
-867,-60,478
-873,-63,476
-868,-59,475
-871,-60,472
-870,-64,470
-870,-58,473
-872,-56,472
-875,-56,472
-876,-58,474
-876,-65,471
-871,-61,471
-874,-58,470
-869,-59,474
-874,-59,471
-871,-58,475
-873,-59,475
-872,-60,474
-871,-60,476
-874,-58,476
-869,-56,476
-867,-58,482
-865,-58,475
-865,-60,477
-869,-58,480
-872,-59,479
-871,-60,480
-869,-61,477
-867,-63,478
-867,-58,477
-870,-59,481
-867,-55,479
-870,-60,478
-868,-59,480
-865,-60,479
-869,-60,480
-866,-60,483
-871,-59,483
-868,-58,484
-866,-61,480
-869,-61,480
-862,-61,480
-868,-61,484
-868,-58,479
-869,-62,476
-868,-58,479
-871,-61,474
-868,-61,477
-870,-63,471
-872,-63,475
-877,-60,471
-871,-62,470
-871,-59,469
-876,-63,470
-868,-63,471
-875,-57,468
-872,-56,469
-874,-54,471
-873,-61,469
-875,-57,471
-868,-55,471
-873,-61,477
-868,-57,475
-869,-59,477
-872,-60,479
-870,-57,482
-869,-56,478
-865,-58,478
-873,-61,479
-867,-57,481
-869,-57,478
-872,-55,482
-867,-58,477
-863,-63,480
-868,-59,479
-869,-62,481
-871,-61,477
-870,-59,477
-864,-59,478
-867,-63,482
-864,-60,479
-866,-59,480
-872,-59,481
-864,-60,481
-866,-62,480
-857,-62,487
-871,-58,479
-867,-65,481
-871,-63,480
-870,-62,480
-868,-60,480
-870,-59,481
-870,-61,476
-871,-60,478
-868,-63,475
-869,-58,478
-870,-62,475
-873,-59,471
-872,-59,475
-875,-61,473
-870,-60,473
-872,-59,470
-867,-60,472
-872,-63,474
-872,-60,474
-871,-60,471
-875,-57,475
-870,-61,471
-871,-58,475
-874,-58,474
-875,-60,477
-873,-62,478
-868,-61,478
-871,-58,477
-870,-57,479
-869,-61,478
-868,-60,477
-869,-58,479
-870,-61,482
-865,-59,476
-869,-62,480
-863,-61,485
-869,-62,480
-867,-62,479
-867,-61,482
-867,-58,482
-866,-61,475
-867,-63,479
-868,-62,480
-865,-60,479
-869,-61,479
-866,-62,481
-864,-62,479
-867,-60,479
-869,-59,481
-866,-56,482
-863,-58,481
-866,-60,479
-866,-61,479
-865,-64,479
-874,-58,481
-868,-62,479
-865,-61,474
-875,-58,476
-865,-61,475
-874,-62,474
-870,-62,474
-872,-62,471
-867,-59,473
-871,-67,473
-873,-59,473
-871,-59,469
-870,-62,471
-871,-58,469
-874,-59,471
-867,-59,473
-875,-58,471
-876,-60,471
-873,-61,472
-870,-60,474
-871,-62,476
-871,-61,476
-875,-58,475
-876,-60,476
-865,-58,479
-868,-61,480
-868,-57,478
-873,-59,478
-865,-61,479
-868,-57,480
-869,-58,484
-864,-61,479
-870,-64,480
-871,-59,479
-866,-60,481
-865,-64,479
-869,-56,484
-866,-62,475
-865,-61,479
-865,-62,479
-867,-63,479
-869,-59,484
-867,-60,479
-866,-58,479
-868,-57,480
-864,-58,481
-867,-56,477
-868,-64,480
-865,-60,479
-872,-62,483
-875,-57,480
-870,-59,481
-867,-61,479
-871,-59,479
-870,-66,477
-867,-59,476
-869,-61,476
-875,-62,476
-869,-58,476
-874,-61,475
-869,-56,475
-871,-59,471
-870,-60,473
-873,-59,474
-873,-57,472
-876,-58,473
-874,-59,471
-870,-61,471
-871,-61,475
-869,-65,472
-872,-58,476
-869,-58,476
-870,-63,475
-865,-61,480
-868,-61,477
-865,-59,479
-865,-58,480
-865,-58,476
-867,-61,479
-870,-59,482
-867,-60,482
-865,-60,480
-869,-62,481
-862,-57,478
-867,-61,477
-866,-57,482
-868,-61,479
-871,-60,477
-868,-57,479
-870,-63,478
-868,-56,479
-866,-59,480
-868,-60,481
-866,-62,484
-872,-59,481
-868,-60,480
-869,-58,481
-867,-63,478
-872,-63,480
-866,-61,479
-871,-62,474
-868,-61,477
-870,-62,477
-871,-62,476
-871,-60,476
-868,-57,480
-874,-62,477
-868,-64,476
-866,-59,473
-869,-60,475
-872,-58,475
-867,-62,475
-874,-60,469
-872,-61,471
-875,-59,472
-871,-58,470
-874,-60,473
-871,-61,475
-872,-62,477
-869,-58,476
-872,-61,473
-871,-58,477
-873,-62,474
-867,-59,475
-872,-60,478
-868,-60,478
-869,-60,479
-868,-57,482
-866,-61,477
-865,-59,481
-869,-56,479
-867,-61,479
-866,-62,481
-870,-59,480
-867,-61,487
-871,-63,481
-866,-59,479
-869,-64,477
-862,-57,479
-861,-61,480
-869,-58,482
-864,-59,479
-867,-62,481
-868,-59,481
-868,-61,481
-870,-61,480
-867,-59,479
-871,-59,482
-869,-59,478
-865,-62,477
-872,-60,478
-872,-63,479
-872,-63,477
-870,-64,479
-872,-63,475
-872,-62,475
-875,-58,472
-873,-59,473
-873,-61,474
-876,-62,471
-871,-61,470
-874,-61,473
-870,-55,470
-871,-61,471
-870,-59,473
-874,-60,475
-873,-60,474
-868,-60,473
-873,-60,476
-869,-62,476
-869,-59,476
-873,-58,479
-867,-52,482
-868,-54,481
-868,-53,482
-865,-55,482
-869,-57,484
-861,-46,482
-864,-53,486
-863,-47,488
-862,-53,485
-866,-49,487
-864,-52,487
-867,-53,486
-867,-52,486
-864,-52,485
-868,-52,485
-863,-56,485
-863,-55,488
-864,-50,489
-868,-52,485
-860,-53,487
-863,-51,485
-866,-53,488
-860,-51,488
-872,-54,488
-862,-52,483
-865,-53,485
-865,-55,486
-862,-55,489
-867,-53,487
-869,-56,486
-865,-52,489
-864,-55,484
-868,-52,487
-865,-53,489
-857,-53,485
-867,-54,489
-870,-60,486
-865,-51,488
-862,-47,484
-866,-53,483
-864,-52,485
-868,-50,481
-867,-50,483
-867,-47,480
-866,-50,479
-870,-49,481
-868,-51,481
-875,-62,472
-870,-47,477
-875,-48,476
-868,-49,476
-870,-51,474
-870,-45,482
-873,-51,479
-870,-48,475
-869,-44,476
-871,-52,476
-866,-52,471
-878,-52,479
-873,-53,474
-870,-53,478
-867,-56,479
-861,-52,480
-867,-52,479
-871,-56,480
-866,-56,483
-867,-57,484
-865,-50,485
-861,-50,483
-868,-48,484
-865,-52,487
-866,-53,481
-867,-49,486
-869,-51,484
-865,-50,486
-866,-48,482
-867,-51,481
-866,-53,482
-865,-56,485
-869,-51,484
-858,-49,486
-864,-56,489
-868,-54,486
-868,-53,489
-865,-53,484
-867,-53,484
-867,-53,484
-865,-52,483
-872,-53,482
-870,-50,481
-871,-51,480
-865,-47,477
-875,-50,479
-868,-49,477
-876,-52,475
-877,-45,477
-867,-50,480
-871,-51,477
-867,-47,476
-870,-48,476
-868,-46,479
-873,-50,474
-870,-49,480
-874,-48,479
-867,-48,482
-865,-50,482
-870,-50,480
-865,-50,479
-864,-55,480
-866,-48,482
-868,-54,480
-870,-51,480
-863,-46,482
-868,-47,484
-871,-48,488
-865,-48,484
-864,-52,482
-865,-52,482
-868,-50,482
-871,-52,484
-868,-49,488
-868,-52,483
-866,-53,484
-871,-49,484
-863,-52,485
-867,-51,490
-865,-51,484
-866,-52,487
-866,-53,487
-863,-51,483
-866,-55,485
-866,-60,484
-865,-58,478
-867,-63,481
-869,-55,482
-866,-53,477
-876,-55,479
-873,-59,474
-867,-54,473
-873,-55,474
-876,-57,477
-875,-57,474
-871,-56,472
-874,-57,471
-875,-60,470
-871,-54,473
-872,-60,474
-870,-62,477
-868,-53,474
-871,-60,474
-869,-55,475
-874,-58,478
-870,-55,479
-871,-56,480
-869,-57,479
-864,-59,484
-868,-54,480
-866,-55,479
-871,-58,482
-868,-57,484
-869,-57,482
-866,-55,481
-866,-58,479
-870,-58,479
-869,-59,478
-866,-60,484
-868,-59,482
-870,-56,483
-868,-55,481
-866,-55,478
-871,-54,483
-870,-57,484
-866,-61,488
-868,-55,485
-870,-58,484
-866,-60,485
-870,-54,484
-867,-57,481
-865,-58,483
-868,-59,483
-868,-55,483
-870,-62,478
-869,-55,479
-871,-56,482
-869,-59,479
-870,-65,474
-872,-54,477
-869,-54,479
-873,-57,476
-871,-58,474
-873,-55,473
-865,-59,474
-869,-56,473
-872,-59,470
-871,-55,474
-867,-56,474
-873,-54,476
-872,-60,477
-872,-58,478
-868,-58,478
-872,-58,477
-870,-56,481
-870,-58,479
-870,-58,481
-869,-55,478
-869,-58,482
-869,-58,483
-868,-58,481
-867,-60,482
-867,-57,482
-868,-56,482
-867,-56,485
-863,-58,483
-866,-57,483
-873,-58,479
-862,-54,479
-865,-54,483
-868,-61,482
-863,-53,480
-865,-56,484
-864,-61,485
-869,-58,484
-863,-60,487
-868,-55,482
-864,-56,486
-866,-58,484
-863,-58,484
-865,-58,481
-866,-59,483
-871,-60,481
-866,-57,480
-864,-57,482
-870,-57,480
-869,-56,479
-868,-57,482
-869,-59,474
-871,-57,474
-869,-57,476
-866,-58,478
-869,-58,475
-872,-54,471
-871,-59,473
-874,-57,472
-876,-55,472
-877,-58,475
-866,-63,475
-867,-57,477
-867,-58,479
-868,-59,476
-871,-57,479
-870,-53,482
-872,-60,477
-870,-56,480
-865,-53,479
-866,-56,478
-872,-55,483
-863,-59,480
-865,-55,485
-867,-58,480
-868,-59,483
-862,-57,483
-870,-59,483
-867,-55,484
-866,-59,482
-863,-55,483
-863,-60,483
-868,-61,483
-866,-58,483
-864,-57,486
-873,-55,483
-864,-58,479
-863,-58,484
-863,-59,483
-863,-61,485
-867,-55,483
-867,-56,484
-869,-60,480
-872,-59,481
-865,-58,481
-866,-58,479
-868,-56,477
-866,-60,480
-868,-60,475
-871,-58,473
-871,-59,477
-873,-60,475
-870,-61,476
-875,-58,476
-870,-53,477
-874,-56,474
-869,-57,472
-870,-57,476
-871,-57,472
-870,-52,477
-871,-62,481
-869,-57,477
-867,-57,480
-869,-56,479
-865,-62,480
-870,-52,478
-868,-55,479
-865,-54,482
-867,-57,484
-868,-55,483
-864,-60,483
-863,-62,481
-863,-55,487
-868,-57,484
-864,-61,477
-867,-59,485
-861,-60,483
-865,-58,483
-865,-61,486
-864,-59,484
-864,-61,486
-867,-57,483
-867,-59,485
-865,-54,482
-867,-60,482
-867,-54,482
-868,-53,484
-865,-56,485
-868,-59,482
-865,-58,483
-869,-59,482
-871,-56,481
-866,-56,483
-863,-57,480
-867,-62,478
-865,-56,479
-863,-60,477
-869,-54,478
-872,-58,479
-869,-59,480
-870,-60,477
-870,-59,477
-871,-55,474
-874,-56,475
-871,-59,476
-872,-55,472
-872,-57,471
-873,-56,478
-867,-61,477
-874,-57,478
-869,-59,472
-872,-55,477
-868,-55,478
-872,-58,477
-865,-60,482
-873,-57,481
-868,-52,482
-870,-56,484
-868,-58,484
-867,-56,484
-866,-60,483
-866,-57,484
-866,-58,482
-869,-59,480
-868,-57,483
-867,-57,482
-867,-57,486
-870,-57,486
-865,-60,487
-863,-57,487
-868,-57,481
-868,-54,483
-870,-53,482
-866,-56,482
-871,-58,482
-864,-59,482
-868,-55,486
-858,-52,483
-865,-60,483
-863,-60,486
-869,-61,479
-867,-56,483
-869,-63,479
-865,-57,479
-872,-61,482
-865,-59,479
-873,-58,479
-871,-61,480
-869,-56,478
-874,-60,475
-868,-56,476
-871,-58,477
-867,-58,473
-872,-61,475
-869,-57,477
-872,-58,475
-870,-55,475
-870,-58,479
-865,-56,476
-867,-57,477
-869,-54,479
-866,-58,481
-866,-60,480
-870,-55,481
-864,-56,482
-865,-57,481
-872,-60,486
-865,-57,481
-869,-61,483
-861,-55,485
-870,-57,483
-864,-59,483
-864,-53,482
-866,-58,484
-865,-60,481
-861,-57,483
-867,-59,484
-865,-59,485
-868,-57,488
-865,-53,485
-867,-59,485
-864,-60,482
-865,-57,489
-864,-57,483
-867,-55,487
-866,-58,484
-868,-56,485
-869,-55,484
-861,-58,484
-867,-58,484
-864,-61,483
-867,-59,490
-864,-58,487
-865,-57,483
-868,-60,481
-866,-56,482
-868,-59,479
-868,-60,480
-871,-58,479
-866,-57,477
-873,-57,475
-866,-56,477
-871,-53,474
-867,-62,475
-870,-58,474
-868,-57,478
-873,-59,473
-869,-59,474
-874,-58,475
-867,-59,474
-870,-55,474
-867,-61,477
-870,-60,477
-868,-56,478
-865,-57,484
-866,-57,480
-869,-52,482
-866,-57,482
-863,-61,487
-865,-59,482
-865,-56,483
-862,-56,485
-863,-55,483
-865,-56,485
-869,-54,483
-866,-62,489
-866,-58,482
-873,-58,485
-867,-58,484
-862,-60,479
-863,-58,483
-869,-64,482
-866,-58,485
-866,-57,483
-865,-61,484
-870,-57,483
-870,-58,482
-867,-59,481
-866,-59,484
-866,-56,485
-865,-57,486
-862,-57,486
-869,-57,485
-866,-59,483
-866,-59,483
-866,-59,479
-867,-56,479
-868,-60,479
-866,-59,480
-865,-59,477
-869,-62,479
-875,-61,473
-872,-58,473
-871,-59,477
-869,-59,478
-869,-57,475
-867,-58,473
-870,-58,472
-873,-62,476
-873,-56,475
-867,-58,475
-869,-59,475
-874,-59,475
-870,-57,475
-870,-56,477
-869,-59,483
-869,-58,480
-868,-55,482
-869,-56,477
-868,-56,481
-868,-59,480
-866,-54,481
-866,-58,483
-865,-55,484
-865,-55,482
-861,-55,485
-869,-51,484
-865,-62,483
-865,-60,483
-866,-60,486
-865,-55,483
-864,-58,484
-867,-58,483
-866,-59,486
-865,-56,484
-866,-58,485
-863,-60,485
-866,-62,486
-861,-55,484
-864,-54,489
-869,-57,486
-869,-56,483
-866,-59,486
-869,-62,483
-869,-57,483
-863,-57,480
-870,-58,476
-864,-54,480
-868,-57,476
-865,-56,481
-867,-58,479
-871,-59,480
-869,-63,475
-868,-59,473
-868,-54,475
-873,-54,475
-873,-57,476
-870,-60,475
-874,-59,475
-873,-59,473
-871,-58,476
-871,-60,476
-869,-54,479
-867,-56,481
-868,-58,481
-867,-59,478
-870,-58,483
-871,-60,482
-868,-57,482
-867,-53,482
-870,-58,486
-871,-59,483
-871,-58,481
-868,-60,483
-871,-54,484
-867,-56,480
-862,-58,483
-870,-60,486
-869,-57,485
-864,-59,487
-866,-55,482
-869,-58,485
-863,-62,483
-864,-58,486
-864,-55,484
-867,-55,484
-862,-59,483
-868,-54,482
-867,-60,488
-867,-56,480
-865,-60,482
-864,-58,482
-869,-58,485
-867,-56,478
-868,-58,482
-869,-60,479
-873,-61,476
-870,-60,476
-867,-60,476
-868,-53,479
-872,-55,476
-865,-60,478
-871,-59,477
-866,-58,477
-868,-59,480
-874,-56,479
-872,-56,478
-867,-58,476
-869,-55,480
-868,-57,479
-867,-56,481
-864,-59,479
-864,-59,484
-869,-58,482
-869,-57,484
-862,-57,485
-867,-53,479
-866,-58,482
-867,-53,485
-869,-56,480
-862,-60,480
-866,-59,483
-864,-58,485
-868,-59,483
-869,-55,485
-864,-58,483
-868,-58,482
-869,-60,485
-865,-58,484
-867,-57,484
-863,-57,483
-861,-58,485
-866,-59,485
-861,-62,484
-867,-63,484
-871,-57,487
-864,-58,480
-864,-57,485
-866,-59,487
-867,-60,484
-870,-58,483
-861,-58,482
-866,-60,477
-866,-57,482
-866,-59,481
-866,-57,480
-871,-60,479
-867,-61,479
-867,-60,475
-867,-62,475
-873,-60,476
-873,-59,479
-872,-62,479
-871,-57,471
-872,-61,473
-868,-59,475
-873,-58,476
-866,-58,476
-866,-55,477
-868,-57,479
-870,-56,478
-868,-63,475
-865,-58,484
-873,-59,478
-868,-55,482
-866,-58,483
-865,-53,483
-865,-59,482
-870,-57,482
-869,-57,481
-867,-54,483
-869,-61,484
-862,-57,481
-869,-56,480
-868,-63,485
-866,-59,483
-865,-59,483
-869,-54,484
-866,-57,486
-866,-57,487
-863,-61,486
-864,-59,487
-867,-56,484
-867,-57,483
-864,-54,485
-871,-59,485
-866,-56,487
-866,-60,483
-869,-60,484
-868,-58,483
-867,-57,482
-864,-57,482
-866,-60,480
-873,-62,477
-869,-57,477
-869,-59,478
-867,-59,478
-867,-58,478
-870,-54,475
-866,-57,479
-869,-63,475
-870,-56,475
-865,-59,478
-875,-55,478
-868,-61,480
-871,-56,475
-872,-54,477
-872,-58,479
-871,-62,481
-870,-57,477
-863,-52,483
-864,-57,483
-866,-58,482
-869,-59,479
-863,-60,482
-862,-61,483
-864,-57,483
-867,-53,485
-867,-57,483
-862,-60,482
-865,-56,489
-860,-61,482
-868,-61,484
-870,-60,483
-862,-57,485
-865,-60,486
-863,-61,482
-867,-58,482
-867,-61,485
-868,-59,485
-863,-61,485
-861,-58,485
-868,-56,483
-863,-58,485
-866,-57,482
-865,-57,485
-869,-60,483
-868,-55,483
-862,-59,485
-867,-62,483
-864,-57,481
-870,-57,480
-870,-58,479
-868,-57,476
-872,-58,479
-870,-58,476
-871,-61,481
-866,-61,479
-874,-56,480
-871,-57,475
-870,-58,476
-873,-57,476
-870,-60,470
-872,-59,474
-868,-57,475
-873,-60,473
-871,-61,482
-866,-56,481
-866,-53,478
-869,-57,481
-866,-53,481
-869,-58,479
-868,-58,482
-867,-54,482
-867,-57,482
-867,-56,483
-869,-59,481
-870,-61,486
-869,-57,482
-864,-54,484
-870,-58,484
-862,-58,484
-868,-57,484
-869,-60,485
-866,-58,484
-865,-57,488
-869,-61,484
-865,-58,481
-863,-56,482
-871,-58,485
-864,-60,484
-878,-52,483
-864,-57,485
-863,-58,483
-859,-58,483
-867,-61,486
-866,-59,484
-866,-55,485
-865,-57,484
-868,-57,480
-871,-58,479
-871,-57,479
-874,-57,477
-868,-59,477
-871,-57,477
-871,-60,477
-874,-58,476
-869,-59,477
-872,-60,477
-874,-57,475
-866,-62,478
-869,-57,476
-868,-59,477
-868,-52,477
-869,-55,481
-864,-58,478
-872,-59,482
-867,-54,482
-865,-58,481
-864,-58,481
-869,-58,480
-867,-55,484
-865,-58,483
-861,-56,480
-865,-57,481
-859,-59,481
-868,-57,483
-860,-57,485
-866,-54,482
-861,-59,486
-861,-60,484
-869,-58,487
-864,-59,481
-863,-59,485
-865,-57,484
-865,-56,485
-863,-54,480
-865,-60,483
-866,-60,487
-862,-60,487
-868,-58,484
-866,-57,485
-869,-60,483
-867,-59,484
-867,-59,487
-867,-60,483
-863,-59,480
-869,-59,481
-867,-55,484
-869,-57,476
-872,-59,479
-867,-59,475
-871,-59,477
-870,-60,479
-867,-60,477
-868,-61,474
-873,-60,475
-869,-56,472
-873,-61,475
-869,-56,477
-866,-59,474
-871,-60,477
-867,-59,476
-869,-64,474
-871,-56,481
-868,-58,480
-868,-55,482
-869,-62,483
-865,-59,482
-868,-61,482
-871,-57,483
-866,-55,486
-861,-55,483
-862,-53,484
-870,-59,482
-862,-59,482
-864,-60,483
-868,-54,484
-870,-54,483
-863,-53,483
-867,-58,485
-864,-62,484
-867,-57,484
-867,-59,482
-861,-57,488
-863,-58,483
-866,-58,485
-865,-61,484
-866,-57,487
-860,-57,484
-862,-59,487
-865,-60,485
-862,-57,484
-868,-55,487
-868,-59,486
-865,-61,486
-864,-60,482
-868,-60,479
-868,-55,481
-865,-61,479
-871,-57,479
-869,-58,481
-869,-58,478
-871,-54,476
-870,-61,476
-866,-61,475
-871,-58,478
-870,-57,473
-872,-57,472
-866,-58,473
-869,-54,474
-870,-52,476
-871,-55,477
-866,-59,472
-870,-61,476
-867,-58,479
-866,-59,480
-868,-55,482
-866,-57,476
-871,-55,481
-865,-61,477
-868,-58,483
-869,-57,482
-865,-59,485
-868,-57,485
-866,-55,485
-867,-59,482
-868,-57,481
-864,-56,482
-867,-55,483
-865,-59,484
-862,-57,483
-869,-58,484
-866,-60,485
-868,-60,484
-865,-56,484
-868,-56,488
-867,-58,482
-864,-58,484
-868,-57,486
-870,-56,484
-861,-58,481
-868,-55,485
-864,-62,480
-867,-59,482
-867,-58,476
-870,-58,483
-870,-59,480
-873,-58,477
-868,-59,479
-870,-58,477
-870,-57,479
-871,-61,478
-870,-60,478
-867,-59,474
-872,-57,479
-872,-62,477
-873,-59,475
-876,-58,475
-868,-54,479
-872,-55,474
-867,-58,481
-864,-58,481
-867,-54,481
-870,-57,484
-868,-57,479
-867,-56,482
-866,-57,484
-868,-58,482
-868,-59,481
-868,-53,484
-861,-61,483
-866,-57,481
-865,-57,485
-867,-56,486
-860,-57,487
-867,-57,484
-864,-60,481
-874,-55,482
-870,-62,482
-863,-55,481
-864,-60,481
-867,-58,483
-863,-55,481
-866,-59,486
-864,-59,483
-860,-58,483
-869,-59,485
-868,-58,483
-861,-56,482
-870,-56,481
-868,-56,482
-869,-58,481
-868,-59,483
-863,-57,477
-870,-61,481
-872,-59,479
-871,-56,480
-871,-56,478
-867,-60,475
-870,-61,477
-868,-59,478
-868,-58,477
-872,-57,472
-869,-59,476
-866,-59,474
-875,-59,478
-868,-59,480
-868,-57,478
-868,-53,480
-872,-56,478
-869,-56,482
-870,-57,480
-869,-54,481
-867,-60,483
-865,-57,485
-863,-56,485
-866,-57,483
-867,-54,486
-859,-62,483
-871,-58,485
-863,-59,484
-870,-56,484
-865,-54,485
-868,-58,484
-866,-57,487
-865,-60,484
-865,-56,484
-865,-57,485
-863,-58,483
-867,-60,483
-865,-60,483
-867,-61,486
-863,-60,483
-868,-59,487
-859,-56,486
-860,-61,481
-864,-58,483
-865,-61,487
-867,-58,483
-867,-55,482
-870,-56,485
-870,-56,479
-872,-57,479
-861,-56,476
-869,-60,479
-868,-57,478
-869,-59,477
-869,-59,480
-873,-59,477
-872,-59,476
-868,-59,474
-873,-59,478
-875,-53,475
-871,-57,475
-869,-53,474
-866,-57,474
-869,-59,477
-874,-61,478
-870,-56,479
-867,-60,481
-869,-58,484
-869,-59,479
-871,-56,480
-872,-57,484
-866,-58,479
-867,-60,482
-865,-55,483
-860,-57,482
-867,-57,484
-863,-53,481
-864,-59,484
-861,-57,485
-863,-57,485
-863,-57,488
-868,-62,481
-865,-55,481
-868,-56,485
-867,-61,486
-862,-62,485
-863,-59,484
-864,-60,485
-863,-57,485
-869,-58,482
-865,-57,485
-865,-56,485
-866,-53,484
-868,-59,482
-869,-57,486
-868,-59,485
-864,-57,484
-861,-58,484
-871,-61,485
-863,-59,480
-864,-59,481
-864,-54,482
-867,-59,481
-865,-60,480
-873,-55,477
-868,-54,474
-870,-59,478
-866,-62,478
-869,-55,472
-876,-57,476
-869,-59,474
-866,-56,477
-867,-61,477
-869,-57,473
-871,-60,478
-866,-55,478
-871,-59,479
-866,-56,482
-866,-57,483
-863,-56,479
-865,-55,482
-866,-58,478
-863,-59,483
-866,-57,484
-870,-51,484
-870,-58,483
-864,-56,486
-868,-57,485
-863,-57,486
-867,-54,483
-866,-56,483
-863,-54,485
-867,-56,483
-866,-55,485
-862,-58,485
-866,-57,482
-861,-56,486
-860,-59,480
-857,-57,481
-866,-61,489
-868,-55,487
-861,-57,483
-862,-56,486
-863,-57,482
-867,-56,484
-867,-62,485
-865,-55,482
-870,-53,481
-868,-61,480
-867,-58,482
-872,-59,482
-866,-56,481
-871,-56,481
-870,-59,477
-869,-59,474
-871,-58,477
-870,-56,475
-871,-54,478
-873,-56,473
-869,-57,479
-868,-59,477
-870,-59,474
-873,-57,477
-868,-57,474
-868,-62,477
-869,-63,480
-866,-54,479
-864,-57,480
-862,-58,480
-870,-53,482
-870,-54,482
-867,-58,485
-867,-57,484
-864,-56,480
-869,-60,484
-863,-60,480
-863,-58,484
-871,-56,486
-870,-59,483
-869,-57,480
-864,-61,484
-864,-58,486
-867,-59,483
-863,-58,485
-868,-59,484
-867,-58,485
-869,-62,485
-863,-56,485
-864,-65,483
-863,-58,486
-863,-59,484
-865,-56,483
-868,-59,485
-867,-57,483
-867,-59,487
-863,-59,480
-864,-57,484
-869,-62,484
-865,-57,477
-869,-61,483
-868,-56,481
-869,-57,479
-870,-59,479
-867,-63,479
-870,-59,476
-873,-58,477
-868,-55,473
-868,-56,477
-868,-60,472
-873,-55,476
-868,-56,476
-868,-59,476
-870,-57,478
-870,-61,479
-868,-61,477
-867,-58,481
-866,-59,480
-872,-58,481
-869,-60,479
-867,-58,486
-864,-58,482
-863,-54,483
-864,-56,484
-865,-57,483
-868,-56,483
-865,-62,480
-868,-55,482
-867,-57,482
-864,-54,485
-865,-62,484
-868,-61,484
-864,-54,482
-868,-61,488
-862,-58,484
-866,-60,487
-871,-57,487
-865,-58,488
-860,-57,485
-860,-59,482
-867,-57,485
-867,-62,487
-859,-56,482
-859,-61,483
-865,-61,479
-868,-60,485
-865,-60,480
-867,-59,484
-868,-60,485
-870,-59,481
-874,-60,478
-868,-58,476
-870,-59,478
-865,-61,475
-870,-54,474
-870,-58,476
-868,-59,476
-870,-62,477
-874,-60,477
-869,-54,475
-869,-55,475
-866,-60,479
-871,-54,476
-869,-62,479
-870,-56,480
-865,-59,481
-867,-58,482
-867,-56,482
-868,-54,485
-866,-57,482
-867,-55,482
-861,-59,485
-862,-62,481
-868,-56,487
-865,-57,481
-867,-56,487
-867,-57,485
-867,-61,485
-870,-63,486
-870,-58,486
-863,-57,482
-865,-59,484
-862,-53,484
-863,-55,480
-861,-59,480
-866,-60,486
-867,-62,485
-864,-57,486
-868,-62,480
-867,-56,484
-870,-56,488
-871,-59,487
-866,-60,487
-864,-57,483
-869,-58,481
-871,-58,480
-870,-59,479
-866,-59,483
-869,-59,480
-870,-56,478
-868,-59,477
-870,-60,479
-866,-56,477
-872,-58,473
-872,-62,477
-868,-56,474
-869,-62,473
-867,-58,477
-871,-65,476
-865,-54,477
-870,-59,484
-868,-60,478
-868,-62,479
-865,-57,479
-867,-59,480
-865,-56,481
-864,-59,485
-867,-56,487
-871,-58,485
-863,-58,481
-866,-56,482
-868,-60,486
-866,-60,482
-860,-60,482
-862,-56,482
-865,-60,484
-865,-55,486
-864,-57,485
-866,-61,484
-860,-60,481
-868,-54,482
-865,-59,486
-868,-61,483
-856,-60,491
-869,-59,482
-865,-59,484
-869,-63,486
-866,-63,485
-865,-60,485
-862,-56,485
-866,-60,486
-863,-56,484
-865,-59,483
-866,-59,482
-867,-58,479
-870,-58,479
-867,-58,479
-871,-62,478
-864,-59,478
-864,-58,481
-868,-63,476
-869,-59,480
-871,-59,475
-870,-62,475
-871,-56,477
-867,-59,475
-872,-56,475
-872,-59,476
-868,-60,479
-869,-58,479
-869,-57,478
-864,-57,482
-868,-59,480
-867,-61,481
-867,-59,481
-868,-54,481
-869,-59,485
-867,-58,480
-870,-57,480
-871,-53,489
-869,-57,483
-868,-61,484
-867,-55,483
-868,-58,487
-867,-56,487
-865,-58,483
-867,-57,481
-865,-59,486
-861,-59,481
-867,-57,485
-864,-58,485
-863,-58,486
-866,-59,485
-862,-58,481
-863,-58,485
-864,-57,489
-866,-60,488
-867,-50,483
-868,-58,481
-864,-59,479
-867,-58,480
-871,-61,479
-868,-56,479
-871,-56,479
-866,-59,476
-865,-60,475
-870,-57,477
-869,-59,479
-873,-59,478
-873,-61,478
-865,-56,476
-867,-57,475
-864,-56,476
-869,-59,477
-871,-61,481
-862,-61,481
-860,-58,482
-867,-58,479
-869,-54,483
-864,-57,481
-866,-59,482
-862,-56,482
-866,-57,483
-860,-56,485
-865,-59,483
-857,-56,484
-865,-58,487
-862,-59,487
-871,-60,485
-866,-58,485
-862,-58,486
-868,-56,483
-865,-61,484
-864,-56,488
-867,-61,485
-861,-53,486
-866,-59,488
-862,-61,483
-868,-53,490
-862,-54,487
-865,-59,488
-862,-59,484
-864,-54,485
-865,-62,482
-866,-58,486
-870,-58,479
-868,-57,479
-863,-55,480
-868,-56,478
-865,-60,478
-869,-63,480
-868,-65,477
-874,-59,474
-871,-56,475
-872,-55,476
-870,-60,475
-868,-56,477
-867,-55,473
-867,-58,481
-874,-57,480
-870,-58,484
-869,-56,481
-868,-57,482
-864,-60,478
-868,-59,479
-867,-58,482
-866,-58,479
-869,-59,485
-864,-57,484
-866,-61,486
-866,-55,483
-867,-58,485
-871,-58,478
-864,-61,488
-866,-57,488
-862,-56,484
-866,-60,482
-866,-58,485
-867,-62,483
-867,-57,486
-867,-57,485
-863,-62,484
-861,-57,486
-867,-57,488
-859,-57,485
-868,-57,485
-865,-59,483
-869,-60,487
-865,-57,485
-862,-57,484
-867,-58,489
-867,-59,485
-867,-62,487
-869,-59,480
-867,-58,482
-868,-60,482
-862,-56,480
-867,-58,478
-866,-55,480
-867,-58,475
-871,-62,474
-871,-58,477
-870,-60,478
-869,-57,475
-868,-60,476
-874,-57,476
-873,-58,480
-873,-63,479
-871,-57,478
-873,-53,482
-867,-59,478
-870,-59,482
-864,-61,482
-866,-62,484
-864,-58,478
-867,-54,487
-865,-57,484
-864,-56,481
-865,-56,484
-864,-57,483
-866,-55,484
-866,-59,483
-867,-56,484
-869,-57,488
-865,-54,487
-865,-57,481
-863,-55,484
-865,-58,481
-866,-57,484
-866,-65,487
-859,-59,482
-869,-60,488
-860,-54,488
-864,-61,483
-870,-60,487
-862,-59,486
-866,-56,488
-862,-58,484
-869,-60,484
-869,-58,483
-865,-58,483
-867,-58,479
-869,-58,479
-866,-63,479
-867,-62,481
-866,-58,479
-876,-58,479
-870,-59,474
-869,-55,476
-867,-60,474
-868,-56,474
-870,-58,477
-869,-57,478
-871,-60,477
-868,-57,480
-866,-59,479
-867,-56,482
-868,-61,478
-868,-60,484
-867,-59,482
-862,-59,480
-865,-61,487
-863,-55,482
-863,-54,486
-870,-60,487
-866,-61,485
-868,-58,485
-865,-60,485
-864,-58,482
-861,-57,488
-865,-56,486
-870,-59,487
-867,-58,484
-867,-56,485
-860,-61,486
-867,-56,489
-863,-57,483
-866,-60,488
-862,-56,485
-867,-61,489
-863,-59,487
-867,-58,485
-859,-52,484
-867,-57,486
-864,-59,480
-861,-61,484
-867,-58,482
-872,-59,478
-866,-57,478
-869,-57,478
-873,-58,475
-872,-61,479
-869,-57,477
-870,-59,480
-870,-62,477
-866,-56,476
-870,-59,479
-872,-59,478
-868,-59,479
-870,-57,477
-868,-59,479
-868,-58,480
-866,-59,481
-870,-58,480
-861,-60,483
-866,-60,482
-864,-58,485
-865,-58,481
-866,-58,486
-867,-58,485
-862,-57,484
-866,-59,485
-866,-59,486
-860,-54,484
-867,-58,484
-865,-57,484
-864,-57,483
-866,-61,484
-862,-62,486
-862,-60,487
-866,-56,483
-868,-57,487
-864,-55,484
-868,-59,484
-863,-56,485
-867,-59,485
-862,-56,483
-865,-60,484
-868,-61,485
-867,-59,484
-863,-59,486
-865,-57,484
-862,-61,480
-867,-62,483
-862,-54,485
-865,-61,483
-868,-58,478
-870,-62,483
-866,-59,480
-864,-62,476
-869,-60,477
-870,-54,476
-867,-58,478
-869,-58,478
-867,-58,475
-865,-61,476
-869,-57,474
-869,-60,477
-867,-58,475
-872,-56,477
-870,-63,481
-872,-57,482
-866,-58,478
-863,-61,483
-865,-60,481
-868,-58,484
-869,-57,482
-867,-61,484
-869,-57,483
-867,-59,481
-867,-57,488
-863,-58,482
-868,-58,488
-867,-54,486
-868,-61,482
-867,-64,485
-866,-58,482
-867,-60,485
-867,-55,484
-859,-61,487
-866,-58,484
-865,-55,486
-864,-56,482
-862,-61,487
-868,-60,489
-864,-57,483
-867,-59,483
-866,-57,485
-859,-57,484
-865,-58,484
-864,-54,485
-863,-60,487
-862,-60,487
-871,-61,482
-866,-59,482
-866,-57,480
-870,-62,485
-873,-61,481
-865,-57,479
-870,-54,479
-872,-60,476
-870,-60,476
-870,-55,475
-871,-59,481
-870,-61,476
-872,-57,476
-868,-59,475
-873,-61,476
-865,-60,478
-873,-59,478
-867,-57,482
-867,-61,480
-870,-64,480
-869,-55,480
-867,-52,483
-864,-60,482
-867,-58,481
-864,-60,482
-865,-57,489
-861,-57,486
-867,-59,482
-869,-53,483
-867,-56,483
-866,-57,485
-863,-58,486
-866,-59,484
-861,-59,484
-863,-55,489
-862,-59,486
-869,-61,485
-865,-54,488
-866,-57,485
-865,-60,483
-865,-61,485
-867,-62,489
-865,-59,487
-867,-62,485
-865,-58,487
-869,-61,483
-864,-55,486
-863,-59,479
-868,-61,486
-866,-59,481
-865,-57,483
-865,-60,481
-863,-60,478
-865,-58,477
-870,-57,482
-867,-54,478
-869,-62,475
-868,-62,475
-872,-59,477
-869,-61,477
-871,-61,476
-872,-59,478
-867,-58,480
-868,-60,477
-865,-60,484
-864,-57,479
-865,-58,480
-863,-63,481
-866,-55,483
-872,-55,480
-871,-62,483
-866,-57,482
-866,-59,484
-863,-57,488
-865,-54,487
-861,-57,485
-863,-57,488
-863,-54,486
-870,-62,485
-864,-58,485
-863,-59,484
-860,-58,486
-866,-58,484
-871,-57,486
-864,-58,483
-867,-62,486
-864,-57,483
-866,-55,486
-868,-62,484
-867,-59,484
-868,-58,481
-868,-56,480
-868,-60,481
-871,-59,479
-866,-59,478
-866,-58,479
-869,-62,477
-863,-59,475
-870,-59,479
-872,-60,474
-870,-58,476
-871,-60,474
-866,-59,475
-871,-59,477
-868,-56,481
-866,-59,479
-869,-59,481
-865,-58,481
-872,-58,487
-864,-59,485
-865,-54,482
-868,-56,483
-863,-58,485
-868,-56,484
-863,-57,481
-860,-58,485
-866,-58,484
-867,-56,485
-863,-57,481
-868,-55,488
-863,-56,487
-867,-59,482
-865,-53,481
-862,-53,486
-865,-57,486
-863,-55,484
-867,-58,484
-864,-58,484
-866,-57,486
-863,-57,483
-861,-57,488
-863,-58,487
-861,-59,489
-866,-58,484
-867,-60,486
-864,-62,486
-864,-59,480
-868,-57,484
-862,-57,480
-869,-56,481
-867,-58,478
-867,-61,476
-873,-60,479
-865,-61,478
-869,-58,475
-871,-59,476
-871,-59,477
-867,-62,477
-870,-60,476
-866,-54,476
-869,-61,475
-866,-59,479
-872,-61,478
-867,-60,479
-872,-59,482
-865,-59,484
-868,-58,485
-864,-58,482
-862,-59,481
-870,-59,484
-861,-61,483
-860,-56,486
-867,-61,484
-865,-56,486
-865,-56,488
-865,-58,481
-866,-66,487
-866,-57,488
-871,-55,484
-866,-56,486
-866,-59,486
-868,-58,482
-862,-62,484
-868,-60,486
-867,-62,484
-868,-56,486
-863,-58,487
-869,-59,487
-859,-58,485
-865,-60,484
-866,-58,488
-866,-60,485
-864,-61,479
-868,-63,488
-864,-57,483
-869,-59,480
-865,-63,484
-867,-58,482
-867,-60,480
-870,-59,476
-870,-59,478
-869,-56,477
-873,-60,478
-867,-54,479
-869,-63,478
-870,-62,478
-865,-57,477
-868,-56,474
-869,-55,478
-869,-53,481
-865,-54,477
-866,-64,481
-866,-61,484
-865,-62,481
-867,-61,485
-866,-61,481
-870,-57,486
-861,-59,484
-864,-59,483
-869,-58,482
-867,-58,483
-866,-62,486
-863,-55,488
-866,-60,484
-866,-60,486
-866,-58,485
-866,-56,486
-864,-59,484
-860,-57,489
-861,-59,485
-867,-58,484
-867,-61,485
-864,-59,483
-861,-59,488
-863,-57,485
-864,-60,485
-862,-62,484
-867,-56,485
-867,-61,487
-864,-56,486
-863,-63,487
-867,-59,485
-868,-58,482
-864,-62,487
-862,-56,483
-873,-64,484
-865,-61,481
-869,-57,479
-863,-57,481
-871,-63,480
-865,-57,480
-870,-59,479
-864,-57,476
-874,-58,471
-869,-62,477
-870,-60,475
-869,-60,478
-873,-55,476
-872,-58,477
-869,-56,482
-865,-57,476
-869,-57,482
-863,-60,483
-872,-56,479
-864,-54,482
-869,-56,482
-863,-55,485
-865,-58,482
-865,-60,483
-868,-53,488
-867,-57,485
-865,-56,484
-871,-61,489
-861,-60,481
-869,-55,488
-865,-59,487
-866,-62,482
-863,-58,486
-866,-61,482
-864,-60,488
-865,-57,486
-868,-57,485
-862,-55,484
-865,-53,485
-866,-62,485
-869,-62,484
-868,-57,486
-865,-62,487
-867,-57,488
-871,-54,483
-869,-58,483
-866,-60,485
-864,-58,479
-867,-60,477
-871,-58,479
-866,-62,482
-861,-57,479
-872,-57,480
-866,-58,476
-870,-58,477
-868,-61,477
-871,-58,478
-867,-56,473
-868,-60,476
-867,-59,477
-876,-56,474
-870,-57,476
-870,-55,476
-867,-56,476
-873,-59,478
-869,-60,480
-867,-54,481
-869,-56,481
-869,-59,486
-868,-56,482
-866,-60,481
-867,-58,486
-868,-64,483
-863,-56,488
-866,-55,487
-866,-56,485
-867,-59,485
-864,-58,485
-860,-58,482
-857,-57,484
-866,-59,485
-865,-58,487
-862,-58,486
-864,-57,484
-865,-61,485
-868,-57,485
-861,-61,484
-866,-56,488
-868,-57,486
-867,-58,485
-862,-62,493
-867,-61,487
-865,-55,482
-865,-59,489
-865,-59,488
-867,-58,485
-867,-59,483
-867,-63,487
-869,-57,482
-870,-60,482
-865,-63,485
-866,-59,479
-866,-60,479
-869,-59,479
-868,-57,477
-866,-59,479
-867,-57,478
-870,-60,475
-869,-56,476
-869,-58,478
-870,-58,474
-872,-58,479
-870,-59,474
-864,-56,475
-867,-54,482
-863,-59,480
-869,-57,480
-870,-58,477
-870,-60,481
-869,-60,482
-869,-59,482
-865,-57,482
-867,-60,482
-871,-58,483
-865,-62,483
-864,-61,485
-867,-60,486
-864,-59,485
-865,-58,485
-863,-57,484
-866,-57,484
-863,-56,484
-867,-55,483
-868,-62,483
-866,-58,485
-865,-60,482
-866,-59,484
-869,-59,485
-866,-59,484
-864,-58,489
-866,-57,484
-861,-57,482
-861,-57,484
-862,-58,489
-865,-62,486
-864,-59,483
-870,-57,482
-868,-61,482
-868,-57,485
-861,-58,479
-872,-60,482
-866,-58,479
-864,-59,481
-865,-59,478
-868,-60,475
-871,-64,479
-873,-59,477
-862,-61,478
-871,-57,475
-868,-64,474
-868,-57,473
-869,-59,479
-872,-57,479
-867,-59,475
-870,-58,483
-864,-59,481
-864,-56,482
-868,-59,481
-863,-59,482
-863,-61,482
-868,-56,485
-866,-55,483
-864,-59,483
-869,-59,486
-869,-59,484
-866,-58,481
-867,-59,489
-867,-58,481
-867,-59,490
-867,-55,486
-865,-59,484
-870,-62,491
-862,-53,487
-867,-58,483
-864,-59,488
-869,-56,487
-861,-56,485
-869,-55,487
-863,-62,486
-867,-58,486
-864,-58,484
-867,-53,482
-870,-59,487
-868,-59,488
-865,-61,485
-864,-60,483
-870,-61,481
-868,-58,482
-866,-61,480
-863,-58,482
-866,-59,481
-867,-59,478
-875,-56,481
-868,-60,474
-874,-62,476
-868,-55,478
-870,-54,478
-865,-58,478
-873,-60,477
-871,-57,474
-871,-59,477
-867,-57,477
-867,-58,479
-864,-53,478
-862,-62,479
-868,-60,481
-863,-57,481
-865,-55,480
-867,-61,481
-868,-57,483
-868,-58,485
-861,-57,487
-871,-57,485
-865,-58,485
-867,-57,484
-862,-57,482
-868,-58,483
-867,-56,485
-862,-61,485
-867,-61,487
-869,-58,487
-868,-59,486
-867,-58,485
-867,-59,486
-870,-58,484
-866,-55,486
-866,-58,487
-865,-60,483
-864,-59,482
-864,-61,485
-866,-58,482
-865,-54,487
