acc_x[mg],acc_y[mg],acc_z[mg]
476,-893,-30
475,-907,-22
478,-908,-13
478,-895,-17
470,-911,-26
483,-856,15
481,-890,-6
479,-884,-14
480,-884,-10
493,-887,-25
487,-875,-31
488,-873,-39
505,-871,6
493,-872,10
493,-873,5
482,-906,28
488,-907,14
480,-867,31
479,-905,32
472,-867,63
461,-901,21
508,-1000,-12
500,-843,63
492,-924,133
470,-833,357
453,-719,360
491,-848,254
476,-796,382
500,-813,307
558,-757,341
579,-619,439
577,-624,472
576,-627,485
519,-566,443
531,-755,176
758,-905,28
664,-875,-102
532,-971,-130
506,-891,-125
569,-906,-93
582,-907,-85
481,-885,-44
427,-868,-33
398,-925,-22
424,-935,33
391,-1059,15
347,-972,45
373,-908,64
365,-918,66
388,-910,103
359,-964,82
346,-953,74
339,-941,87
331,-949,97
335,-956,92
325,-937,92
337,-936,89
331,-953,91
345,-953,96
340,-951,79
340,-960,78
349,-923,104
347,-937,96
341,-941,88
340,-952,87
347,-940,99
335,-949,92
339,-961,91
331,-935,69
333,-948,138
339,-912,86
348,-968,67
349,-936,51
354,-929,56
352,-962,64
372,-969,56
380,-982,44
379,-909,80
340,-989,127
372,-1010,85
387,-920,87
363,-882,115
358,-991,81
406,-932,88
473,-1067,73
395,-868,257
283,-827,471
265,-825,743
284,-302,644
523,287,911
458,-226,692
462,-438,720
380,-453,895
291,-422,909
268,-291,927
305,-453,870
292,-506,800
284,-492,782
296,-541,819
346,-519,776
334,-525,778
296,-533,792
319,-541,774
330,-572,762
296,-457,820
300,-380,853
294,-483,807
373,-507,840
328,-488,793
309,-473,805
330,-426,823
325,-482,798
320,-481,798
326,-484,799
323,-479,804
316,-475,798
322,-490,794
315,-485,797
326,-468,806
327,-479,801
324,-478,784
336,-532,768
309,-419,832
316,-425,770
327,-488,803
315,-495,795
278,-519,780
310,-570,750
285,-627,728
310,-559,777
333,-576,746
293,-505,717
313,-553,751
327,-509,770
325,-506,775
332,-541,754
303,-546,765
312,-584,733
325,-548,751
328,-596,730
316,-608,716
316,-604,723
331,-585,735
332,-561,734
330,-568,736
328,-584,729
333,-572,735
333,-576,730
332,-578,728
327,-573,736
339,-564,737
336,-585,720
335,-587,724
331,-580,726
344,-559,743
333,-577,730
331,-586,727
324,-598,720
333,-587,724
332,-569,727
334,-567,733
328,-584,725
318,-601,719
336,-571,733
341,-571,731
328,-574,732
334,-584,730
335,-574,730
330,-585,727
337,-578,732
339,-584,729
338,-575,734
335,-572,733
341,-568,739
328,-572,729
341,-555,747
339,-553,747
334,-569,736
334,-554,743
341,-541,747
343,-564,739
344,-563,736
342,-561,743
335,-560,741
344,-565,739
342,-560,734
342,-557,745
341,-559,738
345,-558,740
341,-563,738
336,-571,735
336,-574,734
335,-567,739
340,-572,735
340,-569,739
333,-575,734
332,-569,734
339,-577,732
337,-569,735
340,-576,730
333,-570,731
337,-571,735
341,-565,738
339,-564,734
335,-568,736
335,-565,740
342,-567,735
342,-562,739
339,-560,735
340,-553,740
336,-563,738
337,-565,741
351,-566,738
343,-560,741
341,-558,740
340,-561,741
349,-557,739
344,-553,746
345,-559,739
340,-559,741
342,-566,738
337,-561,738
343,-557,743
339,-550,746
349,-567,736
340,-564,737
342,-563,739
349,-558,742
342,-553,742
344,-559,740
341,-561,738
344,-563,738
346,-559,740
338,-565,735
341,-558,739
341,-561,742
348,-559,739
343,-560,742
346,-563,740
348,-562,738
346,-559,739
348,-565,736
340,-559,742
343,-555,737
342,-565,736
342,-555,740
343,-562,740
344,-561,740
345,-557,737
344,-559,742
349,-551,744
351,-559,738
343,-564,738
346,-557,738
346,-559,738
341,-561,739
345,-562,736
348,-559,740
344,-563,733
345,-564,740
343,-562,738
346,-555,740
350,-563,738
343,-560,742
347,-557,742
344,-560,738
344,-557,740
345,-558,744
350,-558,741
343,-560,741
339,-559,740
344,-558,740
346,-563,742
344,-561,742
341,-560,739
343,-559,741
347,-556,742
339,-562,739
345,-559,745
344,-560,745
345,-555,741
347,-561,737
342,-555,740
344,-564,738
346,-557,737
344,-559,739
346,-559,739
346,-559,739
343,-559,736
342,-563,735
349,-566,737
350,-560,734
349,-561,734
349,-561,736
347,-564,740
354,-549,763
345,-556,738
347,-577,730
353,-583,737
342,-560,735
343,-564,734
343,-557,736
352,-565,735
344,-559,736
350,-561,737
346,-562,737
345,-562,737
348,-562,735
345,-561,739
340,-562,739
352,-561,735
345,-561,733
346,-561,730
347,-565,731
345,-568,735
342,-561,734
346,-562,736
344,-563,734
345,-565,737
343,-560,737
349,-569,735
348,-564,738
343,-564,736
345,-563,733
348,-561,736
348,-565,734
343,-565,736
350,-562,738
345,-564,737
346,-565,738
350,-566,733
340,-561,734
342,-566,739
341,-565,735
351,-562,738
350,-564,735
349,-564,739
347,-565,733
351,-562,739
344,-562,734
345,-560,739
345,-564,737
343,-561,735
345,-561,738
348,-567,734
344,-567,733
347,-560,736
342,-563,732
346,-564,736
350,-563,737
344,-564,733
348,-561,737
347,-556,739
347,-565,731
346,-563,735
345,-565,732
353,-566,731
348,-559,736
351,-567,732
354,-545,742
352,-560,737
348,-562,734
346,-566,735
348,-567,734
349,-559,732
349,-566,739
345,-565,737
344,-567,734
343,-562,735
345,-565,735
345,-561,737
349,-560,735
349,-566,735
346,-563,733
344,-564,734
344,-564,736
345,-563,735
344,-559,737
343,-558,735
348,-561,738
347,-566,736
350,-562,734
349,-565,737
346,-567,735
353,-558,734
349,-562,738
350,-565,736
347,-562,735
345,-558,738
352,-561,736
349,-561,735
351,-564,729
349,-561,738
345,-562,735
344,-566,736
346,-564,737
346,-564,734
343,-564,735
347,-565,736
349,-568,733
345,-563,735
353,-560,737
349,-564,730
352,-558,738
352,-568,735
348,-561,737
351,-563,736
346,-569,734
350,-566,735
344,-562,731
341,-563,733
351,-566,735
351,-569,733
348,-559,736
347,-564,739
348,-564,731
349,-563,736
349,-557,738
344,-563,731
348,-569,734
347,-563,735
349,-560,736
348,-565,735
343,-560,733
346,-559,733
350,-567,735
350,-563,734
343,-566,735
345,-565,733
345,-554,739
347,-559,738
319,-541,654
346,-555,738
347,-564,732
348,-559,738
340,-563,735
345,-562,733
349,-560,740
344,-561,742
343,-566,736
344,-561,739
348,-564,737
344,-562,735
342,-565,738
347,-568,737
348,-560,735
349,-559,737
346,-562,737
354,-559,736
349,-564,737
343,-565,735
345,-563,737
348,-561,736
345,-560,739
346,-564,735
353,-565,739
348,-561,737
343,-560,732
344,-558,738
354,-561,735
349,-559,737
351,-558,738
347,-563,734
348,-561,739
341,-558,740
348,-561,736
344,-565,735
346,-560,736
347,-561,742
347,-558,741
351,-567,735
345,-561,736
341,-562,735
344,-560,737
344,-560,737
345,-564,737
345,-567,736
352,-560,734
351,-563,739
347,-564,736
352,-563,733
347,-559,737
348,-561,739
349,-561,738
348,-563,736
345,-562,737
348,-563,735
346,-559,735
350,-562,739
349,-562,732
345,-559,734
349,-556,736
348,-561,736
349,-564,734
351,-561,736
343,-565,736
349,-561,737
346,-562,732
355,-535,747
348,-529,749
350,-536,743
343,-528,749
331,-542,727
390,-413,821
353,-503,759
374,-494,785
332,-404,833
399,-280,866
371,-288,811
353,-221,895
331,-207,895
342,-161,922
319,-275,865
376,-156,912
362,-261,877
313,-304,878
273,-331,865
344,-263,882
317,-299,858
298,-227,841
339,-212,935
206,-445,863
400,-288,896
358,-394,833
327,-420,826
342,-333,876
363,-449,791
346,-518,779
322,-509,775
352,-529,778
328,-503,784
313,-528,770
337,-561,753
322,-558,752
318,-562,756
319,-567,745
321,-570,746
324,-548,752
314,-546,716
334,-571,743
339,-563,733
344,-564,733
345,-557,744
351,-558,740
342,-554,735
348,-563,734
347,-558,736
354,-560,741
350,-562,738
353,-556,739
351,-564,738
342,-566,740
344,-562,736
347,-558,739
355,-562,735
347,-562,736
357,-560,737
349,-564,738
350,-559,737
351,-556,735
354,-557,737
352,-556,739
350,-558,741
351,-555,738
351,-557,740
345,-562,740
350,-557,736
343,-553,737
343,-551,739
347,-560,740
351,-559,741
346,-552,743
352,-557,738
347,-562,735
350,-555,738
349,-556,738
351,-553,741
351,-553,737
350,-556,737
355,-554,736
351,-559,738
345,-556,736
348,-556,738
347,-557,737
347,-564,739
340,-563,737
343,-564,735
345,-563,737
344,-559,739
340,-568,731
344,-566,737
343,-559,739
349,-560,739
349,-561,737
351,-555,737
342,-558,739
340,-562,741
344,-563,744
341,-554,744
342,-561,738
345,-565,740
341,-556,740
340,-561,744
341,-560,738
349,-555,746
338,-558,740
345,-556,741
351,-553,741
337,-556,742
348,-538,754
335,-547,748
334,-552,749
330,-536,753
348,-541,754
344,-536,753
338,-539,755
341,-544,750
334,-548,750
343,-543,752
338,-580,731
335,-544,746
333,-555,750
344,-556,745
350,-578,749
344,-557,746
336,-571,737
328,-551,745
365,-451,874
341,-724,767
162,-382,625
74,-834,628
309,-598,791
244,-548,812
262,-548,736
360,-486,809
305,-645,679
314,-539,740
330,-575,710
354,-595,735
354,-593,697
351,-604,689
370,-510,709
331,-566,801
366,-491,794
387,-503,821
349,-683,667
343,-733,615
341,-673,645
337,-679,648
342,-687,628
348,-636,682
369,-760,645
349,-603,716
290,-549,727
280,-551,675
307,-585,789
331,-544,749
363,-527,747
389,-416,819
347,-582,723
339,-548,752
341,-557,744
350,-533,750
340,-528,646
349,-542,750
350,-541,749
346,-550,746
342,-545,748
354,-545,743
354,-541,751
354,-551,742
346,-539,750
352,-543,749
355,-544,747
352,-540,752
348,-545,745
356,-538,749
352,-544,748
354,-541,747
354,-544,750
353,-539,749
355,-535,754
349,-545,750
356,-537,750
354,-535,751
352,-539,748
355,-539,750
349,-542,750
346,-544,747
356,-542,747
351,-544,746
352,-541,747
351,-543,750
355,-541,746
355,-541,744
355,-543,747
350,-544,746
357,-536,752
355,-542,747
355,-540,749
353,-537,750
349,-540,749
354,-538,750
352,-541,750
358,-541,749
354,-541,744
352,-538,747
355,-547,747
348,-546,746
356,-542,750
351,-539,750
350,-540,745
350,-547,748
354,-546,746
352,-543,746
356,-549,743
357,-548,745
351,-541,744
353,-548,744
354,-544,747
349,-549,745
352,-548,745
353,-549,746
350,-550,740
349,-544,742
349,-545,745
352,-552,739
345,-545,746
347,-547,741
351,-548,748
352,-546,743
357,-545,749
352,-549,741
352,-546,750
353,-547,746
352,-550,743
356,-553,743
354,-548,744
354,-543,744
353,-552,739
351,-552,740
356,-550,741
352,-551,742
351,-551,740
356,-541,742
354,-556,735
349,-553,739
352,-556,741
350,-555,741
356,-547,743
354,-553,742
355,-547,741
352,-551,739
356,-552,745
355,-552,744
355,-546,744
354,-556,742
357,-549,744
355,-555,739
354,-550,744
354,-552,744
352,-547,743
352,-557,737
350,-549,741
353,-546,744
354,-551,740
353,-549,737
354,-553,744
377,-548,755
356,-544,742
354,-552,741
355,-558,741
340,-548,741
353,-551,744
359,-552,742
352,-547,740
354,-549,743
355,-551,742
352,-552,742
358,-549,742
357,-546,743
351,-552,742
360,-550,742
357,-537,746
358,-537,743
352,-546,744
355,-553,740
354,-551,743
361,-544,742
361,-552,744
357,-545,743
354,-544,744
352,-544,740
362,-550,742
359,-548,741
356,-545,738
352,-551,743
358,-540,744
354,-552,742
355,-546,744
358,-546,744
359,-550,740
356,-549,743
356,-552,742
362,-544,738
359,-550,744
358,-546,742
351,-544,746
352,-549,742
348,-546,744
351,-547,740
355,-551,739
356,-550,740
355,-549,741
359,-539,743
355,-544,746
359,-543,745
357,-547,743
359,-549,741
361,-548,742
357,-548,743
359,-545,741
355,-544,745
359,-548,744
356,-546,742
359,-545,743
357,-547,740
356,-545,742
357,-544,742
352,-547,745
360,-547,743
359,-540,746
359,-543,742
356,-541,744
357,-545,744
354,-542,739
354,-546,740
352,-543,746
363,-544,742
353,-558,740
353,-547,742
358,-545,745
360,-545,741
356,-548,750
357,-547,744
353,-549,742
356,-545,745
358,-547,749
359,-545,743
361,-549,737
356,-546,742
360,-541,745
349,-544,746
357,-544,746
350,-550,742
360,-548,743
354,-549,743
361,-547,743
354,-546,743
354,-547,742
352,-541,742
358,-545,742
355,-547,739
353,-544,745
355,-554,740
355,-553,743
363,-544,745
356,-544,741
358,-550,741
355,-544,742
351,-546,744
357,-544,742
361,-545,740
354,-548,744
356,-545,746
357,-538,744
354,-550,743
355,-546,743
357,-545,741
355,-547,743
356,-548,743
355,-546,741
353,-541,746
358,-542,743
350,-544,740
357,-545,742
360,-543,745
359,-547,744
359,-544,744
362,-541,749
357,-547,739
358,-545,741
355,-546,744
356,-546,742
356,-547,744
354,-544,743
355,-547,743
355,-543,741
355,-546,741
362,-545,743
355,-548,738
355,-542,743
356,-550,745
362,-544,743
356,-546,742
358,-543,741
353,-546,745
360,-546,740
354,-549,745
352,-549,739
356,-556,737
358,-550,738
359,-547,737
358,-553,739
350,-557,735
353,-559,736
349,-563,729
349,-562,733
349,-563,728
345,-564,734
354,-565,735
350,-566,731
345,-569,735
350,-559,735
354,-565,733
346,-566,732
347,-550,738
349,-559,734
347,-556,733
355,-553,742
355,-552,740
357,-557,741
353,-554,741
354,-548,743
355,-553,741
356,-561,735
355,-560,734
350,-549,740
355,-560,733
354,-558,733
354,-558,741
354,-557,738
352,-551,739
350,-552,740
355,-559,737
357,-552,742
354,-548,741
358,-551,741
356,-557,740
354,-551,739
350,-549,738
354,-548,743
356,-546,743
353,-550,735
350,-547,742
348,-553,737
353,-556,738
351,-550,740
358,-551,740
353,-555,741
355,-549,739
352,-554,738
355,-551,738
354,-553,740
351,-550,739
355,-553,739
352,-551,742
361,-551,741
356,-551,737
353,-552,737
351,-553,738
356,-551,737
354,-554,740
351,-551,740
348,-553,744
357,-548,739
356,-550,740
354,-556,738
359,-552,740
353,-551,737
358,-550,742
357,-553,737
354,-545,738
350,-548,736
359,-556,740
352,-548,738
352,-552,735
355,-557,741
351,-551,740
352,-557,742
351,-551,740
356,-554,740
358,-551,747
352,-552,739
357,-551,742
358,-553,742
349,-548,743
355,-555,737
360,-550,742
354,-559,738
354,-548,742
353,-548,737
355,-554,735
348,-556,740
359,-548,741
354,-554,739
352,-552,743
357,-550,742
358,-557,737
360,-542,744
360,-552,744
359,-550,740
356,-552,742
358,-554,737
354,-553,733
358,-544,744
360,-551,740
355,-544,740
356,-547,743
356,-547,740
359,-547,744
360,-553,742
360,-544,741
364,-546,742
361,-547,741
356,-544,740
360,-544,745
353,-547,743
357,-547,745
360,-545,740
354,-549,740
357,-547,740
355,-551,743
353,-555,739
352,-550,742
357,-549,742
359,-545,743
354,-547,740
361,-544,740
358,-548,744
354,-545,743
363,-543,745
354,-547,740
357,-546,740
356,-545,743
363,-548,740
356,-544,745
353,-553,742
354,-549,743
355,-547,743
362,-548,746
355,-551,742
354,-552,741
350,-544,742
362,-543,745
359,-546,745
359,-546,743
353,-549,746
353,-550,745
357,-551,745
359,-545,744
362,-548,745
356,-544,744
353,-551,741
356,-549,742
357,-545,742
354,-545,743
361,-547,741
354,-554,744
353,-545,747
355,-547,741
358,-544,742
355,-547,742
354,-545,743
355,-544,742
357,-545,743
359,-544,738
358,-551,739
358,-550,741
359,-553,744
354,-554,747
357,-542,744
354,-547,742
352,-549,742
356,-542,741
359,-539,750
352,-555,739
361,-553,743
358,-545,741
359,-550,741
358,-551,739
353,-547,742
350,-548,744
352,-546,744
364,-550,741
353,-547,740
357,-550,742
357,-553,738
357,-550,742
357,-549,740
359,-550,744
352,-551,741
358,-550,742
354,-543,743
357,-548,741
352,-548,741
359,-552,740
362,-550,742
362,-551,744
357,-550,742
357,-549,742
352,-552,740
354,-545,748
359,-549,740
354,-547,742
356,-555,738
357,-546,742
353,-547,740
353,-548,746
354,-550,742
358,-549,741
356,-553,738
363,-547,742
357,-549,739
354,-551,737
357,-546,746
359,-551,743
354,-551,739
357,-547,739
357,-548,739
357,-549,741
354,-549,743
358,-550,740
357,-547,739
352,-548,744
355,-549,742
360,-549,743
358,-543,742
352,-547,742
360,-542,743
353,-551,737
357,-549,740
360,-547,744
358,-551,736
355,-548,739
355,-544,743
356,-547,741
358,-552,738
355,-551,740
353,-550,743
358,-548,742
359,-547,745
361,-548,742
358,-549,739
358,-551,739
354,-546,745
354,-556,741
358,-552,741
355,-552,737
358,-542,742
357,-546,739
354,-551,741
357,-548,738
361,-541,743
358,-548,741
358,-553,738
356,-553,740
353,-545,742
364,-546,746
361,-552,739
356,-550,741
350,-551,743
356,-554,740
357,-548,741
357,-550,739
359,-550,740
357,-553,741
357,-553,740
354,-550,745
354,-548,738
355,-553,740
354,-553,738
354,-549,741
351,-549,737
358,-545,744
359,-552,744
355,-547,739
357,-547,742
355,-552,743
355,-548,743
354,-546,736
357,-547,742
358,-550,739
355,-545,742
361,-552,739
356,-550,739
361,-546,745
356,-550,742
357,-553,740
359,-546,737
356,-554,739
355,-549,740
359,-554,740
360,-541,744
354,-548,742
356,-554,739
354,-554,740
353,-540,739
361,-552,741
349,-551,737
354,-548,743
354,-554,740
356,-546,746
356,-546,740
354,-554,739
355,-546,736
362,-548,738
360,-548,744
360,-547,745
356,-549,738
357,-552,737
356,-551,738
363,-549,738
351,-549,741
363,-546,741
358,-547,739
355,-546,739
360,-550,745
356,-546,743
354,-547,740
355,-549,739
357,-552,742
359,-552,740
358,-545,740
350,-549,739
358,-548,742
356,-547,746
360,-546,740
354,-548,739
359,-550,739
354,-550,739
362,-545,742
359,-551,738
354,-555,736
358,-551,742
360,-552,741
357,-549,744
361,-549,743
362,-547,743
358,-546,740
359,-546,742
354,-547,741
362,-551,741
360,-549,743
361,-544,741
360,-549,744
359,-550,745
357,-550,739
359,-551,742
357,-548,739
356,-550,746
362,-549,739
358,-546,741
356,-550,743
359,-544,742
354,-545,742
359,-548,744
356,-549,739
357,-550,739
357,-546,739
355,-549,741
358,-549,737
352,-546,741
357,-556,741
359,-552,743
360,-543,745
357,-545,743
361,-544,745
360,-544,742
363,-545,750
359,-544,743
363,-543,747
359,-539,744
383,-544,761
361,-552,742
358,-550,743
356,-550,737
358,-550,739
357,-543,741
357,-547,744
355,-548,739
363,-548,742
359,-546,742
360,-549,741
358,-551,738
357,-547,741
361,-548,738
358,-543,743
361,-546,741
365,-546,741
360,-544,745
360,-550,741
356,-549,741
358,-544,743
358,-545,744
358,-548,746
357,-545,744
360,-540,741
356,-546,745
362,-542,741
359,-553,740
359,-544,742
361,-541,741
360,-541,745
364,-543,744
356,-541,744
360,-539,740
356,-544,742
360,-543,742
358,-546,738
353,-541,744
359,-542,742
364,-545,741
363,-547,743
368,-537,748
358,-541,738
364,-538,743
358,-543,744
357,-543,746
360,-549,740
359,-542,740
354,-543,740
353,-550,740
359,-545,743
355,-548,745
358,-550,741
358,-542,748
359,-543,742
364,-545,740
360,-542,744
359,-541,740
363,-546,744
364,-543,741
357,-541,745
360,-544,744
355,-545,743
354,-545,741
357,-542,742
359,-545,743
357,-543,746
355,-546,744
362,-543,745
356,-548,742
362,-542,747
361,-542,744
362,-544,743
363,-546,745
353,-546,747
361,-543,744
361,-547,744
362,-550,742
357,-547,743
357,-544,742
358,-546,744
354,-542,743
361,-540,747
358,-545,739
350,-546,745
359,-547,744
357,-541,747
359,-549,740
354,-542,748
356,-543,741
362,-537,745
355,-546,746
360,-545,747
356,-545,743
361,-545,740
359,-540,745
361,-543,741
359,-543,744
359,-545,743
358,-542,743
363,-544,744
359,-541,741
364,-543,742
353,-549,741
361,-547,743
362,-546,744
359,-541,741
363,-544,746
366,-546,740
359,-549,740
358,-549,744
357,-546,743
357,-546,742
358,-547,745
352,-547,741
360,-549,743
357,-548,743
356,-545,741
357,-549,739
356,-549,743
362,-545,743
362,-546,740
360,-547,742
357,-541,743
357,-544,743
364,-542,744
362,-545,741
357,-549,742
356,-547,740
355,-552,744
361,-545,743
362,-541,741
352,-550,741
358,-551,738
358,-541,744
358,-544,744
354,-546,737
357,-546,738
358,-544,743
363,-545,744
354,-543,746
357,-547,743
359,-544,741
358,-548,742
351,-546,740
353,-545,741
356,-545,739
352,-548,743
355,-552,740
355,-546,739
369,-547,741
362,-544,740
353,-548,743
353,-553,739
353,-538,741
360,-541,745
358,-548,740
361,-548,749
370,-542,742
357,-557,738
357,-545,739
354,-545,740
355,-561,738
352,-543,738
368,-535,750
357,-546,745
352,-541,741
346,-552,738
358,-542,748
363,-538,743
369,-539,744
367,-545,749
358,-556,737
347,-550,742
350,-557,736
358,-546,742
350,-546,744
357,-546,744
368,-548,745
365,-550,741
362,-543,743
364,-537,742
352,-549,739
357,-554,738
358,-537,747
365,-548,741
359,-544,740
358,-541,753
363,-547,742
358,-544,737
360,-538,742
352,-554,743
353,-543,745
356,-551,740
360,-542,743
355,-549,744
360,-542,746
359,-546,742
357,-548,740
353,-540,747
357,-548,741
356,-549,742
359,-542,746
356,-545,742
351,-557,738
352,-549,743
353,-546,741
363,-547,743
359,-546,743
357,-544,739
354,-544,742
353,-544,747
355,-547,745
359,-544,743
361,-547,743
354,-547,742
356,-542,744
355,-544,745
355,-545,744
356,-546,745
356,-542,742
358,-551,746
353,-552,737
360,-548,742
354,-548,742
357,-548,740
356,-547,746
360,-548,739
357,-554,743
357,-549,742
354,-547,742
354,-546,743
356,-550,742
360,-555,738
353,-546,744
354,-548,743
356,-552,741
354,-547,741
362,-552,746
358,-547,738
357,-544,745
357,-551,742
357,-542,744
359,-540,748
357,-545,744
353,-546,740
355,-544,743
354,-548,741
356,-548,745
355,-548,745
363,-543,743
361,-540,743
355,-551,745
354,-548,741
355,-551,742
355,-543,746
358,-546,740
359,-543,746
352,-549,740
354,-545,746
356,-547,744
352,-543,743
351,-544,742
354,-551,740
351,-551,742
352,-545,741
353,-551,741
355,-549,745
351,-542,740
364,-543,745
355,-550,743
358,-542,742
355,-546,744
359,-546,740
361,-547,741
354,-550,741
356,-543,746
358,-539,744
359,-550,740
351,-546,739
354,-547,742
358,-550,742
356,-547,740
361,-543,740
354,-549,742
355,-552,743
355,-549,739
355,-546,739
355,-544,744
351,-548,740
356,-550,742
353,-546,741
355,-547,741
354,-549,744
348,-552,743
350,-547,740
362,-546,743
350,-551,744
354,-549,740
348,-548,741
350,-551,743
352,-559,745
350,-553,741
355,-547,745
358,-552,739
354,-554,742
354,-551,743
352,-550,739
356,-546,743
353,-548,744
357,-541,741
356,-552,741
356,-545,739
358,-548,743
357,-547,740
359,-536,748
350,-552,740
353,-551,740
357,-548,744
354,-551,738
354,-553,740
352,-552,742
360,-547,746
352,-553,740
352,-549,743
356,-548,744
355,-551,742
352,-552,743
356,-550,742
357,-553,744
356,-543,746
356,-549,744
357,-557,739
355,-544,746
359,-548,743
355,-546,739
348,-547,746
356,-544,742
359,-543,744
355,-548,738
351,-548,745
351,-535,747
357,-546,743
382,-576,783
359,-549,734
357,-544,743
360,-541,744
359,-542,743
359,-545,744
354,-549,740
357,-539,747
361,-549,742
357,-543,745
353,-544,742
355,-542,746
359,-545,744
358,-545,746
354,-548,742
358,-551,746
360,-545,742
356,-551,746
355,-542,747
356,-544,746
354,-550,744
353,-544,747
359,-541,743
354,-543,743
355,-546,742
354,-543,748
354,-541,748
355,-556,738
356,-546,744
360,-545,745
355,-543,747
355,-543,741
354,-547,744
351,-554,741
348,-550,740
361,-544,747
354,-545,745
350,-549,744
351,-544,742
358,-552,741
348,-554,743
357,-546,745
352,-547,744
357,-550,741
349,-551,740
357,-546,744
356,-546,741
354,-540,741
353,-554,742
354,-547,743
346,-547,745
355,-548,741
357,-551,744
356,-546,745
355,-547,745
354,-547,741
358,-543,747
359,-547,746
356,-545,749
349,-551,745
350,-546,746
356,-547,747
359,-541,748
355,-538,745
354,-542,744
352,-546,743
356,-543,744
352,-551,743
350,-545,745
357,-541,747
355,-550,745
355,-539,747
354,-545,747
362,-538,752
354,-540,746
358,-544,749
352,-543,750
353,-543,745
355,-544,746
357,-542,747
352,-546,746
350,-551,745
350,-548,743
358,-539,745
354,-542,747
355,-545,748
352,-540,748
356,-543,745
358,-543,745
352,-538,745
351,-543,744
352,-546,745
355,-542,745
355,-550,743
352,-542,743
359,-541,748
350,-546,745
355,-548,746
350,-546,741
349,-545,743
358,-544,747
355,-538,753
350,-553,741
357,-546,747
353,-552,749
356,-547,747
357,-539,747
358,-539,748
357,-551,741
357,-545,741
356,-544,746
352,-545,748
356,-544,747
355,-547,742
359,-545,744
351,-543,745
355,-544,747
353,-546,743
347,-550,744
353,-538,747
359,-541,746
355,-548,744
354,-539,748
359,-538,743
351,-550,746
354,-535,750
354,-545,739
363,-546,744
356,-546,745
357,-540,749
355,-541,742
358,-544,747
354,-543,746
357,-541,747
358,-543,743
350,-543,748
359,-539,746
359,-527,755
365,-537,752
367,-561,757
352,-564,734
347,-549,743
364,-536,749
363,-519,756
355,-535,751
355,-542,746
354,-522,751
363,-502,753
367,-519,760
357,-526,754
357,-518,759
356,-531,750
349,-532,753
360,-529,752
360,-521,758
359,-520,755
361,-524,752
357,-528,759
356,-529,753
363,-523,750
355,-520,758
358,-523,753
357,-531,755
358,-519,758
361,-525,760
360,-530,753
357,-522,756
359,-529,754
359,-520,761
358,-528,754
353,-539,752
358,-522,757
358,-534,750
366,-509,766
356,-520,759
355,-531,758
365,-530,751
371,-520,757
364,-530,754
352,-523,755
359,-529,752
350,-539,749
355,-540,750
355,-540,751
354,-543,749
358,-539,751
364,-523,754
354,-533,751
352,-545,754
359,-531,757
358,-518,756
354,-527,755
356,-533,753
364,-526,756
361,-527,754
358,-531,757
355,-534,754
359,-530,753
355,-541,749
359,-530,754
349,-526,752
355,-535,753
357,-532,753
354,-529,755
353,-533,753
360,-538,753
358,-527,759
357,-530,757
354,-530,754
352,-528,758
352,-533,750
359,-530,755
357,-537,748
351,-544,748
357,-532,750
361,-531,752
356,-539,755
361,-534,755
361,-532,756
356,-528,753
353,-533,749
347,-539,750
356,-532,751
358,-531,750
359,-529,753
354,-537,751
352,-536,750
357,-536,751
359,-542,748
356,-534,750
354,-531,755
360,-532,751
351,-535,755
353,-538,753
359,-538,751
361,-527,757
359,-532,750
355,-530,752
352,-533,750
354,-529,755
355,-537,752
356,-538,753
351,-536,751
354,-532,747
352,-540,751
357,-532,751
355,-532,750
356,-536,748
353,-539,750
351,-546,750
352,-542,749
358,-545,746
351,-538,747
354,-544,748
356,-535,752
355,-538,752
352,-540,749
351,-543,748
355,-537,753
354,-534,750
360,-529,753
347,-528,751
354,-535,755
353,-542,748
357,-542,748
350,-547,743
354,-541,745
359,-532,749
358,-539,750
349,-542,746
352,-544,748
350,-544,750
354,-541,746
351,-542,747
349,-543,747
354,-537,749
351,-539,750
356,-542,750
356,-532,749
353,-539,751
349,-543,747
357,-535,749
355,-539,746
356,-540,749
348,-536,752
352,-547,745
347,-546,746
349,-545,748
352,-542,750
352,-539,750
352,-549,747
348,-544,749
356,-541,750
355,-538,751
353,-547,746
355,-541,746
355,-540,744
356,-530,749
357,-530,750
355,-547,746
347,-541,744
355,-539,748
356,-535,751
354,-542,750
353,-536,751
356,-537,752
355,-543,748
350,-540,750
353,-541,750
354,-539,747
346,-549,741
351,-537,748
351,-535,749
353,-546,747
354,-539,745
354,-540,747
350,-550,749
351,-541,745
355,-541,750
356,-536,747
356,-544,744
352,-538,750
350,-542,747
349,-542,747
358,-541,750
350,-544,746
349,-545,749
351,-543,748
349,-545,749
351,-540,748
354,-541,742
353,-544,746
355,-545,747
352,-540,748
355,-546,748
353,-542,748
354,-535,747
352,-541,748
350,-538,749
356,-544,744
347,-546,744
358,-548,746
357,-543,750
350,-541,747
351,-542,748
357,-535,751
351,-543,746
349,-538,750
354,-543,748
352,-541,748
348,-552,744
354,-541,746
351,-538,748
353,-552,743
355,-544,749
348,-551,745
348,-549,745
354,-546,748
350,-544,748
354,-542,747
346,-540,746
349,-541,749
352,-543,744
346,-541,744
352,-550,746
351,-545,748
346,-542,746
354,-539,750
352,-544,745
351,-541,747
357,-542,748
351,-538,750
352,-540,750
354,-541,750
351,-541,750
352,-545,743
354,-546,745
352,-536,748
354,-551,745
352,-545,743
352,-544,749
352,-545,745
354,-545,746
352,-541,748
352,-546,745
355,-543,747
357,-542,748
345,-546,745
351,-548,747
354,-540,749
345,-550,745
340,-566,738
350,-550,747
349,-552,738
347,-560,732
355,-545,743
350,-534,756
348,-540,748
347,-538,751
352,-540,751
353,-536,751
355,-539,751
346,-529,748
354,-532,754
351,-539,748
350,-544,752
350,-535,752
353,-520,754
352,-533,761
347,-536,752
345,-539,755
347,-526,758
354,-531,756
350,-532,760
353,-534,754
353,-532,754
350,-533,754
353,-532,754
355,-530,752
347,-537,757
351,-540,748
350,-535,752
347,-528,756
349,-532,751
355,-533,757
352,-536,750
355,-535,752
355,-531,752
350,-537,752
350,-532,751
356,-536,750
354,-541,752
344,-551,748
348,-543,750
351,-542,751
351,-546,745
355,-533,749
351,-537,750
346,-540,746
356,-537,752
350,-541,750
350,-538,750
344,-542,751
353,-532,750
349,-541,748
351,-540,750
353,-537,749
352,-537,754
350,-547,744
350,-541,743
344,-542,747
346,-553,746
347,-544,752
350,-548,747
349,-542,748
349,-546,747
354,-550,745
348,-547,749
349,-544,749
346,-545,746
347,-545,750
349,-544,746
352,-541,747
355,-542,745
351,-544,750
349,-541,750
351,-547,750
349,-540,749
350,-541,747
350,-544,750
349,-541,750
348,-548,743
342,-554,744
348,-541,747
350,-546,747
348,-552,743
348,-546,750
348,-548,745
345,-545,745
357,-543,742
351,-548,746
349,-551,746
353,-538,750
351,-547,743
350,-546,744
354,-541,745
348,-545,747
346,-548,743
350,-545,744
346,-539,748
353,-551,746
350,-548,746
346,-542,743
348,-553,744
352,-555,742
346,-546,746
345,-546,745
352,-548,747
349,-550,743
356,-541,747
344,-546,745
352,-541,748
353,-540,748
351,-543,748
353,-545,748
354,-540,748
356,-542,750
353,-542,749
356,-542,747
354,-541,749
354,-543,749
351,-546,747
356,-540,751
352,-542,750
357,-541,746
353,-543,746
356,-536,747
354,-539,746
355,-543,749
350,-547,750
352,-544,744
356,-541,743
349,-539,747
353,-544,747
350,-539,746
350,-541,748
351,-541,750
353,-547,747
353,-539,749
352,-544,747
351,-547,744
350,-542,746
356,-543,745
349,-552,744
350,-542,750
354,-545,746
350,-544,746
347,-543,747
349,-546,748
355,-545,747
350,-542,748
353,-547,748
347,-539,745
348,-540,749
353,-540,748
351,-545,743
360,-535,748
350,-543,746
352,-538,742
351,-545,747
350,-539,748
351,-548,747
354,-541,745
355,-545,748
351,-542,749
359,-536,748
351,-539,747
354,-541,748
354,-538,749
356,-545,749
348,-542,746
351,-533,750
353,-542,748
352,-540,747
353,-548,747
353,-543,740
352,-549,746
352,-544,747
354,-551,745
356,-549,742
348,-548,740
351,-547,742
352,-548,744
349,-547,743
351,-545,750
349,-540,747
354,-540,750
351,-546,744
354,-539,748
354,-542,747
352,-544,746
355,-546,746
355,-543,748
358,-537,748
351,-537,749
356,-537,750
357,-542,749
356,-545,746
351,-537,750
354,-541,748
348,-542,750
354,-541,748
353,-543,745
357,-534,750
350,-547,744
354,-540,750
354,-546,748
351,-547,747
349,-542,745
350,-547,744
354,-545,746
354,-543,744
352,-546,743
350,-549,745
353,-544,746
355,-555,744
354,-544,745
349,-541,746
355,-545,743
356,-546,745
348,-547,741
357,-549,744
358,-542,747
357,-541,749
354,-541,745
356,-543,745
361,-538,750
353,-543,745
359,-539,749
358,-538,754
352,-541,750
353,-536,749
357,-540,749
356,-541,746
355,-537,747
347,-537,748
353,-541,746
355,-543,749
351,-552,745
351,-543,747
352,-543,747
356,-546,746
353,-546,750
357,-543,746
358,-542,748
357,-546,743
353,-546,746
352,-541,744
353,-542,747
348,-542,746
355,-544,745
355,-544,741
351,-542,745
357,-544,745
353,-542,751
353,-544,748
352,-540,745
356,-545,750
348,-541,743
356,-550,746
355,-544,745
355,-544,744
355,-543,748
353,-540,748
357,-541,750
356,-535,744
362,-537,747
353,-541,744
360,-540,747
358,-538,748
357,-541,750
360,-537,746
356,-535,747
355,-535,748
355,-542,745
357,-541,747
359,-536,745
360,-539,744
360,-544,741
361,-535,748
359,-537,751
359,-540,748
358,-538,749
357,-537,751
356,-539,748
357,-539,749
358,-541,742
354,-537,747
356,-545,746
353,-540,748
350,-547,749
347,-544,744
356,-543,745
349,-552,743
357,-538,750
353,-545,743
344,-545,747
353,-542,746
354,-541,749
350,-545,745
354,-540,748
352,-541,743
350,-543,748
358,-534,747
354,-541,750
354,-541,743
355,-540,750
360,-534,748
355,-542,749
360,-539,748
354,-540,749
358,-540,748
358,-539,747
358,-533,750
351,-549,743
355,-539,747
355,-541,746
356,-540,745
358,-537,748
353,-548,745
356,-542,745
361,-536,747
358,-537,749
361,-540,743
354,-540,746
358,-538,743
354,-536,749
352,-541,749
358,-548,748
356,-538,752
355,-543,746
359,-539,748
357,-541,746
354,-537,748
353,-539,749
360,-542,748
354,-536,750
364,-530,754
356,-539,748
361,-540,752
353,-533,748
362,-541,746
354,-542,746
355,-541,743
353,-539,747
358,-531,746
359,-543,744
352,-541,749
358,-534,750
356,-541,747
359,-541,747
356,-538,748
363,-536,748
358,-541,749
362,-533,746
361,-536,749
357,-541,748
357,-536,746
355,-537,750
355,-537,748
354,-537,745
357,-538,750
351,-537,749
353,-550,743
352,-536,751
353,-539,747
351,-556,747
347,-548,742
352,-550,741
350,-545,745
355,-542,744
351,-547,744
354,-545,744
351,-546,745
358,-537,748
358,-543,746
356,-541,746
354,-546,747
355,-544,745
355,-537,747
354,-541,745
356,-539,745
358,-531,751
359,-542,750
362,-538,748
352,-541,744
354,-542,745
352,-546,744
347,-553,742
346,-555,741
354,-550,745
347,-551,741
351,-550,746
351,-547,735
347,-549,742
353,-551,744
350,-558,741
354,-548,743
347,-550,743
358,-546,745
349,-549,743
350,-544,742
353,-543,742
351,-546,747
355,-541,749
353,-546,746
346,-545,745
350,-546,748
356,-541,748
348,-544,744
351,-554,743
347,-558,741
355,-553,744
350,-552,741
351,-555,747
353,-547,740
354,-554,742
349,-546,744
353,-548,742
356,-545,747
352,-543,747
354,-546,743
350,-552,742
346,-549,742
349,-543,745
353,-543,749
348,-549,745
360,-540,749
352,-542,746
355,-541,747
356,-547,742
350,-545,743
349,-556,740
350,-555,744
349,-543,746
347,-553,743
352,-552,741
351,-549,743
352,-547,746
347,-550,744
347,-551,746
353,-553,741
346,-550,742
347,-545,745
350,-552,744
354,-547,746
347,-551,743
348,-547,743
352,-552,746
348,-544,746
347,-542,744
353,-546,745
355,-549,746
353,-539,744
347,-544,749
354,-546,748
348,-545,749
353,-548,745
345,-555,741
346,-545,742
353,-544,747
350,-551,744
352,-548,746
351,-552,743
346,-558,741
355,-547,745
354,-549,740
345,-548,746
356,-547,746
352,-547,745
354,-544,746
350,-546,743
351,-546,746
351,-548,745
351,-542,743
349,-549,746
348,-548,746
346,-558,740
351,-550,742
353,-545,739
353,-554,741
352,-551,741
350,-549,745
353,-550,741
349,-548,745
344,-547,741
351,-550,742
351,-549,744
342,-554,741
353,-548,745
353,-551,742
355,-551,748
347,-551,742
352,-551,743
354,-543,744
355,-548,746
352,-544,749
354,-545,746
352,-546,741
356,-542,741
354,-546,746
351,-551,743
348,-547,741
354,-537,749
351,-553,745
348,-547,748
351,-542,744
351,-553,743
347,-548,739
346,-547,747
346,-547,744
350,-553,740
350,-554,743
352,-548,743
344,-552,744
347,-547,745
352,-549,742
348,-543,743
351,-544,747
348,-553,743
352,-547,747
354,-545,746
358,-541,750
350,-545,747
346,-542,748
351,-543,746
351,-541,750
354,-541,748
355,-543,747
351,-544,745
351,-541,749
357,-540,748
356,-543,750
353,-539,746
355,-544,745
354,-550,745
352,-547,746
349,-546,743
357,-541,741
348,-546,745
353,-546,745
351,-547,744
353,-541,747
354,-540,748
352,-549,747
357,-539,749
355,-541,748
354,-539,747
353,-542,745
353,-539,744
356,-537,750
356,-539,744
356,-543,748
354,-539,748
358,-539,748
351,-540,746
352,-541,749
354,-535,750
357,-541,745
364,-542,750
352,-545,749
350,-542,750
358,-541,752
351,-550,748
352,-534,750
355,-546,747
356,-538,747
356,-532,753
355,-540,747
350,-537,749
350,-546,746
356,-533,745
356,-538,747
353,-538,747
357,-544,750
344,-553,742
358,-533,748
348,-558,744
345,-549,737
348,-564,738
346,-564,734
348,-556,741
351,-544,739
354,-543,741
341,-549,725
357,-568,736
353,-557,740
351,-548,744
333,-562,751
328,-590,730
341,-564,737
356,-540,751
346,-554,743
342,-566,731
347,-550,744
348,-552,749
350,-564,739
358,-532,755
354,-557,734
350,-551,742
355,-542,741
357,-539,746
355,-536,746
353,-551,747
351,-540,748
363,-544,751
358,-535,752
354,-544,744
352,-532,747
354,-536,748
360,-538,751
354,-530,750
359,-536,746
354,-539,751
356,-529,750
360,-534,750
358,-535,752
354,-535,751
356,-531,748
357,-534,749
361,-523,750
357,-539,749
353,-542,749
356,-536,755
356,-537,750
354,-536,753
355,-532,750
358,-535,749
360,-533,751
360,-536,750
356,-530,748
354,-533,749
358,-535,751
360,-538,749
359,-537,748
354,-530,751
349,-536,750
358,-532,750
357,-533,752
360,-533,750
355,-537,747
353,-540,750
350,-540,746
360,-535,751
356,-538,748
355,-541,745
359,-543,749
355,-545,747
357,-532,751
359,-539,747
356,-537,750
361,-535,746
358,-538,749
359,-537,750
359,-538,749
360,-541,745
358,-540,747
357,-535,749
364,-535,750
355,-540,748
354,-536,751
353,-538,751
359,-532,752
357,-538,749
355,-534,749
359,-539,749
356,-534,749
360,-529,752
355,-540,749
358,-544,749
358,-535,749
362,-531,750
362,-546,743
356,-535,750
361,-534,751
357,-536,749
357,-535,750
364,-533,750
362,-533,751
359,-537,749
354,-539,747
359,-536,749
357,-534,749
355,-535,749
355,-536,748
354,-538,749
358,-537,747
358,-537,751
354,-537,750
360,-533,746
358,-537,749
349,-538,750
353,-542,750
356,-535,747
358,-533,750
354,-543,748
357,-535,747
354,-542,750
357,-534,750
360,-537,745
356,-537,750
357,-543,746
352,-536,748
357,-534,747
364,-541,748
358,-535,750
356,-538,749
360,-541,751
359,-532,750
355,-539,750
363,-543,746
361,-536,745
354,-529,754
354,-544,743
358,-535,746
361,-530,750
358,-538,746
359,-537,748
354,-541,744
348,-542,743
356,-539,748
354,-542,747
355,-541,748
350,-541,752
357,-542,749
360,-537,750
353,-546,741
355,-546,745
356,-542,746
357,-543,749
359,-540,747
357,-547,747
354,-553,741
350,-542,744
355,-546,744
353,-546,743
353,-546,743
354,-542,744
354,-548,745
353,-541,750
359,-541,744
358,-535,748
355,-539,749
359,-545,747
354,-545,745
358,-540,748
354,-539,748
348,-546,746
356,-539,750
357,-535,751
359,-544,741
354,-538,744
359,-543,746
355,-545,743
359,-540,751
358,-538,752
358,-542,748
354,-541,748
357,-541,746
358,-541,750
357,-540,747
348,-541,747
354,-541,751
354,-544,746
358,-540,748
354,-539,750
353,-543,747
350,-544,745
353,-539,746
349,-541,746
357,-539,747
352,-538,746
360,-538,746
358,-544,748
350,-545,745
356,-539,746
357,-539,747
360,-537,752
356,-538,750
353,-541,747
361,-535,747
357,-540,746
359,-542,752
355,-541,750
351,-543,749
353,-537,745
350,-538,747
357,-544,744
354,-536,747
352,-543,750
356,-543,744
352,-539,746
359,-541,747
355,-541,745
354,-540,750
358,-541,742
360,-542,747
357,-539,752
353,-542,744
353,-539,748
354,-543,749
354,-542,750
360,-542,747
357,-543,747
353,-544,745
357,-540,749
355,-542,747
353,-537,748
355,-548,750
354,-536,746
359,-534,749
353,-540,748
357,-538,745
356,-544,750
358,-532,746
359,-534,753
357,-541,748
356,-544,748
357,-539,749
354,-541,751
358,-536,748
360,-541,748
358,-537,746
360,-533,749
359,-543,747
357,-538,746
361,-532,747
348,-546,740
364,-535,748
353,-541,748
353,-534,753
356,-534,751
356,-538,748
354,-546,745
349,-543,747
351,-543,748
347,-548,743
350,-551,746
348,-549,743
346,-540,745
352,-540,745
350,-538,746
348,-548,745
347,-540,748
353,-547,748
348,-544,745
350,-542,751
347,-544,747
353,-540,746
354,-540,751
351,-545,753
353,-540,747
354,-542,750
353,-543,745
352,-539,749
350,-538,750
352,-540,745
357,-541,751
353,-547,748
353,-546,745
350,-544,746
350,-545,751
345,-546,748
357,-542,750
351,-542,748
348,-546,747
352,-539,750
347,-545,749
349,-546,748
344,-549,744
352,-551,751
351,-540,747
350,-542,746
354,-546,748
344,-549,748
348,-548,744
348,-548,746
352,-538,754
348,-550,747
348,-550,745
350,-537,752
350,-546,749
348,-545,748
352,-541,749
351,-542,748
346,-541,752
349,-543,750
356,-545,746
348,-543,747
342,-540,750
353,-541,750
353,-541,748
348,-541,750
350,-545,744
348,-541,750
354,-536,750
353,-547,745
356,-553,742
349,-567,740
357,-535,754
352,-561,744
346,-542,749
355,-545,747
349,-541,757
345,-544,743
350,-537,747
355,-547,744
359,-549,750
354,-541,750
355,-540,749
352,-542,745
347,-527,753
356,-546,743
350,-533,752
359,-539,749
355,-533,755
359,-525,749
358,-539,743
359,-544,744
361,-537,748
361,-532,756
362,-542,744
354,-533,748
357,-541,746
360,-533,749
355,-543,749
360,-537,749
359,-546,745
360,-530,753
359,-538,749
357,-540,743
359,-538,751
364,-540,751
358,-534,750
358,-534,752
362,-539,746
360,-534,750
359,-540,749
363,-543,747
361,-530,753
357,-538,748
356,-545,746
355,-538,748
351,-552,739
363,-490,769
345,-542,730
355,-547,743
362,-532,750
360,-522,754
354,-550,744
357,-533,750
357,-541,752
364,-533,750
355,-532,753
357,-540,748
357,-530,750
355,-534,749
364,-535,749
360,-531,752
359,-532,750
363,-531,747
359,-536,749
361,-531,752
361,-535,746
357,-530,751
351,-533,752
359,-533,751
356,-539,746
354,-529,752
358,-535,749
357,-531,748
357,-533,756
355,-539,747
357,-532,748
357,-530,753
346,-591,719
357,-524,752
362,-534,750
352,-537,747
357,-529,755
354,-569,740
350,-542,748
354,-539,750
357,-543,748
351,-536,751
355,-534,751
356,-537,747
355,-533,754
352,-533,749
357,-544,747
359,-532,750
355,-536,747
355,-537,754
360,-530,750
354,-540,750
357,-534,750
358,-541,747
354,-547,748
360,-536,754
359,-531,753
356,-532,748
345,-513,754
363,-518,764
370,-519,761
353,-526,758
356,-531,753
362,-521,755
354,-522,757
357,-529,753
353,-526,759
358,-529,750
358,-530,755
359,-526,756
352,-528,751
359,-530,754
352,-531,753
355,-535,754
352,-525,757
354,-533,751
352,-531,751
355,-528,758
355,-533,753
358,-524,755
354,-524,758
353,-531,755
352,-524,759
353,-534,757
361,-524,754
359,-526,758
355,-530,754
354,-528,757
356,-525,756
356,-534,755
351,-524,755
356,-531,750
356,-522,758
355,-523,759
353,-527,754
360,-532,754
355,-529,756
358,-526,754
356,-528,753
354,-531,752
362,-524,756
358,-530,755
350,-533,753
359,-521,761
363,-523,757
353,-529,755
359,-526,755
359,-531,751
357,-529,758
353,-528,754
361,-519,754
357,-527,757
354,-527,755
355,-524,758
357,-529,755
358,-531,752
360,-522,758
354,-552,741
357,-532,750
354,-527,750
358,-525,750
364,-527,756
358,-531,750
360,-531,756
360,-531,753
356,-531,752
359,-531,753
355,-533,751
358,-528,751
358,-527,755
360,-523,753
358,-534,756
353,-524,754
357,-530,752
355,-531,750
361,-528,755
357,-535,754
357,-532,753
356,-531,751
346,-538,752
356,-534,751
358,-535,752
354,-535,755
353,-528,754
360,-535,752
354,-530,757
357,-538,749
361,-531,756
355,-524,755
356,-529,752
354,-531,752
354,-530,754
357,-535,754
356,-534,750
355,-532,754
356,-531,749
359,-530,757
355,-533,752
353,-529,749
360,-532,753
356,-534,751
354,-529,756
358,-539,751
355,-529,756
356,-530,757
355,-534,751
350,-538,754
353,-541,752
357,-529,751
357,-536,754
352,-539,752
353,-535,751
359,-532,749
355,-532,751
353,-529,755
355,-534,752
357,-531,753
355,-535,751
357,-534,750
356,-528,756
360,-534,751
357,-534,753
354,-531,755
356,-534,752
361,-530,755
355,-528,755
359,-536,756
358,-530,751
357,-524,757
357,-528,754
355,-530,753
354,-534,755
364,-531,753
356,-539,753
361,-529,754
355,-525,752
357,-532,754
353,-535,753
358,-532,751
356,-530,754
352,-529,751
359,-528,753
355,-529,749
355,-534,750
357,-531,753
358,-534,754
351,-533,753
361,-527,756
358,-537,750
358,-531,754
359,-535,754
356,-533,751
358,-532,752
355,-530,754
359,-529,751
354,-534,752
354,-527,754
362,-530,753
355,-529,755
362,-529,756
361,-535,748
356,-526,755
358,-530,751
354,-536,750
356,-530,750
358,-532,751
361,-527,753
360,-525,755
355,-536,752
356,-527,754
360,-534,753
356,-535,752
360,-525,756
357,-528,752
357,-526,755
353,-529,755
358,-527,754
357,-526,754
357,-533,752
355,-532,756
359,-520,755
355,-539,751
357,-531,753
360,-529,757
354,-530,754
359,-531,756
361,-529,751
361,-531,750
360,-524,758
355,-531,753
362,-527,754
355,-528,753
355,-533,752
361,-527,758
361,-525,755
356,-525,753
361,-530,752
361,-535,749
357,-527,751
357,-526,755
357,-536,750
356,-527,754
356,-531,750
359,-529,750
356,-531,751
360,-528,754
361,-526,754
354,-526,754
350,-536,755
359,-526,755
358,-535,750
360,-534,754
354,-516,764
354,-529,748
358,-527,752
360,-528,756
356,-520,758
358,-530,751
354,-528,752
358,-528,752
358,-533,753
356,-529,754
359,-527,751
358,-528,756
364,-555,743
362,-524,759
360,-528,755
354,-526,753
359,-525,754
357,-531,751
358,-526,757
361,-523,758
361,-525,757
362,-525,753
356,-530,753
354,-526,757
356,-523,753
361,-527,753
356,-526,759
358,-526,752
354,-528,753
356,-525,753
358,-525,756
356,-523,759
358,-529,754
354,-525,754
362,-527,756
354,-529,756
349,-534,745
356,-523,757
360,-531,757
353,-523,756
351,-534,752
358,-531,756
357,-523,758
355,-529,754
356,-527,751
357,-530,756
361,-534,754
353,-531,754
359,-529,752
365,-526,757
357,-533,755
355,-527,750
359,-520,756
359,-530,760
359,-531,752
364,-522,756
360,-529,756
363,-519,756
362,-527,752
357,-528,755
363,-520,755
357,-523,755
359,-522,756
355,-522,758
361,-522,756
361,-521,759
356,-527,757
363,-521,755
356,-529,756
359,-526,756
357,-524,756
357,-528,755
357,-522,757
360,-518,758
360,-530,754
358,-524,755
360,-525,753
362,-527,753
363,-521,757
357,-530,754
359,-527,756
355,-520,757
357,-528,751
358,-522,756
359,-524,752
355,-529,753
358,-529,754
355,-525,756
361,-520,758
362,-530,752
358,-531,755
360,-521,758
359,-524,754
361,-522,755
357,-525,755
360,-530,750
356,-523,758
354,-526,758
357,-539,751
361,-523,757
352,-526,756
363,-527,754
354,-524,755
364,-523,759
358,-523,756
359,-527,755
347,-533,753
355,-526,755
359,-527,754
362,-523,753
359,-520,755
372,-530,752
359,-528,753
359,-525,756
354,-529,752
359,-528,758
362,-524,758
359,-531,755
363,-528,759
356,-525,756
360,-527,754
364,-524,756
372,-518,769
359,-524,759
359,-517,755
358,-528,752
355,-522,758
359,-525,757
362,-523,757
359,-534,753
352,-507,764
353,-522,754
366,-517,760
362,-523,759
360,-541,753
360,-536,753
361,-544,744
363,-537,752
361,-547,729
368,-547,746
360,-534,743
359,-527,753
350,-539,747
358,-540,750
354,-542,748
361,-516,753
358,-534,750
362,-520,752
357,-534,749
355,-525,760
359,-546,744
362,-532,749
359,-526,751
351,-527,756
360,-532,755
362,-525,752
363,-526,748
357,-534,750
365,-547,756
335,-507,755
368,-537,750
362,-532,757
363,-521,757
350,-512,761
359,-524,755
355,-544,744
357,-526,748
364,-532,749
361,-526,751
347,-530,745
360,-511,752
366,-519,750
368,-529,754
363,-533,747
366,-526,750
368,-535,752
365,-544,743
358,-531,749
363,-538,746
363,-538,747
362,-531,753
362,-546,741
361,-532,748
362,-546,740
363,-539,742
360,-542,740
360,-546,740
358,-554,743
361,-548,745
366,-533,742
359,-546,743
361,-551,738
365,-544,730
362,-524,751
358,-541,742
359,-549,739
357,-549,747
357,-554,737
362,-547,743
356,-548,739
360,-546,740
365,-540,744
363,-546,741
360,-538,747
358,-544,743
362,-541,741
360,-539,749
361,-544,743
356,-540,745
365,-546,743
361,-541,746
363,-537,748
360,-540,744
362,-537,749
366,-537,747
360,-540,745
364,-533,748
363,-539,742
360,-546,747
359,-543,740
362,-541,744
366,-536,749
358,-541,744
362,-535,751
365,-537,747
364,-539,749
363,-535,748
358,-544,744
361,-533,747
358,-542,748
358,-536,746
362,-539,749
357,-547,743
362,-541,747
360,-542,746
359,-550,740
363,-535,745
354,-540,741
362,-538,748
360,-544,750
357,-538,749
362,-537,743
360,-540,746
360,-534,750
358,-543,745
360,-543,748
363,-535,746
353,-545,742
357,-540,748
356,-543,743
358,-542,742
357,-540,747
357,-543,742
358,-542,745
364,-540,744
359,-545,742
359,-536,748
357,-545,746
357,-535,745
362,-540,747
360,-540,746
360,-536,747
359,-541,744
363,-541,742
359,-544,746
359,-544,741
361,-541,748
356,-543,740
362,-536,747
360,-540,746
357,-546,741
365,-536,750
355,-544,740
353,-536,750
358,-542,737
359,-547,741
366,-546,743
355,-548,743
361,-541,746
363,-545,742
353,-542,742
358,-539,744
365,-547,738
357,-538,746
361,-547,740
358,-550,740
359,-540,746
354,-550,742
360,-542,743
380,-539,763
362,-545,740
355,-537,745
359,-537,745
359,-561,733
356,-543,745
350,-551,740
360,-540,744
358,-541,742
361,-540,744
362,-540,749
358,-545,743
361,-538,746
359,-541,745
358,-537,750
362,-539,749
353,-547,739
359,-533,749
362,-545,747
356,-540,746
357,-538,745
360,-547,741
358,-534,748
357,-545,745
356,-547,742
359,-541,747
357,-546,741
360,-541,746
355,-545,739
354,-547,743
360,-542,744
355,-549,740
359,-532,750
361,-542,746
352,-542,745
361,-540,744
356,-553,739
359,-535,749
362,-536,747
357,-545,738
364,-536,744
356,-551,742
359,-542,748
360,-550,744
363,-544,744
366,-537,747
353,-553,737
356,-539,744
359,-542,750
358,-544,746
362,-537,747
358,-548,741
363,-541,746
363,-538,748
353,-546,744
359,-541,747
358,-541,743
361,-535,750
359,-552,741
357,-554,741
363,-544,745
359,-536,746
355,-546,743
354,-543,746
357,-538,742
354,-545,743
353,-546,758
347,-548,738
352,-533,745
360,-535,748
359,-546,743
355,-540,747
355,-545,743
351,-554,745
354,-542,745
359,-548,744
354,-546,739
356,-543,742
352,-555,732
356,-558,743
361,-556,744
344,-565,737
353,-532,749
364,-555,736
361,-562,745
343,-570,724
343,-579,721
336,-627,706
330,-593,708
333,-587,718
344,-607,716
330,-598,727
330,-614,711
334,-577,730
333,-592,722
331,-562,714
338,-569,729
318,-610,714
326,-614,709
337,-561,747
352,-538,752
338,-553,741
352,-538,750
364,-522,755
356,-536,750
352,-517,765
348,-562,647
352,-531,748
355,-538,748
357,-542,749
354,-532,750
365,-533,754
357,-533,753
367,-525,759
356,-514,750
366,-528,753
357,-523,758
362,-520,755
365,-523,760
355,-539,746
353,-559,738
360,-535,749
354,-531,747
360,-541,748
363,-536,754
364,-546,742
364,-533,745
357,-562,730
358,-555,740
356,-551,738
359,-558,736
358,-558,735
361,-556,733
357,-552,732
354,-554,743
364,-570,742
360,-562,731
355,-559,735
356,-559,734
356,-553,736
365,-559,735
361,-556,729
351,-528,740
354,-551,735
358,-556,735
362,-550,737
358,-553,733
353,-557,737
355,-556,735
357,-555,733
356,-553,736
357,-548,736
352,-551,739
359,-545,742
362,-556,736
362,-552,736
385,-601,784
357,-559,740
364,-544,742
361,-545,739
359,-552,737
354,-546,740
361,-555,734
361,-545,741
364,-540,743
366,-537,740
365,-546,743
356,-550,740
361,-545,743
358,-548,739
364,-547,744
360,-544,741
358,-547,740
357,-545,742
364,-549,738
359,-541,741
363,-541,741
360,-541,745
358,-541,745
354,-542,743
356,-538,745
363,-541,743
355,-546,740
363,-541,746
360,-544,741
361,-541,743
361,-542,744
359,-542,746
364,-538,744
365,-542,745
360,-540,746
364,-545,739
357,-541,739
360,-539,744
360,-548,740
365,-541,743
362,-548,741
361,-543,741
361,-540,745
361,-540,746
362,-538,748
363,-541,746
361,-538,743
358,-539,745
361,-543,743
362,-541,749
361,-540,747
361,-539,744
359,-539,742
362,-543,750
363,-536,744
362,-544,742
360,-535,744
365,-539,743
360,-541,743
360,-532,740
359,-541,745
355,-545,743
365,-543,742
364,-542,742
363,-537,746
364,-544,742
360,-538,747
365,-535,748
363,-536,745
361,-538,743
360,-539,743
366,-534,745
364,-538,745
360,-538,743
362,-536,750
361,-537,744
368,-531,749
361,-541,744
362,-540,747
363,-543,743
359,-540,741
359,-540,741
362,-541,746
363,-537,745
360,-541,743
360,-542,744
362,-541,745
360,-542,743
361,-545,743
361,-541,745
365,-542,743
364,-539,748
359,-543,745
362,-532,747
359,-546,744
360,-541,744
369,-539,746
361,-542,746
359,-541,747
359,-542,744
357,-542,743
363,-533,745
359,-545,742
362,-536,746
363,-540,750
362,-541,743
364,-537,744
360,-542,743
361,-538,743
361,-535,745
356,-538,746
365,-538,746
365,-541,747
360,-540,746
354,-533,743
358,-537,746
365,-541,745
358,-543,742
374,-537,746
364,-535,741
356,-539,745
362,-548,747
362,-541,746
361,-540,745
365,-539,746
360,-540,747
366,-541,747
363,-536,745
364,-537,743
361,-537,746
361,-538,743
358,-541,741
364,-542,746
356,-542,746
359,-539,742
355,-539,743
367,-539,742
359,-543,747
367,-540,745
363,-540,743
361,-540,743
364,-537,742
361,-539,743
362,-535,746
360,-540,744
360,-543,743
362,-536,743
364,-533,745
363,-536,745
367,-536,748
362,-538,745
363,-542,743
362,-542,746
364,-544,746
360,-537,748
369,-532,747
365,-535,746
364,-535,745
368,-538,744
360,-536,744
363,-538,747
365,-541,747
360,-536,745
366,-535,744
367,-536,745
364,-538,744
364,-540,745
358,-535,749
362,-538,745
362,-539,747
364,-536,742
364,-537,746
367,-537,748
361,-538,749
365,-537,744
364,-537,745
363,-532,747
364,-536,743
363,-541,745
367,-540,749
364,-536,746
364,-532,749
361,-534,750
362,-535,744
364,-541,741
364,-533,750
368,-534,746
361,-532,750
355,-539,743
353,-539,743
367,-536,749
363,-529,749
362,-534,750
362,-537,747
359,-539,745
363,-534,751
363,-536,748
363,-532,746
362,-533,750
354,-538,748
362,-535,748
361,-541,744
357,-536,744
365,-533,752
361,-538,748
361,-534,747
357,-536,745
359,-534,742
365,-538,749
364,-536,746
363,-535,749
361,-536,750
356,-538,748
361,-535,748
369,-539,746
362,-535,748
363,-538,748
368,-537,746
362,-535,747
366,-539,744
366,-533,747
363,-542,743
364,-533,749
365,-537,745
365,-533,747
366,-537,748
365,-530,747
366,-534,750
364,-534,748
367,-535,750
362,-534,746
358,-535,748
365,-534,747
359,-538,745
362,-534,748
366,-540,748
357,-538,741
369,-535,752
360,-533,747
357,-535,745
361,-532,749
363,-531,747
367,-529,748
366,-537,746
361,-534,749
364,-536,748
359,-536,750
361,-536,749
360,-538,747
364,-535,748
364,-536,749
359,-537,748
364,-533,749
365,-533,746
364,-537,745
364,-538,747
361,-535,747
361,-537,747
361,-530,751
366,-530,748
365,-532,750
362,-536,750
370,-535,748
362,-537,747
362,-532,748
368,-541,746
359,-531,748
363,-535,747
365,-536,746
360,-534,747
361,-534,745
361,-534,748
363,-528,749
364,-536,750
365,-531,749
364,-532,749
362,-532,751
364,-534,749
366,-535,749
365,-528,749
362,-531,752
362,-529,748
364,-529,748
363,-535,749
367,-529,749
361,-535,749
365,-540,749
362,-532,748
363,-533,742
364,-529,746
367,-531,746
365,-531,750
368,-533,752
364,-537,746
366,-532,749
365,-536,747
360,-535,747
364,-531,746
361,-534,747
363,-535,749
361,-536,748
368,-527,754
369,-531,750
362,-538,748
367,-534,748
363,-536,750
367,-527,749
367,-535,750
362,-527,753
361,-526,750
363,-531,749
361,-534,749
365,-533,746
378,-591,786
366,-531,750
364,-531,747
365,-532,747
363,-531,751
367,-526,749
361,-541,743
360,-535,747
365,-530,749
366,-536,749
361,-527,750
364,-530,750
368,-536,746
364,-527,747
364,-535,746
372,-523,751
368,-521,754
366,-532,744
363,-535,750
364,-533,746
360,-539,744
367,-534,747
364,-534,746
363,-533,750
358,-541,750
362,-534,747
367,-533,748
364,-533,749
363,-536,748
361,-532,747
365,-530,748
367,-529,750
362,-531,747
362,-535,748
365,-536,745
362,-537,748
364,-537,749
363,-533,746
361,-534,751
367,-534,749
362,-532,749
363,-532,749
361,-533,748
367,-529,746
360,-535,743
362,-535,746
364,-533,750
362,-532,746
364,-529,750
365,-529,748
360,-526,751
369,-535,746
363,-533,753
363,-538,748
356,-542,746
365,-534,747
364,-532,746
361,-538,748
362,-535,750
370,-535,748
369,-533,748
360,-537,748
363,-533,750
365,-530,748
360,-541,746
364,-528,750
366,-534,747
366,-529,750
365,-531,751
362,-536,747
366,-529,750
364,-535,748
363,-533,753
366,-533,750
364,-532,750
364,-528,751
362,-533,743
364,-528,750
363,-532,748
364,-531,749
364,-531,750
360,-535,748
364,-532,750
367,-532,748
365,-533,750
365,-528,750
359,-530,752
364,-533,746
364,-536,749
361,-536,746
365,-527,752
366,-539,748
362,-531,750
306,-485,652
365,-532,746
365,-530,751
361,-537,750
361,-529,750
358,-525,752
353,-535,749
359,-529,749
359,-533,750
364,-531,749
367,-534,753
359,-529,750
363,-529,750
363,-526,750
358,-528,748
364,-528,753
362,-529,754
364,-527,749
366,-534,749
362,-525,755
363,-534,747
356,-532,748
366,-523,750
362,-536,748
363,-524,750
364,-534,748
366,-531,748
364,-530,752
361,-535,750
367,-526,754
362,-528,746
369,-529,750
365,-530,747
366,-530,750
368,-531,752
365,-527,751
366,-525,751
364,-527,750
361,-535,748
364,-522,757
367,-528,751
364,-529,749
365,-526,750
362,-535,751
366,-530,748
364,-524,749
370,-523,749
366,-527,752
363,-531,749
363,-529,750
361,-528,754
363,-529,747
364,-533,752
372,-533,750
364,-529,750
364,-535,752
368,-532,751
367,-527,749
368,-526,752
369,-524,751
366,-527,753
355,-528,746
361,-523,753
368,-528,751
359,-524,750
362,-529,752
364,-533,747
361,-530,751
364,-528,754
363,-528,748
366,-524,752
366,-536,749
367,-530,750
369,-531,749
360,-526,750
361,-521,751
359,-539,748
368,-523,752
364,-534,746
361,-527,748
362,-530,750
362,-531,746
365,-526,750
366,-527,749
362,-525,750
363,-527,750
366,-529,752
365,-529,750
358,-534,750
358,-526,750
363,-534,746
359,-535,748
364,-530,751
360,-530,750
360,-527,751
366,-527,755
363,-535,750
368,-530,754
366,-529,750
363,-530,753
367,-532,754
364,-535,750
366,-533,749
363,-529,749
367,-529,752
364,-531,749
363,-522,753
361,-533,750
364,-531,752
363,-527,756
362,-528,750
365,-526,754
362,-525,750
368,-530,749
362,-529,751
359,-529,750
365,-528,751
360,-528,747
361,-524,751
364,-533,749
363,-529,751
367,-528,752
361,-532,750
366,-528,751
362,-528,748
369,-527,750
368,-530,753
363,-523,750
365,-531,751
362,-529,751
366,-526,752
358,-534,749
364,-530,749
368,-530,752
364,-525,753
365,-533,752
365,-525,752
364,-529,751
367,-534,753
367,-524,749
369,-531,750
358,-530,751
365,-527,752
364,-533,750
366,-526,752
367,-529,753
367,-527,750
367,-526,752
358,-532,749
367,-525,751
366,-533,748
359,-527,750
361,-533,750
363,-533,749
368,-533,751
366,-532,750
360,-533,749
363,-528,749
364,-530,745
368,-525,751
365,-535,751
363,-532,751
365,-536,750
361,-531,752
366,-533,751
358,-534,747
366,-530,749
366,-534,748
363,-535,750
367,-528,750
363,-534,747
364,-529,751
361,-531,750
364,-531,747
363,-534,749
363,-528,749
361,-530,750
364,-532,746
362,-533,750
363,-531,750
358,-537,749
364,-528,752
364,-530,748
363,-530,749
365,-529,751
361,-531,751
370,-527,751
365,-527,747
367,-526,752
363,-530,750
366,-527,751
371,-527,750
368,-528,755
366,-531,752
359,-536,748
366,-528,749
367,-528,752
364,-528,751
366,-535,750
362,-529,750
366,-525,752
364,-530,754
363,-530,749
366,-529,747
367,-529,751
363,-522,753
365,-530,748
364,-527,748
360,-531,751
364,-508,740
369,-531,751
364,-531,746
368,-531,752
368,-525,753
362,-536,750
368,-522,756
365,-529,754
365,-524,755
367,-530,754
367,-521,751
368,-524,752
360,-531,752
368,-518,753
365,-522,753
363,-527,750
365,-527,753
366,-527,748
361,-525,752
365,-532,749
364,-528,749
367,-525,751
367,-543,748
374,-562,772
372,-530,749
370,-517,757
371,-525,752
364,-523,747
363,-520,754
367,-523,753
365,-523,753
366,-525,752
370,-523,751
364,-517,756
362,-527,751
367,-522,754
370,-532,750
368,-531,751
364,-521,752
361,-526,751
365,-523,753
363,-521,754
366,-526,750
371,-525,749
369,-523,753
366,-525,751
363,-530,749
365,-523,751
371,-524,755
363,-532,751
364,-528,752
364,-528,749
365,-528,750
366,-527,751
362,-530,749
371,-525,756
360,-524,752
370,-525,755
366,-523,751
365,-524,752
367,-528,750
365,-529,748
368,-528,751
357,-524,754
367,-532,751
369,-531,751
363,-528,750
360,-527,751
358,-531,752
362,-531,752
357,-527,754
358,-525,755
366,-528,752
363,-523,750
361,-526,751
364,-532,751
364,-532,751
364,-522,756
360,-521,750
363,-529,751
375,-521,755
367,-524,748
361,-526,751
362,-527,747
370,-528,748
364,-525,750
365,-527,749
366,-520,756
375,-532,751
366,-528,752
366,-501,731
368,-527,753
361,-525,754
367,-521,756
363,-530,752
365,-523,751
371,-526,752
360,-527,751
367,-533,754
364,-528,751
361,-526,753
370,-527,751
364,-525,753
367,-522,751
369,-524,753
359,-532,750
363,-529,752
366,-527,747
367,-525,750
367,-525,752
363,-522,750
372,-522,752
365,-525,752
355,-525,750
367,-528,749
367,-520,750
364,-522,757
364,-528,755
367,-521,753
367,-527,752
367,-526,748
363,-528,750
360,-530,749
365,-526,753
361,-527,747
362,-528,754
367,-525,755
362,-533,749
368,-520,755
360,-530,748
364,-529,750
362,-528,754
364,-531,750
354,-512,758
366,-534,750
368,-528,751
366,-525,754
364,-527,750
367,-526,750
364,-522,750
362,-528,748
365,-525,752
359,-534,747
354,-526,749
367,-525,754
362,-529,744
364,-525,754
362,-534,750
364,-528,749
369,-514,761
367,-530,754
365,-524,751
364,-534,748
356,-526,751
363,-530,750
373,-528,750
366,-533,752
369,-532,748
367,-526,750
370,-531,752
364,-533,748
361,-528,751
366,-537,749
360,-535,750
368,-532,751
360,-531,748
365,-525,750
370,-524,751
357,-534,750
367,-534,749
364,-529,750
360,-534,747
356,-524,754
359,-521,758
362,-525,751
364,-524,758
353,-528,753
349,-532,753
356,-526,757
363,-526,755
359,-526,755
355,-526,757
364,-523,755
360,-520,758
361,-527,754
364,-541,755
348,-519,742
357,-532,751
347,-501,765
358,-512,772
352,-524,763
351,-513,768
338,-533,741
337,-529,762
352,-507,775
355,-532,773
359,-530,779
349,-504,799
380,-507,789
341,-435,797
369,-462,832
345,-396,801
546,-385,873
374,-361,754
290,-429,806
287,-461,867
324,-471,814
318,-470,781
401,-507,826
375,-450,806
354,-504,814
345,-507,811
345,-463,798
348,-471,797
346,-471,793
339,-478,792
336,-476,793
344,-475,798
340,-479,791
346,-471,798
345,-463,797
344,-470,790
344,-468,808
334,-507,788
351,-470,820
330,-463,829
352,-543,793
275,-431,873
214,-299,932
411,-418,974
368,-379,845
232,-318,937
321,-370,900
207,-252,934
263,-325,908
371,-382,840
326,-583,783
418,-305,879
221,-436,810
315,-353,913
324,-473,781
393,-266,898
327,-312,889
297,-417,831
430,-227,842
368,-292,878
283,-252,849
321,-442,780
391,-287,904
390,-248,838
326,-240,880
368,-548,782
256,-370,821
387,-305,845
330,-338,847
435,-552,752
382,-380,826
356,-345,841
389,-332,848
376,-389,821
381,-355,838
380,-329,861
312,-401,782
388,-357,839
486,-294,857
257,-575,753
444,-292,826
369,-414,825
301,-170,935
332,-452,735
416,-358,862
378,-343,829
362,-313,847
375,-304,852
379,-338,853
407,-337,840
385,-343,868
429,-293,847
303,-249,905
407,-353,866
417,-406,816
362,-285,823
394,-366,820
353,-327,866
392,-312,893
283,-491,751
409,-243,900
336,-400,814
331,-363,938
392,-352,856
144,-469,834
302,-317,828
298,-368,874
394,-309,843
339,-173,882
400,-385,826
427,-351,810
226,-284,827
336,-301,849
409,-374,819
373,-317,867
427,-438,844
386,-240,851
352,-358,838
393,-361,826
227,-293,906
323,-251,874
369,-368,820
386,-292,860
365,-278,880
360,-268,847
394,-216,932
283,-572,743
346,-197,916
366,-333,845
320,-419,786
428,-320,841
348,-344,860
398,-348,835
316,-408,785
384,-419,786
352,-403,826
358,-317,847
369,-264,887
364,-391,821
369,-358,830
383,-336,819
360,-315,846
354,-286,852
375,-343,848
332,-318,851
423,-284,890
360,-398,801
378,-340,846
299,-359,834
120,-206,877
303,-79,925
255,-677,813
570,-195,926
242,-450,846
239,-285,863
335,-211,871
412,-343,822
320,-428,838
402,-377,863
367,-212,926
429,-227,859
236,-263,951
339,-299,874
361,-326,853
361,-328,817
424,-223,864
371,-317,859
395,-292,849
373,-318,851
390,-318,855
373,-347,836
372,-321,852
383,-324,817
364,-333,840
383,-381,824
371,-359,836
367,-349,844
376,-360,833
376,-352,837
377,-375,825
383,-362,833
376,-364,831
379,-365,835
378,-368,826
382,-357,835
378,-374,825
382,-371,827
379,-375,824
386,-364,831
379,-374,828
378,-379,822
385,-371,821
381,-382,820
379,-391,813
383,-379,824
397,-398,817
398,-402,809
380,-392,814
384,-395,814
390,-372,826
380,-391,818
383,-380,824
385,-387,823
386,-393,817
379,-378,819
388,-384,820
386,-383,822
380,-386,820
385,-392,820
383,-389,820
385,-384,820
387,-381,821
381,-378,824
383,-388,824
379,-383,824
384,-377,821
378,-388,819
386,-388,824
383,-389,821
380,-394,821
380,-379,820
379,-386,817
379,-379,821
387,-394,818
376,-404,816
377,-377,824
378,-403,815
379,-400,816
371,-396,815
374,-384,821
375,-399,818
374,-397,820
374,-417,809
366,-403,819
379,-389,816
370,-379,823
369,-391,822
369,-415,817
384,-388,821
366,-399,815
365,-402,823
375,-411,817
369,-402,818
387,-375,826
367,-406,818
361,-403,823
376,-402,818
362,-392,823
368,-415,818
364,-412,821
373,-383,823
378,-399,819
367,-403,818
375,-393,821
368,-394,820
366,-405,818
369,-398,821
368,-403,818
369,-401,822
368,-401,817
367,-400,819
364,-404,819
367,-397,823
363,-407,818
369,-406,823
372,-401,818
366,-404,821
370,-403,819
368,-400,822
368,-390,821
371,-395,821
369,-400,817
368,-397,824
366,-400,824
366,-402,818
375,-400,820
371,-402,817
371,-404,816
366,-399,820
373,-400,820
368,-401,822
372,-404,822
373,-399,823
373,-400,823
371,-397,818
372,-396,822
370,-394,821
371,-392,821
370,-395,822
369,-390,822
367,-396,822
371,-389,826
372,-401,821
368,-392,825
369,-397,822
368,-399,819
368,-394,824
366,-392,824
368,-389,820
370,-401,820
368,-396,822
373,-396,822
374,-392,823
367,-399,823
368,-395,822
373,-397,821
373,-395,822
369,-401,821
370,-400,821
375,-397,820
368,-397,822
372,-395,822
368,-397,820
375,-389,825
375,-398,821
366,-396,821
369,-401,819
370,-393,823
365,-406,823
363,-403,821
370,-395,821
369,-390,823
370,-388,822
369,-397,824
362,-401,824
363,-401,819
361,-406,821
371,-400,817
366,-393,823
367,-401,819
364,-399,819
369,-395,821
370,-406,821
365,-401,822
365,-405,819
366,-395,823
365,-395,823
366,-403,821
368,-399,823
369,-378,832
368,-388,827
365,-394,823
365,-390,825
371,-399,822
369,-396,824
367,-399,823
369,-392,822
365,-399,822
364,-393,821
371,-398,821
366,-395,825
367,-395,824
366,-385,821
368,-395,822
372,-391,819
371,-394,821
365,-390,824
372,-392,826
365,-399,820
365,-399,823
369,-393,823
364,-395,819
370,-394,824
364,-394,823
366,-395,821
363,-393,822
369,-393,822
368,-394,825
366,-395,819
366,-394,823
365,-393,824
363,-392,826
367,-403,817
373,-395,823
367,-393,821
365,-397,820
366,-398,821
370,-395,824
371,-398,823
366,-391,818
367,-395,823
369,-396,821
365,-398,824
367,-393,823
370,-385,823
371,-394,822
368,-398,822
370,-394,820
365,-397,820
371,-394,822
368,-390,824
367,-393,824
364,-388,827
370,-396,824
366,-398,827
367,-391,822
367,-389,825
365,-394,825
368,-393,821
367,-402,820
362,-407,821
372,-396,823
369,-389,823
364,-396,823
368,-393,824
365,-394,822
371,-400,817
367,-398,823
366,-392,822
368,-395,821
364,-404,822
365,-399,823
364,-402,827
371,-398,822
363,-395,820
369,-391,822
368,-402,822
363,-394,825
367,-390,826
359,-387,828
365,-391,824
365,-396,823
362,-397,826
367,-397,824
365,-396,826
366,-392,824
366,-396,822
364,-398,826
370,-394,823
363,-398,825
363,-395,821
365,-394,824
366,-395,822
358,-396,825
366,-389,822
367,-400,823
368,-396,819
368,-396,825
367,-393,824
364,-402,822
363,-398,822
369,-392,824
368,-395,825
367,-394,826
364,-398,820
369,-390,825
363,-401,825
362,-396,825
365,-398,823
365,-400,821
359,-388,827
367,-390,821
367,-393,824
364,-397,822
364,-396,827
364,-392,825
363,-396,826
367,-405,820
366,-395,821
368,-396,824
365,-395,825
357,-408,821
363,-391,822
370,-392,822
363,-397,824
366,-386,825
368,-392,823
365,-387,821
360,-394,825
366,-395,822
368,-403,820
361,-395,825
367,-395,822
366,-397,824
365,-397,822
363,-388,824
363,-395,824
362,-391,824
368,-394,823
361,-399,820
365,-398,823
365,-396,818
362,-395,822
366,-400,821
369,-397,821
366,-394,819
364,-392,824
365,-395,820
364,-394,822
367,-395,826
365,-394,822
364,-402,823
365,-392,825
362,-396,823
370,-396,821
369,-397,823
365,-391,823
362,-405,823
359,-401,820
364,-393,823
368,-399,821
367,-393,822
363,-395,824
363,-396,825
358,-401,826
370,-394,824
366,-400,818
367,-397,822
364,-392,827
364,-397,825
363,-395,822
364,-395,829
363,-393,825
365,-400,826
360,-402,821
363,-394,823
365,-395,823
363,-397,823
363,-398,820
360,-398,820
365,-397,824
364,-394,825
361,-400,820
366,-395,823
364,-374,830
367,-398,822
367,-396,826
357,-389,824
366,-396,826
368,-385,825
362,-384,822
364,-395,823
364,-395,827
363,-394,828
364,-398,822
368,-389,827
365,-393,826
368,-403,824
363,-398,823
371,-389,823
369,-408,814
373,-382,810
359,-403,813
364,-388,814
370,-320,848
395,-378,818
396,-379,824
375,-362,832
376,-341,831
377,-359,847
388,-449,783
393,-321,814
375,-336,827
379,-379,798
365,-392,825
372,-358,830
392,-378,829
369,-362,829
394,-346,842
349,-389,834
370,-307,848
406,-483,776
363,-366,826
347,-302,863
362,-336,842
375,-360,833
369,-345,841
375,-339,846
390,-354,845
342,-396,860
384,-280,882
383,-379,823
380,-332,850
377,-356,836
361,-352,837
370,-346,838
371,-366,828
379,-347,838
369,-376,837
367,-344,842
368,-331,839
379,-364,853
366,-349,850
372,-333,849
377,-348,839
364,-356,838
364,-356,835
371,-343,845
370,-354,846
370,-358,843
376,-331,866
314,-316,848
395,-366,874
396,-422,811
359,-350,845
372,-379,831
378,-347,864
354,-423,824
401,-349,871
355,-227,878
369,-286,852
400,-399,823
369,-316,862
386,-316,853
380,-331,861
343,-352,857
366,-282,871
420,-342,814
339,-370,828
376,-346,850
369,-339,879
316,-312,847
347,-317,860
352,-352,859
332,-320,866
344,-328,865
219,-272,850
309,-320,869
344,-319,864
346,-371,840
360,-291,870
365,-340,851
360,-318,856
354,-326,850
364,-332,854
361,-331,853
369,-327,852
365,-340,842
362,-336,849
363,-332,848
363,-337,849
367,-324,850
370,-321,854
365,-327,850
365,-324,854
363,-347,844
376,-324,850
376,-343,841
373,-343,842
385,-323,850
376,-344,841
378,-342,840
375,-352,838
381,-407,806
390,-311,845
385,-289,835
416,-386,813
408,-196,853
417,-231,842
415,-301,839
385,-339,839
386,-343,840
375,-317,849
369,-363,837
362,-337,846
369,-335,845
364,-338,840
365,-342,845
362,-361,833
363,-317,851
374,-327,845
377,-318,848
370,-324,852
371,-344,842
366,-331,847
374,-340,841
368,-334,845
363,-340,847
371,-345,845
364,-343,847
375,-348,843
368,-343,849
366,-350,845
356,-350,849
370,-354,845
358,-328,845
356,-335,852
354,-351,846
353,-354,844
353,-347,855
380,-377,837
312,-398,854
386,-330,853
304,-347,794
395,-315,853
320,-348,838
374,-409,779
357,-372,833
359,-336,848
379,-357,830
340,-338,831
353,-301,871
332,-332,858
324,-362,860
351,-325,857
231,-256,854
382,-14,980
276,-649,725
394,-228,918
361,-250,937
373,-257,916
345,-178,900
264,-438,789
365,-365,853
357,-255,886
380,-230,887
371,-309,853
333,-424,809
374,-260,877
382,-331,819
361,-361,834
364,-340,847
372,-329,839
365,-319,853
360,-343,848
367,-360,840
354,-322,854
364,-327,852
361,-336,848
353,-320,859
368,-317,860
358,-340,845
360,-328,857
347,-349,848
364,-361,839
364,-326,850
343,-338,851
354,-349,849
370,-333,842
346,-338,846
360,-331,855
346,-346,851
363,-334,856
356,-340,852
361,-312,857
363,-331,850
363,-332,850
357,-327,854
363,-323,859
353,-331,853
359,-326,857
364,-321,855
357,-331,853
355,-336,850
367,-339,851
361,-331,849
365,-326,851
365,-338,849
364,-337,845
367,-325,851
373,-340,848
359,-323,855
361,-327,858
362,-361,839
361,-328,851
360,-344,844
362,-347,846
361,-328,844
364,-342,841
357,-332,846
369,-337,845
359,-336,843
385,-297,858
417,-387,796
407,-314,843
393,-357,829
395,-339,834
393,-326,841
384,-352,830
383,-339,839
378,-346,836
374,-356,833
371,-363,839
370,-347,840
374,-359,838
367,-339,853
363,-372,839
370,-346,841
368,-315,843
367,-368,836
366,-349,841
369,-347,846
365,-350,843
370,-361,836
370,-328,857
365,-356,840
363,-341,854
355,-357,845
357,-348,843
359,-353,844
356,-338,846
368,-375,836
365,-310,858
363,-329,846
362,-344,849
359,-360,838
354,-366,838
359,-331,846
378,-347,830
418,-544,794
390,-343,823
389,-359,834
371,-390,827
366,-346,840
360,-333,853
341,-357,851
360,-352,844
363,-338,847
357,-345,848
352,-341,849
353,-355,850
354,-337,853
351,-325,854
361,-289,876
356,-343,854
336,-376,846
348,-334,858
354,-328,892
322,-361,829
386,-62,998
348,-373,873
377,-78,928
359,-381,827
338,-359,850
373,-332,858
354,-400,829
352,-341,884
280,-337,835
378,-535,751
370,-459,790
355,-346,858
348,-333,848
371,-329,848
369,-347,844
364,-339,848
358,-370,834
378,-330,852
388,-201,891
428,-314,835
386,-273,849
391,-270,824
381,-185,889
427,-226,871
385,-223,875
357,-316,871
345,-410,822
378,-225,892
356,-327,852
334,-334,848
361,-316,867
348,-352,850
346,-322,857
343,-328,855
343,-348,853
341,-320,862
355,-322,858
347,-352,849
332,-313,864
339,-286,883
317,-314,867
329,-323,873
335,-335,875
303,-305,853
375,-222,904
377,-367,853
398,-356,854
374,-324,885
364,-381,834
370,-311,862
363,-258,872
395,-438,818
366,-263,858
400,-182,888
361,-293,839
459,-224,843
414,-197,861
436,-118,886
366,-328,837
369,-323,862
361,-341,854
351,-299,873
346,-331,864
343,-309,865
353,-303,866
354,-370,838
354,-335,854
353,-331,853
354,-321,857
350,-326,858
343,-332,856
352,-326,861
360,-314,866
355,-311,864
353,-313,858
369,-284,868
362,-346,849
349,-322,861
358,-344,854
357,-322,854
364,-319,863
349,-281,883
340,-324,850
351,-301,884
336,-328,861
343,-355,846
365,-333,864
277,-327,835
360,-115,953
359,-398,837
242,-417,813
374,-269,878
373,-366,845
355,-286,874
341,-358,835
401,-457,872
334,-231,848
380,-398,838
374,-353,838
380,-312,851
420,-253,846
412,-179,844
411,-228,895
372,-344,828
380,-221,895
298,-461,798
338,-365,840
353,-328,859
355,-262,883
342,-315,862
340,-343,854
340,-312,861
355,-329,862
345,-336,853
356,-312,862
362,-334,862
357,-325,867
357,-320,853
357,-320,863
396,-284,896
346,-290,879
355,-324,898
381,-241,868
322,-365,846
366,-334,841
285,-109,913
328,-145,938
411,-403,817
346,-343,848
393,-255,868
364,-368,833
388,-339,841
362,-349,879
373,-330,862
253,-340,819
342,-339,833
367,-316,834
316,-346,866
353,-338,847
349,-320,859
306,-432,796
375,-273,872
344,-400,786
371,-415,816
330,-354,857
358,-353,833
358,-320,863
362,-393,845
291,-339,866
357,-257,894
346,-408,820
357,-312,867
355,-416,881
348,-276,852
386,-412,804
362,-356,839
352,-315,886
326,-401,865
398,-37,959
498,-196,846
327,-274,855
381,-266,875
358,-450,817
329,-202,928
316,-410,830
316,-305,877
335,-340,872
305,-229,852
305,-347,905
385,-360,834
341,-366,853
343,-282,880
338,-359,844
342,-386,842
349,-317,860
341,-365,846
339,-361,849
355,-348,854
351,-348,850
350,-353,847
346,-346,843
381,-367,832
345,-376,847
387,-327,884
300,-307,879
374,-195,950
371,-470,804
348,-350,897
426,-289,839
238,-482,786
269,-221,955
312,-508,801
396,-462,844
227,-373,857
385,-357,876
313,-430,747
355,-287,871
335,-141,940
300,-496,826
259,-110,933
345,-110,998
137,-796,647
395,-96,972
318,-295,952
376,-298,833
350,-394,838
390,-187,933
317,-378,825
375,-337,870
366,-303,863
372,-362,833
344,-416,835
362,-337,859
363,-377,843
349,-352,854
335,-376,844
336,-381,839
334,-338,853
343,-333,859
353,-325,855
351,-287,873
362,-343,846
361,-327,857
368,-337,855
355,-322,854
360,-332,854
354,-341,845
366,-343,846
348,-337,857
371,-354,853
334,-385,835
300,-340,840
379,-386,830
283,-465,791
363,-225,896
372,-497,812
317,-597,772
377,-394,846
258,7,987
304,-141,939
409,-282,877
455,-289,898
387,-322,892
255,-150,904
359,-320,868
372,-427,809
331,-346,847
331,-351,837
333,-322,846
313,-262,844
335,-397,812
374,-412,824
330,-375,847
342,-321,855
356,-312,896
261,-351,828
344,-339,889
333,-357,889
339,-319,873
350,-453,810
310,-276,851
378,-421,820
312,-372,875
309,-336,860
344,-368,855
340,-341,858
340,-312,863
348,-319,873
388,-368,866
237,-355,848
354,-359,863
319,-411,817
332,-212,879
359,-268,919
353,-288,904
365,-227,895
242,-600,738
410,-353,869
293,-335,881
352,-319,892
285,-423,832
323,-439,877
345,-355,833
349,-429,823
301,-470,782
378,-232,890
349,-421,896
387,-452,805
231,-456,835
346,-249,875
305,-289,850
364,-356,850
370,-376,851
333,-375,857
338,-375,846
362,-385,844
350,-364,852
354,-326,854
358,-349,853
353,-365,846
366,-305,862
433,-343,820
350,-354,824
389,-268,820
367,-332,862
283,-306,884
327,-337,852
386,-364,811
366,-391,829
352,-331,849
356,-382,837
353,-334,863
350,-370,837
385,-354,816
350,-300,850
326,-372,859
369,-380,829
368,-289,858
263,-406,809
381,-299,869
377,-375,843
336,-389,840
343,-345,855
342,-357,845
350,-348,869
261,-281,882
345,-401,781
363,-439,787
338,-333,854
393,-393,833
354,-326,882
421,-377,772
345,-375,789
314,-333,879
292,-266,942
303,-562,824
375,-258,954
338,-444,838
190,-217,876
396,-384,830
286,-367,792
311,-186,942
275,-369,824
361,-142,914
381,-437,774
287,-419,852
395,-464,785
323,-392,843
358,-376,835
337,-336,855
343,-409,832
351,-358,846
351,-341,855
351,-331,851
347,-392,834
355,-355,846
351,-343,850
351,-349,850
344,-348,843
352,-356,848
340,-351,856
344,-375,826
354,-369,860
336,-412,880
355,-346,845
360,-376,842
268,-372,807
390,-251,887
358,-425,833
382,-394,803
309,-258,865
377,-428,818
362,-440,796
365,-338,855
293,-336,869
367,-339,851
365,-318,825
339,-352,917
353,-361,852
412,-361,817
369,-458,804
452,-234,837
274,-438,772
378,-329,883
362,-413,821
353,-344,858
342,-396,819
347,-372,833
341,-351,849
338,-324,881
322,-353,844
288,-469,786
377,-414,850
247,-426,839
372,-364,830
294,-446,817
352,-334,864
334,-333,873
298,-307,928
312,-417,819
359,-361,857
318,-381,855
327,-288,874
331,-293,887
375,-456,801
313,-297,854
351,-326,865
349,-313,882
292,-257,932
388,-241,863
285,-295,863
250,-629,745
399,-278,847
271,-502,766
320,-241,896
340,-406,830
360,-412,818
320,-391,833
319,-266,867
370,-315,884
344,-378,807
343,-122,912
333,-603,765
378,-430,814
413,-232,858
357,-270,907
371,-386,833
307,-435,806
377,-305,862
352,-361,830
351,-327,860
349,-460,802
344,-314,853
345,-318,854
349,-369,839
347,-300,868
357,-231,882
375,-374,837
366,-290,869
373,-313,859
370,-306,855
369,-339,853
360,-334,846
351,-356,849
378,-304,892
262,-396,816
395,-353,843
367,-362,850
339,-479,801
346,-322,866
342,-323,861
337,-321,854
383,-299,847
317,-248,878
404,-338,854
238,-280,855
352,-211,955
513,-324,752
388,-233,890
310,-176,860
273,-250,870
352,-413,830
405,-185,831
409,-302,861
385,-312,844
333,-392,841
345,-306,864
337,-361,860
316,-370,898
381,-285,915
406,-505,775
400,-362,899
275,-216,905
234,-232,855
302,-277,860
391,-461,770
270,-376,832
340,-361,840
320,-412,824
327,-361,840
298,-266,887
380,-409,824
420,-423,817
355,-331,855
363,-328,849
315,-446,825
357,-343,856
350,-312,873
353,-367,840
342,-359,841
347,-343,850
353,-329,855
352,-342,854
357,-314,851
356,-365,846
352,-354,848
354,-346,851
346,-346,845
350,-343,854
350,-356,849
355,-340,852
340,-360,850
356,-342,852
349,-336,849
344,-339,854
350,-330,852
353,-324,869
339,-410,817
379,-391,824
329,-278,871
393,-316,828
358,-441,809
389,-346,849
377,-358,853
285,-368,832
360,-315,860
333,-379,829
350,-342,857
368,-383,783
322,-357,835
369,-342,853
260,-441,806
366,-294,871
236,-210,856
356,-483,771
341,-367,860
132,-240,858
321,-293,905
225,-501,809
416,-228,890
223,-432,831
372,-438,848
285,-334,854
332,-308,871
339,-382,842
337,-400,843
336,-342,860
341,-362,860
345,-351,849
342,-346,857
339,-356,843
344,-361,823
339,-351,838
341,-364,844
346,-345,851
349,-350,852
342,-358,857
348,-349,849
337,-346,844
348,-338,849
352,-356,859
346,-354,854
351,-356,847
355,-359,844
330,-366,843
355,-355,849
342,-351,842
340,-343,796
353,-418,823
348,-379,837
334,-365,851
345,-397,833
341,-351,854
349,-379,841
344,-374,845
346,-388,825
334,-360,848
342,-363,851
359,-347,848
358,-374,844
332,-364,847
352,-354,849
347,-372,846
332,-352,851
338,-354,853
347,-373,845
327,-351,854
340,-379,848
333,-284,871
346,-381,843
340,-346,851
319,-370,849
344,-339,853
337,-371,848
342,-372,844
323,-372,848
330,-375,849
325,-352,858
334,-376,852
329,-364,854
339,-364,848
337,-363,850
329,-369,849
329,-364,853
338,-336,866
336,-359,850
321,-363,853
334,-362,848
341,-351,851
336,-352,858
326,-359,853
328,-337,850
330,-353,852
327,-358,852
337,-357,852
328,-372,849
336,-352,857
329,-367,851
340,-353,851
327,-352,855
334,-363,850
330,-370,847
334,-354,853
337,-369,848
333,-352,854
338,-367,850
331,-362,853
342,-366,851
331,-362,852
327,-370,849
331,-368,850
333,-372,848
333,-363,851
334,-381,846
333,-365,848
329,-362,851
328,-364,848
326,-371,849
333,-374,848
333,-359,852
327,-373,850
327,-370,850
333,-362,853
324,-377,847
327,-366,853
336,-371,847
337,-360,848
338,-374,844
336,-363,851
332,-372,844
335,-362,845
337,-372,845
336,-369,849
335,-363,848
336,-368,850
330,-369,847
336,-375,844
337,-370,847
334,-363,852
342,-377,842
328,-364,845
337,-369,846
331,-379,849
343,-380,843
331,-358,850
341,-369,846
345,-367,844
322,-355,851
333,-420,837
328,-333,863
340,-390,843
324,-399,838
331,-369,847
328,-371,841
336,-378,844
328,-375,846
330,-384,843
327,-369,850
326,-385,849
335,-397,840
310,-406,840
326,-423,826
325,-400,838
321,-413,833
331,-408,833
319,-421,823
327,-410,832
327,-406,833
321,-408,834
328,-393,837
334,-386,840
329,-399,839
332,-396,841
329,-398,839
327,-383,846
324,-417,832
327,-389,836
332,-386,841
329,-408,831
327,-398,838
324,-390,834
328,-400,815
332,-403,837
327,-395,837
328,-399,836
322,-396,839
322,-409,834
327,-406,834
322,-367,847
325,-403,833
320,-405,834
322,-401,837
325,-414,835
326,-396,842
321,-401,837
323,-408,837
322,-397,840
324,-415,829
325,-397,840
325,-398,842
327,-409,835
331,-412,835
326,-408,830
332,-408,835
332,-402,833
327,-405,831
332,-418,832
325,-408,830
332,-418,826
326,-415,833
328,-421,827
332,-418,828
331,-409,836
327,-411,831
327,-418,825
329,-413,831
332,-411,830
323,-414,828
325,-418,831
333,-416,827
328,-415,827
326,-422,828
327,-416,831
326,-412,830
324,-423,828
335,-412,837
331,-407,833
324,-413,832
334,-405,834
331,-399,836
328,-416,831
332,-405,833
325,-413,831
327,-409,834
329,-391,841
328,-416,833
326,-415,831
331,-393,837
325,-409,831
327,-411,829
328,-392,838
325,-420,830
333,-406,834
324,-399,839
328,-412,831
328,-412,833
330,-389,840
319,-418,830
323,-393,840
330,-394,838
324,-409,831
327,-410,834
330,-387,842
322,-407,836
326,-414,831
329,-402,835
316,-410,833
332,-412,833
324,-396,835
321,-430,828
329,-407,831
322,-390,834
327,-422,830
331,-405,836
327,-387,838
322,-427,826
331,-404,833
328,-388,846
320,-419,834
340,-402,835
318,-404,834
321,-427,826
334,-398,836
320,-407,834
324,-423,829
333,-396,839
321,-414,832
333,-416,831
337,-395,840
322,-417,829
330,-421,832
334,-391,840
325,-432,824
332,-409,829
331,-352,852
311,-419,832
327,-420,829
330,-396,839
329,-418,826
324,-415,828
325,-407,833
320,-427,827
325,-416,831
329,-407,833
319,-424,830
327,-410,831
331,-396,836
320,-428,827
324,-407,835
330,-399,835
319,-429,824
333,-406,831
323,-402,833
320,-427,824
337,-406,835
325,-402,835
324,-432,824
343,-405,834
322,-410,833
322,-424,828
333,-400,834
323,-405,834
317,-427,827
336,-390,839
314,-418,830
321,-413,831
339,-396,835
322,-412,832
325,-410,834
341,-393,837
320,-412,832
327,-413,829
336,-387,842
317,-424,830
334,-414,830
326,-398,834
321,-420,826
333,-419,830
325,-395,838
322,-427,823
336,-401,833
326,-403,842
326,-426,831
335,-403,832
323,-405,833
330,-424,826
336,-393,835
326,-419,833
327,-423,827
335,-393,839
319,-423,832
338,-417,833
331,-393,838
322,-435,825
337,-406,831
327,-395,838
323,-434,827
335,-399,835
326,-404,834
323,-427,822
332,-398,835
327,-402,833
321,-430,825
336,-393,834
316,-407,835
322,-425,827
331,-400,835
326,-403,836
320,-430,827
334,-400,833
322,-408,831
325,-420,829
336,-395,838
319,-415,825
329,-410,832
332,-389,839
322,-417,831
327,-418,830
336,-387,841
321,-425,831
334,-412,828
333,-391,841
324,-432,828
332,-409,831
331,-396,838
325,-432,826
333,-401,836
323,-397,839
324,-435,820
342,-392,839
317,-398,834
325,-429,825
338,-395,834
325,-404,836
324,-422,826
337,-394,836
323,-404,833
322,-419,833
335,-390,839
318,-423,828
323,-418,831
336,-386,841
320,-432,827
325,-426,826
330,-387,843
316,-426,827
337,-414,834
316,-402,836
328,-435,825
334,-405,836
324,-397,842
320,-433,825
340,-400,839
321,-399,835
322,-426,826
334,-403,836
322,-408,837
324,-420,828
337,-398,833
328,-410,827
334,-423,830
329,-403,832
322,-415,833
336,-418,826
327,-398,832
330,-420,831
332,-406,835
329,-412,832
330,-413,831
328,-405,835
328,-412,833
324,-405,832
325,-411,833
333,-416,831
325,-417,832
331,-411,830
328,-404,832
325,-413,830
329,-409,833
323,-407,832
331,-415,831
328,-394,836
326,-417,831
330,-403,832
331,-404,839
328,-419,832
333,-406,831
329,-409,833
328,-417,830
334,-396,835
327,-405,833
325,-417,831
338,-399,834
324,-417,828
332,-403,835
329,-402,833
322,-415,827
333,-410,832
328,-405,833
329,-417,829
332,-400,836
327,-409,830
328,-413,832
335,-400,836
321,-416,833
327,-414,832
332,-398,835
322,-421,827
335,-404,832
321,-410,834
320,-418,831
337,-404,833
330,-406,834
325,-413,832
338,-394,835
325,-419,830
331,-413,833
328,-401,831
324,-415,832
334,-411,832
327,-409,829
329,-417,827
336,-402,833
332,-408,832
326,-415,832
333,-400,834
321,-424,828
337,-404,833
323,-404,833
326,-422,832
340,-398,835
325,-414,831
326,-414,831
336,-400,838
327,-416,828
330,-413,833
337,-395,835
321,-420,828
332,-409,834
333,-398,835
329,-422,831
333,-408,834
326,-402,833
327,-422,827
335,-406,837
327,-397,837
327,-424,830
333,-402,832
326,-409,831
330,-412,830
335,-398,838
327,-410,833
331,-409,833
335,-394,835
323,-416,828
334,-403,832
334,-397,834
321,-424,829
342,-407,833
326,-405,834
330,-423,825
339,-399,830
327,-403,835
330,-413,829
337,-397,836
328,-410,833
332,-413,828
336,-398,838
327,-413,830
325,-410,829
337,-394,835
332,-419,832
338,-404,832
333,-400,833
326,-416,830
333,-411,830
328,-402,829
329,-424,829
337,-401,833
331,-409,834
325,-423,825
338,-400,838
329,-413,830
322,-417,829
336,-396,837
330,-407,829
322,-410,831
335,-393,837
327,-412,833
336,-420,830
336,-402,839
329,-413,827
334,-408,832
330,-407,830
334,-407,830
335,-406,833
334,-408,834
331,-409,831
330,-412,831
335,-409,830
333,-407,833
333,-405,835
330,-404,835
331,-412,831
333,-414,832
333,-409,834
332,-411,833
337,-409,833
329,-409,833
327,-408,830
334,-413,833
332,-407,829
333,-408,833
327,-405,833
333,-407,832
334,-411,830
327,-406,832
328,-414,831
332,-408,830
334,-417,830
334,-410,829
328,-414,829
333,-416,829
331,-410,833
334,-413,822
332,-414,825
328,-415,829
329,-412,826
333,-415,830
328,-417,825
337,-416,828
330,-418,829
332,-419,827
337,-415,828
333,-414,829
335,-416,827
330,-416,831
331,-417,829
336,-418,825
328,-414,830
334,-419,828
337,-419,830
333,-419,827
334,-414,832
332,-417,829
333,-415,825
336,-417,827
327,-421,823
336,-419,827
333,-420,826
332,-420,827
327,-415,829
332,-422,828
333,-420,827
329,-416,826
331,-419,825
334,-415,827
332,-421,826
331,-418,825
328,-420,825
327,-417,825
330,-418,826
335,-417,826
333,-421,822
333,-422,828
334,-422,825
333,-422,826
332,-420,827
333,-417,826
330,-420,827
328,-422,827
332,-416,825
332,-419,826
334,-420,827
334,-423,824
330,-414,828
333,-419,827
327,-420,826
331,-421,825
338,-419,826
327,-424,826
333,-424,827
334,-418,826
331,-421,828
329,-419,824
336,-423,826
333,-422,823
333,-413,829
334,-414,831
328,-422,825
329,-417,829
325,-427,824
331,-422,828
333,-415,827
332,-420,827
329,-418,828
333,-411,827
334,-422,824
324,-422,828
326,-416,829
335,-417,828
332,-417,825
331,-421,828
332,-421,824
333,-415,830
333,-415,827
335,-421,826
328,-416,829
333,-422,828
333,-419,823
335,-416,826
333,-420,826
330,-416,827
332,-415,829
333,-414,830
334,-423,827
337,-421,826
337,-423,821
335,-418,828
335,-423,828
336,-423,827
330,-417,828
340,-403,813
330,-418,825
330,-416,828
329,-422,827
323,-414,826
332,-418,826
331,-420,828
333,-419,827
328,-420,826
332,-416,830
330,-416,827
329,-416,833
334,-413,829
333,-416,829
333,-419,828
333,-421,829
333,-417,828
326,-418,825
330,-419,828
330,-413,829
332,-417,824
333,-420,832
337,-415,826
331,-413,830
330,-413,827
329,-421,827
332,-417,830
331,-411,825
336,-423,833
331,-418,830
335,-419,830
333,-425,826
330,-418,826
331,-418,823
332,-414,827
329,-418,828
329,-420,830
331,-421,828
329,-421,826
330,-424,824
326,-424,824
330,-422,825
333,-421,826
328,-420,825
328,-418,827
326,-422,829
330,-418,829
328,-418,827
329,-416,831
329,-422,826
330,-418,826
332,-419,831
331,-424,826
332,-422,829
334,-420,823
333,-419,827
333,-415,826
333,-418,828
332,-420,824
338,-424,826
333,-423,825
337,-421,824
333,-422,828
334,-422,827
329,-420,827
329,-421,826
331,-419,827
330,-421,826
335,-418,828
328,-421,827
329,-421,824
333,-407,828
327,-418,828
334,-424,827
331,-421,824
336,-414,832
330,-423,825
335,-419,826
333,-415,828
331,-421,827
332,-415,831
328,-417,824
331,-416,823
328,-417,827
332,-415,829
325,-426,825
327,-420,825
336,-414,829
335,-416,831
325,-419,828
331,-418,832
331,-422,825
334,-419,828
334,-409,829
335,-416,827
328,-425,821
332,-408,826
331,-381,835
338,-327,842
321,-406,818
353,-374,844
372,-371,848
335,-421,828
365,-395,825
368,-413,813
361,-402,820
357,-340,846
351,-398,825
354,-384,835
357,-419,814
342,-378,841
371,-359,833
368,-403,821
345,-407,820
349,-404,822
349,-409,826
344,-372,835
365,-394,829
344,-398,830
341,-397,832
344,-411,829
337,-406,825
342,-401,832
330,-403,829
340,-395,835
334,-408,833
341,-409,831
335,-374,849
385,-553,740
338,-360,827
338,-453,798
337,-447,809
346,-382,842
347,-413,832
316,-494,788
366,-426,797
360,-589,787
343,-374,845
350,-459,837
425,-325,854
92,-439,824
405,-474,822
267,-332,831
286,-293,877
368,-598,784
372,-408,820
313,-387,837
365,-398,833
202,-274,876
349,-274,903
331,-516,787
395,-240,893
319,41,937
283,-539,866
432,-581,730
342,-355,875
367,-515,827
327,-428,812
363,-434,828
276,-466,776
264,-195,885
329,-433,852
364,-473,784
300,-363,854
312,-403,833
369,-511,834
298,-425,831
339,-472,796
394,-328,872
255,-486,759
336,-382,840
356,-446,800
303,-374,846
374,-494,796
310,-378,817
359,-304,813
328,-398,830
338,-289,895
293,-435,796
335,-329,890
364,-463,804
333,-366,850
327,-397,836
329,-384,848
327,-399,833
343,-424,823
319,-461,799
360,-262,879
255,-334,779
373,-557,826
301,-391,837
395,-310,864
338,-444,798
343,-346,832
372,-424,830
351,-372,861
283,-422,809
398,-350,839
240,-330,908
342,-442,809
277,-345,875
313,-405,922
376,-425,814
333,-415,850
345,-395,822
340,-414,831
354,-403,853
210,-347,837
367,-464,792
386,-93,993
338,-432,812
328,-377,876
334,-276,859
363,-447,804
370,-402,849
261,-414,880
350,-279,862
367,-457,812
260,-469,812
347,-373,866
387,-339,872
384,-190,911
358,-379,859
210,-420,800
356,-348,839
349,-416,823
312,-377,848
321,-360,851
370,-396,858
303,-397,860
401,-312,886
218,-370,840
358,-288,874
328,-508,734
305,-437,781
353,-471,835
344,-441,808
313,-407,824
366,-263,883
351,-348,846
412,-313,839
360,-395,826
333,-319,841
387,-391,840
315,-350,802
339,-296,871
341,-490,832
360,-375,852
352,-385,824
388,-339,853
320,-538,776
357,-308,854
351,-373,845
359,-417,814
354,-379,829
342,-415,827
346,-340,857
329,-370,844
347,-382,834
351,-358,841
340,-402,830
340,-384,837
366,-344,866
282,-323,855
336,-281,884
385,-530,742
340,-390,835
344,-359,831
373,-376,826
359,-401,841
353,-375,812
362,-375,823
359,-348,843
391,-384,834
361,-337,854
360,-389,830
349,-390,835
353,-395,826
354,-337,854
351,-378,840
363,-394,831
348,-358,846
348,-382,836
345,-378,838
353,-351,850
346,-367,836
353,-367,841
344,-372,841
351,-378,836
354,-355,843
350,-393,829
348,-360,841
381,-281,867
395,-464,783
398,-357,825
411,-386,816
427,-394,809
378,-329,801
421,-301,864
403,-370,824
346,-549,775
339,-389,833
346,-319,860
345,-366,843
352,-391,828
349,-374,840
351,-348,848
342,-361,845
344,-362,848
343,-359,839
347,-362,846
346,-358,847
338,-371,844
343,-369,843
350,-361,846
346,-374,842
346,-376,840
349,-364,846
353,-372,849
356,-374,841
348,-371,847
352,-366,842
342,-374,840
351,-373,843
347,-364,838
351,-352,845
350,-377,838
348,-367,845
349,-371,837
349,-376,838
354,-367,840
348,-373,838
347,-366,846
351,-386,823
345,-369,841
347,-371,837
351,-359,841
359,-370,839
347,-374,836
356,-368,839
349,-376,838
345,-376,842
356,-372,838
353,-372,838
348,-374,838
354,-376,837
349,-374,839
355,-367,840
343,-366,833
357,-376,831
346,-368,837
354,-374,846
355,-379,844
351,-377,841
349,-369,837
343,-377,838
354,-379,835
350,-383,835
347,-375,835
348,-382,840
351,-379,840
344,-372,837
370,-379,829
373,-389,826
360,-372,836
356,-367,834
362,-388,833
354,-388,834
356,-386,824
357,-399,829
350,-388,826
362,-384,832
358,-393,832
356,-387,835
353,-383,831
347,-385,826
361,-374,855
312,-424,791
365,-385,793
364,-443,797
328,-392,830
388,-323,853
290,-461,812
416,-336,824
314,-480,803
356,-371,839
348,-391,833
349,-395,830
340,-405,823
361,-347,846
342,-359,849
367,-430,811
349,-419,835
381,-391,864
369,-377,826
334,-426,813
326,-403,821
354,-335,866
353,-447,786
312,-324,927
359,-439,834
265,-464,809
285,-334,825
345,-493,828
347,-459,806
333,-336,877
371,-525,777
422,-381,879
373,-441,819
348,-307,881
383,-453,793
361,-356,843
345,-398,822
343,-428,820
334,-411,825
354,-238,871
291,16,1018
321,-140,1021
358,-581,753
413,-119,917
349,-338,854
266,-497,784
335,-303,867
371,-506,775
384,-221,913
267,-192,925
330,-328,906
348,-346,876
237,-337,856
346,-441,854
370,-419,817
326,-339,859
363,-339,872
367,-399,867
325,-24,989
235,-282,797
329,-401,838
358,-491,804
342,-377,828
372,-383,829
211,-183,920
284,-433,839
341,-424,816
315,-341,864
339,-418,829
345,-396,837
339,-353,859
306,-364,861
336,-381,845
341,-362,850
338,-362,850
340,-384,844
344,-380,849
266,-289,916
350,-486,770
357,-494,780
258,-314,890
336,-356,858
303,-488,826
360,-398,876
256,-294,850
323,-399,863
324,-497,776
315,-397,829
332,-375,841
334,-402,833
341,-387,841
347,-379,844
332,-426,877
336,-404,796
391,-555,774
324,-403,833
333,-374,835
345,-424,821
337,-410,834
352,-380,842
378,-433,821
335,-293,843
339,-439,800
333,-483,808
265,-286,871
366,-252,908
254,-442,787
355,-344,872
245,-492,791
337,-370,861
315,-453,820
335,-371,841
239,-86,942
365,-364,849
369,-391,837
193,-383,825
365,-303,860
324,-402,815
356,-346,868
311,-436,863
304,-375,847
356,-396,825
348,-457,810
318,-402,822
329,-327,895
229,-632,705
317,-336,928
371,-454,809
308,-377,854
342,-386,850
363,-360,854
311,-436,820
374,-405,810
336,-406,833
357,-358,900
348,-534,787
308,-497,830
421,-573,760
363,-219,883
343,-500,749
368,-426,803
393,-423,803
355,-405,834
364,-401,834
295,-442,819
319,-395,835
336,-402,832
336,-404,830
335,-417,825
345,-398,834
333,-383,839
335,-394,829
340,-399,834
340,-405,828
336,-405,826
342,-399,834
340,-399,833
338,-406,832
342,-405,834
339,-406,830
346,-397,832
343,-394,835
340,-404,831
343,-402,828
340,-399,832
342,-397,834
339,-400,832
342,-403,832
340,-403,826
343,-410,831
341,-413,824
344,-409,832
336,-410,827
339,-411,830
341,-408,833
341,-375,845
341,-384,834
345,-406,828
340,-403,828
337,-410,827
336,-425,826
336,-405,831
339,-398,828
337,-421,825
334,-425,825
344,-414,828
341,-418,824
341,-418,818
336,-414,822
338,-408,829
338,-416,823
337,-418,827
344,-414,825
346,-409,827
340,-411,827
336,-414,826
342,-417,826
336,-417,824
340,-417,824
343,-412,824
341,-416,824
341,-412,826
337,-410,828
343,-411,829
338,-413,823
334,-416,824
340,-412,830
332,-424,822
344,-415,825
337,-418,825
340,-420,824
337,-429,824
339,-426,823
335,-426,827
338,-421,824
339,-427,821
336,-416,826
343,-420,821
337,-415,825
344,-418,823
334,-432,819
336,-427,822
341,-418,823
339,-414,829
342,-415,826
338,-427,822
342,-426,821
337,-423,826
344,-423,824
339,-418,820
339,-422,820
339,-429,819
342,-426,819
337,-429,823
334,-429,819
338,-422,819
338,-428,816
340,-421,822
333,-427,824
338,-425,817
342,-429,818
345,-419,820
339,-421,821
342,-422,823
345,-421,822
339,-426,820
335,-428,820
349,-410,822
343,-417,824
345,-421,820
341,-415,822
343,-425,823
348,-416,821
342,-414,825
342,-419,822
337,-418,825
342,-414,820
342,-417,825
339,-414,824
343,-411,826
343,-419,825
343,-417,821
352,-412,822
341,-417,825
340,-411,826
338,-422,821
344,-420,822
340,-415,822
346,-420,824
341,-416,829
342,-415,824
337,-421,823
344,-419,826
346,-411,824
342,-416,824
337,-415,824
339,-422,825
346,-416,826
345,-416,825
336,-420,821
341,-423,822
345,-418,828
344,-417,825
343,-415,826
348,-420,822
344,-416,825
343,-424,819
339,-416,825
341,-422,827
339,-419,819
343,-425,820
345,-424,821
340,-429,823
342,-424,818
342,-418,823
337,-427,818
343,-418,825
339,-419,821
339,-418,823
341,-419,823
341,-421,821
341,-424,820
339,-424,815
343,-411,826
337,-426,825
338,-428,821
342,-433,821
339,-433,814
340,-430,819
339,-424,820
346,-421,819
338,-430,819
337,-432,815
342,-431,815
340,-405,829
337,-450,803
333,-447,811
344,-432,815
331,-436,814
341,-433,816
338,-424,812
339,-425,819
343,-429,817
339,-445,811
345,-436,819
341,-431,820
330,-429,815
332,-447,812
342,-439,814
333,-452,805
326,-467,799
336,-454,806
334,-457,806
328,-461,805
336,-464,804
335,-458,803
334,-448,814
340,-464,802
335,-460,802
342,-458,800
337,-450,811
335,-455,806
342,-449,810
337,-466,797
334,-447,810
335,-452,808
341,-446,806
346,-454,806
332,-444,807
330,-448,808
343,-453,804
339,-458,808
333,-456,811
341,-452,810
335,-452,809
338,-438,811
337,-451,809
329,-434,813
352,-445,810
336,-442,807
356,-433,807
350,-455,808
337,-459,805
337,-462,802
344,-449,803
344,-450,807
344,-454,808
342,-454,803
349,-452,805
346,-458,804
346,-453,804
346,-457,803
343,-453,804
344,-458,803
342,-458,801
341,-451,810
342,-458,808
341,-453,807
349,-444,809
344,-447,810
341,-447,804
342,-450,808
344,-451,808
345,-445,806
344,-450,801
339,-452,801
347,-453,805
343,-452,809
342,-445,810
344,-453,802
342,-448,807
338,-452,803
340,-451,805
341,-457,803
345,-449,804
344,-453,800
343,-455,802
346,-453,805
345,-455,805
343,-455,805
343,-456,804
346,-452,800
345,-448,805
339,-448,806
344,-449,808
353,-456,798
336,-468,803
337,-440,809
347,-456,802
342,-458,800
345,-443,810
344,-452,807
345,-450,802
341,-449,806
340,-458,803
343,-458,806
338,-445,808
348,-448,808
336,-445,807
344,-449,804
336,-460,800
346,-458,803
348,-448,805
347,-446,805
334,-470,798
347,-459,804
335,-453,808
344,-460,803
333,-453,804
327,-453,807
346,-466,795
340,-464,800
343,-455,806
345,-451,803
342,-465,801
340,-447,810
341,-464,799
333,-459,804
343,-453,803
337,-442,810
341,-434,813
334,-450,799
332,-465,787
336,-427,815
343,-430,833
363,-447,803
343,-403,824
337,-444,808
347,-407,823
368,-429,815
347,-421,816
351,-422,818
362,-414,832
356,-418,814
353,-421,819
354,-422,816
366,-422,810
361,-413,828
356,-409,825
340,-418,818
359,-435,809
335,-339,891
342,-424,886
309,-577,789
370,-354,877
353,-382,841
355,-479,763
322,-469,788
370,-349,874
354,-453,782
365,-361,828
376,-376,832
340,-425,815
353,-367,838
381,-477,785
374,-405,816
398,-418,820
338,-416,816
349,-415,821
370,-399,825
352,-434,812
393,-364,824
247,-397,851
407,-463,778
346,-150,915
211,-501,782
374,-431,851
314,-484,788
378,-277,874
386,-417,822
358,-400,821
351,-395,829
351,-391,834
358,-437,807
372,-403,822
356,-388,825
371,-427,808
360,-428,811
360,-400,823
360,-421,822
367,-449,801
366,-433,804
368,-438,795
356,-434,799
360,-432,805
362,-439,807
367,-429,805
362,-434,804
362,-439,799
349,-448,799
350,-461,799
354,-455,798
365,-438,799
349,-451,786
366,-478,790
359,-456,795
355,-461,795
370,-479,784
359,-443,813
382,-486,799
331,-468,797
354,-507,775
359,-469,790
349,-478,789
367,-478,788
348,-483,779
346,-471,789
373,-506,774
335,-442,803
361,-482,783
351,-483,781
343,-470,786
349,-498,779
354,-492,779
350,-459,789
344,-481,786
349,-483,786
351,-494,781
346,-482,778
344,-482,784
352,-485,782
354,-481,783
349,-481,786
356,-484,782
360,-482,784
355,-484,784
356,-484,784
357,-484,784
351,-474,787
356,-482,785
355,-482,785
355,-476,783
352,-477,785
352,-487,785
355,-484,786
355,-482,784
354,-479,784
355,-481,784
353,-481,785
353,-486,784
361,-478,785
353,-478,788
350,-485,781
354,-485,786
351,-485,782
356,-483,787
350,-477,786
351,-482,783
355,-487,782
356,-484,785
353,-487,783
354,-482,786
359,-484,788
356,-477,787
355,-477,790
353,-479,786
354,-484,782
353,-482,784
352,-479,785
356,-477,784
352,-482,786
357,-480,784
352,-479,784
348,-476,787
355,-475,790
355,-483,785
354,-480,781
357,-483,782
354,-479,783
353,-480,784
351,-477,788
352,-472,786
353,-479,784
354,-474,784
355,-475,788
355,-481,785
357,-475,785
348,-476,788
356,-481,786
356,-476,784
358,-479,784
357,-482,783
353,-482,786
356,-484,785
353,-482,783
353,-482,788
355,-488,782
351,-486,784
352,-479,783
355,-484,784
355,-480,786
353,-486,786
353,-477,787
356,-483,781
356,-477,787
353,-489,785
352,-481,783
353,-479,787
356,-480,784
358,-477,785
353,-485,786
355,-478,782
356,-480,784
354,-482,787
350,-480,783
351,-481,785
355,-476,785
350,-480,784
356,-480,786
354,-480,783
354,-475,785
356,-476,786
358,-479,785
354,-480,784
356,-484,782
356,-472,790
354,-474,782
357,-476,786
356,-482,787
354,-478,784
351,-477,786
354,-488,782
353,-481,784
357,-484,785
354,-480,779
359,-482,782
355,-481,787
354,-476,787
359,-481,785
358,-475,787
350,-476,780
354,-472,782
360,-481,781
354,-475,785
355,-478,787
350,-481,784
358,-469,787
354,-458,791
358,-491,782
358,-465,783
349,-477,790
342,-486,762
370,-395,818
368,-458,804
347,-433,819
377,-400,825
374,-442,814
327,-382,836
386,-417,805
390,-444,790
335,-372,822
390,-441,787
356,-444,806
319,-390,841
345,-361,852
334,-498,809
372,-610,756
299,-349,875
333,-463,799
327,-501,773
423,-413,835
293,-448,798
329,-403,829
403,-429,846
381,-486,775
334,-347,864
344,-433,814
366,-358,833
349,-437,816
357,-406,821
345,-396,826
376,-440,791
335,-356,846
435,-441,771
365,-553,753
440,-394,813
288,-506,778
386,-396,850
323,-479,783
378,-450,810
361,-432,812
342,-377,837
244,-311,883
378,-414,859
329,-481,803
300,-333,857
333,-372,841
382,-717,718
297,-549,766
364,-373,844
337,-230,896
332,-479,822
212,-272,844
392,-149,923
223,-471,794
329,-264,874
235,-286,874
338,-347,865
413,-528,709
348,-312,864
357,-514,793
318,-387,839
300,-393,841
339,-439,825
285,-344,797
376,-320,919
289,-323,869
298,-336,890
289,-432,834
309,-345,906
331,-424,836
300,-396,831
336,-372,852
315,-426,837
303,-353,851
320,-382,854
330,-416,845
335,-323,844
383,-388,834
246,-354,867
351,-357,868
303,-539,785
397,-271,898
362,-352,849
333,-436,821
332,-396,841
339,-417,826
306,-379,839
335,-423,826
337,-398,857
347,-389,836
330,-403,827
323,-371,846
338,-378,852
327,-404,843
327,-422,831
335,-351,853
331,-399,832
336,-390,842
339,-374,843
333,-377,844
333,-401,838
336,-348,849
323,-397,834
334,-383,844
333,-398,842
345,-412,838
335,-413,837
333,-363,852
336,-388,839
330,-421,827
316,-392,845
318,-416,833
330,-392,834
350,-361,851
349,-446,793
333,-368,863
170,-470,834
335,-291,904
403,-182,862
275,-497,822
361,-503,804
343,-380,842
358,-420,832
224,-416,867
341,-451,803
287,-505,801
343,-260,862
360,-347,884
384,-326,924
354,-236,866
185,-298,831
284,-214,884
414,-481,798
344,-324,871
326,-444,839
186,-555,748
294,-341,877
323,-377,831
357,-491,798
343,-425,823
331,-376,844
334,-390,843
332,-349,851
320,-401,835
334,-373,849
339,-382,841
343,-382,844
339,-377,844
343,-371,841
344,-378,840
343,-384,840
344,-371,843
350,-371,844
341,-377,838
354,-386,833
345,-376,839
340,-379,840
350,-385,833
345,-395,836
349,-371,841
348,-417,821
343,-333,851
345,-387,818
354,-388,833
347,-399,833
351,-393,834
355,-382,837
358,-398,844
354,-379,824
342,-309,859
337,-396,835
351,-388,831
326,-337,834
362,-393,833
334,-341,855
335,-375,817
337,-409,875
405,-330,995
353,-274,829
364,-510,779
264,-243,895
360,-385,869
315,-346,843
385,-380,864
239,-386,814
348,-432,847
311,-86,963
330,-117,989
228,-571,771
312,-90,933
254,-360,836
364,-414,832
319,-523,777
398,-346,840
340,-427,806
333,-322,868
317,-410,830
369,-408,832
262,-453,811
335,-386,852
325,-302,870
286,-344,857
317,-390,853
318,-377,850
304,-387,898
352,-321,882
364,-370,837
317,-388,885
383,-331,864
159,-492,748
327,-317,877
334,-400,835
341,-411,885
306,-419,820
343,-371,825
249,-462,792
342,-357,835
328,-434,839
323,-384,849
355,-455,838
335,-324,846
357,-429,833
344,-432,825
321,-309,887
351,-408,856
365,-387,848
311,-376,844
334,-372,859
285,-499,787
338,-362,869
323,-420,827
317,-347,855
332,-421,826
332,-399,839
323,-416,828
313,-380,830
336,-401,870
309,-415,813
326,-375,850
316,-402,827
309,-358,846
302,-346,887
325,-344,867
288,-346,844
364,-381,857
289,-406,839
341,-432,835
380,-421,810
290,-409,834
313,-375,882
301,-233,951
278,-307,915
189,-256,865
290,-297,927
365,-528,794
343,-453,835
367,-398,838
328,-427,818
348,-369,858
338,-414,833
336,-353,847
354,-388,881
385,-350,881
362,-358,859
218,-391,876
346,-403,823
316,-415,833
309,-589,766
361,-520,739
274,-386,859
315,-356,877
370,-414,857
331,-247,886
352,-391,874
325,-409,842
305,-331,866
309,-433,833
352,-370,872
236,-328,854
328,-507,791
286,-68,921
277,-310,916
330,-404,859
328,-308,856
362,-517,765
399,-456,797
384,-273,887
329,-349,887
265,-481,801
189,-454,837
343,-394,887
288,-417,847
330,-329,876
313,-272,876
315,-455,823
243,-361,828
328,-218,922
336,-488,798
352,-424,787
358,-396,823
331,-333,858
354,-334,849
327,-448,812
332,-325,861
332,-443,830
308,-363,844
327,-351,863
373,-447,833
330,-281,813
461,-252,840
276,-454,766
378,-309,877
311,-484,815
348,-353,873
324,-425,841
315,-468,812
265,-559,709
430,-433,799
252,-308,828
337,-319,856
313,-509,789
369,-337,856
307,-435,826
316,-362,855
362,-443,854
311,-314,835
307,-399,817
384,-459,824
310,-311,871
475,-284,896
199,-635,769
276,-185,914
277,-498,823
276,-226,1051
312,-434,925
364,-417,843
298,-473,805
332,-363,840
326,-440,819
330,-398,861
340,-404,841
320,-467,814
329,-299,882
354,-409,827
355,-402,828
324,-378,844
353,-410,828
340,-411,826
354,-401,820
371,-374,835
347,-466,801
344,-223,881
408,-226,873
379,-322,858
295,-304,861
334,-288,852
359,-466,824
354,-439,813
336,-449,818
313,-333,853
343,-309,791
343,-452,783
403,-463,800
302,-380,841
343,-374,845
347,-320,851
342,-316,855
343,-419,820
369,-342,849
370,-297,854
328,-444,813
339,-384,844
330,-386,846
333,-375,845
337,-403,835
327,-407,827
334,-386,839
332,-389,839
330,-405,833
337,-405,825
318,-417,832
331,-436,817
331,-417,829
334,-418,828
341,-406,831
335,-420,825
339,-426,820
327,-440,816
332,-434,817
339,-437,818
326,-412,820
347,-416,826
337,-436,819
344,-426,819
341,-437,815
342,-442,813
338,-440,808
337,-438,816
346,-437,814
336,-429,812
337,-435,813
341,-438,811
340,-456,801
339,-452,812
345,-447,811
343,-447,811
346,-453,806
325,-431,797
338,-462,811
340,-459,800
339,-450,803
344,-452,808
349,-452,801
343,-462,794
345,-464,801
346,-454,803
347,-450,804
347,-456,799
344,-447,806
345,-472,800
334,-467,801
339,-454,800
342,-458,801
344,-464,806
344,-477,798
337,-436,814
360,-476,790
347,-468,798
354,-462,798
352,-487,785
349,-462,799
354,-464,791
351,-459,802
344,-454,799
351,-440,810
354,-463,797
358,-465,789
350,-447,803
358,-457,797
349,-484,783
351,-461,796
345,-474,791
352,-471,792
346,-460,795
356,-458,795
344,-460,798
353,-463,794
348,-460,796
350,-467,791
342,-459,798
341,-443,801
350,-473,796
346,-449,805
344,-449,804
348,-468,798
358,-472,790
352,-395,827
366,-444,812
342,-445,805
351,-434,809
355,-438,808
343,-436,811
353,-440,806
363,-436,805
354,-439,803
354,-463,798
349,-459,799
354,-452,801
356,-458,799
354,-458,793
359,-452,796
348,-443,801
350,-460,798
348,-468,796
352,-463,799
353,-469,794
350,-463,802
338,-464,796
348,-458,791
349,-471,796
351,-463,794
350,-471,791
350,-478,797
346,-459,796
352,-482,784
347,-468,794
333,-490,783
342,-489,786
344,-479,787
353,-479,786
341,-489,789
350,-495,784
351,-500,776
350,-477,789
336,-479,790
351,-492,782
333,-472,792
347,-491,782
328,-485,789
347,-482,785
350,-480,777
349,-512,769
343,-486,786
332,-495,780
355,-510,773
341,-481,784
345,-501,772
344,-500,777
345,-501,775
343,-494,781
344,-496,783
346,-500,777
345,-496,779
345,-495,769
343,-500,782
344,-495,778
349,-488,777
347,-490,783
347,-492,784
346,-498,779
347,-491,782
347,-486,782
349,-490,788
346,-495,777
349,-479,785
344,-498,780
343,-493,782
344,-490,781
348,-496,778
350,-485,782
344,-500,780
349,-484,781
345,-490,783
350,-484,788
352,-479,786
346,-485,782
351,-489,781
355,-480,784
347,-486,787
347,-480,789
349,-480,786
343,-496,784
349,-477,787
346,-486,782
352,-499,778
347,-479,784
351,-491,783
354,-489,785
352,-490,782
344,-489,784
347,-480,785
347,-500,780
346,-483,785
346,-487,783
345,-501,776
349,-479,783
352,-492,781
347,-487,781
351,-478,789
345,-500,780
352,-481,786
346,-479,787
348,-495,779
351,-480,787
348,-502,778
353,-491,780
348,-471,791
342,-493,781
354,-478,790
346,-487,783
346,-498,775
357,-469,789
347,-489,784
347,-489,784
347,-473,791
344,-492,781
358,-481,787
347,-478,791
347,-492,777
357,-474,794
342,-487,784
348,-486,790
346,-462,793
340,-487,783
343,-484,786
341,-477,785
344,-492,781
355,-475,791
352,-473,792
346,-485,786
349,-470,791
351,-484,784
352,-476,789
351,-472,788
348,-484,788
350,-482,791
346,-484,791
351,-481,787
350,-474,788
344,-499,781
345,-486,785
352,-476,790
361,-486,785
349,-475,791
343,-481,788
340,-495,782
346,-472,791
349,-487,786
351,-485,785
344,-474,786
348,-488,784
353,-476,789
344,-475,791
351,-490,786
347,-476,789
346,-481,788
346,-486,786
346,-470,793
349,-488,788
344,-479,788
344,-471,790
350,-487,787
354,-486,787
348,-471,794
342,-494,784
350,-473,791
353,-467,792
344,-488,786
348,-481,788
350,-473,793
340,-487,788
343,-474,791
348,-476,787
344,-480,787
351,-468,795
345,-486,785
346,-477,789
345,-478,789
348,-491,782
349,-470,791
347,-487,787
352,-480,788
350,-469,794
347,-494,780
347,-477,790
343,-486,788
348,-490,785
354,-465,791
346,-484,785
337,-489,785
348,-477,793
347,-479,784
353,-478,788
343,-477,790
342,-491,783
352,-478,791
345,-471,791
349,-492,784
344,-475,788
347,-485,787
346,-488,786
348,-468,792
340,-491,787
345,-472,792
343,-478,791
344,-476,791
352,-480,787
349,-481,786
347,-475,784
347,-478,786
350,-476,791
352,-483,787
342,-480,787
347,-480,789
347,-476,794
351,-475,790
344,-476,789
349,-477,792
350,-480,792
348,-468,793
348,-476,791
344,-493,783
351,-479,789
354,-473,788
347,-475,788
351,-477,788
346,-488,790
345,-481,789
350,-476,791
345,-480,787
349,-480,788
352,-471,792
346,-487,791
350,-483,787
345,-481,790
343,-477,790
348,-476,788
349,-484,787
348,-476,788
346,-475,788
344,-479,791
342,-476,792
347,-474,791
342,-478,792
345,-480,789
347,-485,790
342,-487,786
346,-480,787
349,-483,787
343,-480,789
352,-477,793
347,-470,790
354,-476,789
349,-470,790
337,-481,788
343,-480,786
349,-478,791
346,-478,786
348,-473,789
350,-470,791
345,-481,789
346,-481,785
346,-481,789
355,-475,791
352,-473,790
343,-472,792
343,-485,791
343,-472,790
347,-481,785
348,-469,795
353,-479,790
350,-477,792
344,-479,790
343,-487,787
350,-484,789
346,-482,782
347,-479,788
347,-470,791
343,-488,788
348,-486,786
354,-489,788
347,-495,784
346,-484,786
345,-488,778
349,-491,782
352,-484,785
352,-486,785
333,-500,769
344,-495,781
350,-466,792
345,-490,783
348,-477,790
350,-477,784
343,-485,784
346,-494,788
348,-480,792
343,-466,791
347,-486,781
343,-485,791
344,-484,784
346,-484,782
345,-480,789
344,-480,786
343,-479,789
348,-477,789
350,-475,793
352,-491,786
341,-476,792
343,-476,790
346,-477,790
350,-482,790
346,-476,792
343,-472,791
347,-469,790
346,-479,789
345,-485,788
350,-484,786
344,-486,787
346,-474,791
347,-483,787
349,-480,788
349,-479,789
349,-484,787
347,-479,787
347,-480,786
348,-478,791
348,-479,786
347,-477,792
350,-479,787
345,-478,790
348,-470,794
344,-480,789
345,-477,786
348,-480,789
350,-481,788
346,-480,791
347,-484,794
346,-478,791
345,-481,791
350,-469,793
349,-475,794
346,-474,791
346,-479,793
348,-476,791
345,-479,791
346,-474,794
346,-469,797
346,-471,792
347,-468,794
352,-476,791
346,-466,793
349,-485,788
348,-468,795
352,-469,793
351,-470,794
348,-465,792
335,-474,791
342,-481,787
341,-477,795
347,-474,788
341,-489,790
346,-476,788
347,-489,786
348,-483,790
343,-483,787
344,-488,785
348,-484,790
346,-479,785
346,-482,785
354,-480,791
348,-485,788
347,-477,790
345,-476,786
347,-484,787
349,-474,789
343,-488,791
348,-479,789
349,-486,788
347,-481,789
346,-479,788
349,-482,789
344,-479,788
349,-482,793
349,-482,787
346,-477,787
344,-480,793
353,-475,789
343,-475,790
345,-481,785
346,-480,786
344,-484,787
342,-480,788
350,-479,789
347,-479,786
345,-481,791
349,-483,789
346,-480,790
348,-477,789
347,-481,791
348,-482,789
345,-479,786
344,-487,790
343,-472,790
344,-486,788
344,-481,791
350,-474,790
347,-480,789
346,-478,789
346,-473,790
349,-473,791
348,-474,791
349,-479,790
343,-487,787
349,-475,787
349,-471,793
353,-500,785
350,-467,793
349,-458,795
342,-465,789
348,-477,785
344,-479,795
349,-464,799
344,-474,789
350,-477,787
344,-481,792
345,-468,797
343,-463,800
338,-466,791
344,-474,789
344,-461,797
346,-469,793
352,-474,792
341,-467,796
350,-469,792
343,-472,792
346,-466,795
347,-471,795
350,-467,795
345,-470,792
346,-475,791
341,-476,795
346,-461,792
347,-473,791
343,-464,799
347,-469,795
345,-463,795
349,-463,794
344,-467,799
350,-467,795
351,-472,796
348,-472,794
348,-465,797
347,-463,795
345,-466,800
346,-461,798
350,-469,797
348,-461,800
348,-463,794
346,-466,800
351,-466,795
348,-467,795
348,-464,794
341,-470,792
347,-464,796
345,-464,793
350,-463,797
345,-471,791
350,-469,796
350,-461,797
349,-481,793
351,-464,791
347,-465,794
347,-463,792
347,-462,800
350,-469,796
349,-466,796
352,-463,799
345,-476,793
343,-460,796
349,-464,792
352,-457,799
347,-472,793
345,-468,789
352,-473,792
354,-476,786
350,-466,792
353,-470,785
348,-474,789
349,-475,793
348,-472,789
353,-467,793
345,-472,797
350,-474,794
353,-470,789
349,-470,791
345,-470,791
346,-475,791
350,-474,787
350,-472,787
347,-475,787
348,-480,790
343,-480,789
351,-478,789
354,-469,790
354,-478,785
356,-477,786
347,-469,792
358,-463,788
350,-473,795
356,-470,793
354,-471,790
350,-469,793
349,-473,790
354,-473,790
350,-466,793
354,-470,794
354,-471,794
354,-468,792
351,-474,791
353,-473,791
348,-472,792
356,-470,794
348,-466,795
352,-469,792
348,-468,792
355,-473,790
350,-469,788
354,-475,793
349,-471,787
350,-469,795
351,-475,790
349,-473,791
352,-475,789
351,-468,789
355,-475,790
344,-473,790
347,-467,792
351,-475,791
348,-479,789
349,-473,790
351,-482,789
346,-476,788
347,-477,790
349,-475,793
354,-474,794
355,-477,784
347,-478,790
347,-474,792
349,-473,787
346,-472,789
354,-473,791
348,-475,788
356,-478,792
351,-473,791
351,-474,792
347,-473,789
350,-478,789
348,-471,791
349,-476,791
352,-477,791
353,-477,792
345,-472,791
349,-479,787
352,-483,786
347,-478,788
349,-479,791
348,-476,791
351,-477,790
343,-479,788
349,-480,789
347,-473,791
345,-478,789
351,-471,793
349,-470,792
347,-482,790
346,-472,791
348,-474,792
353,-474,792
353,-477,790
344,-476,792
349,-476,795
348,-473,788
348,-475,789
346,-483,790
348,-481,789
353,-472,792
347,-474,791
346,-476,793
344,-474,792
353,-479,792
347,-475,794
345,-475,791
340,-479,789
343,-477,789
345,-478,790
350,-474,791
345,-480,792
348,-474,792
348,-479,790
350,-479,790
345,-471,792
355,-469,790
351,-474,794
351,-473,794
351,-474,790
349,-471,790
352,-473,790
351,-478,792
348,-469,794
354,-468,793
354,-470,788
354,-471,789
350,-471,796
350,-462,797
349,-470,791
348,-470,791
349,-469,791
345,-471,791
352,-466,795
353,-478,788
357,-468,794
347,-475,791
348,-477,787
345,-473,793
352,-473,790
345,-478,788
344,-475,787
352,-475,793
347,-480,790
345,-483,785
348,-480,790
350,-471,791
349,-477,791
354,-476,792
346,-472,793
352,-472,794
349,-472,790
346,-471,792
351,-474,792
348,-472,791
346,-475,793
350,-476,791
352,-475,788
348,-473,790
354,-475,792
354,-480,788
345,-479,786
339,-468,793
357,-467,792
352,-473,790
338,-474,791
351,-465,795
361,-467,794
343,-477,790
345,-465,791
349,-472,793
358,-471,791
355,-471,790
350,-470,788
346,-475,791
350,-464,792
355,-464,796
351,-470,791
349,-463,794
343,-460,793
349,-463,797
353,-473,789
344,-466,795
350,-466,791
344,-438,799
345,-551,739
339,-506,772
338,-494,778
328,-476,793
334,-503,784
341,-506,780
326,-489,786
334,-470,795
331,-476,794
344,-449,794
340,-451,802
343,-495,784
339,-492,786
338,-473,793
343,-485,790
350,-486,785
345,-476,788
341,-487,788
344,-489,786
344,-476,791
346,-475,791
352,-480,789
345,-487,785
345,-475,791
346,-476,787
352,-479,787
339,-483,783
346,-476,788
342,-488,786
342,-477,786
349,-485,790
345,-486,788
341,-483,788
339,-489,784
349,-477,790
343,-491,784
347,-480,787
345,-482,788
347,-486,784
342,-485,786
353,-484,787
350,-482,786
345,-480,789
346,-486,785
345,-479,790
342,-478,788
341,-480,789
342,-485,787
345,-488,785
345,-475,791
350,-478,787
344,-476,787
352,-485,789
347,-482,787
349,-480,784
351,-483,789
349,-474,791
347,-481,789
354,-478,789
348,-476,791
356,-475,790
346,-478,786
348,-478,784
349,-485,787
347,-477,789
346,-479,789
353,-485,788
345,-482,787
342,-482,791
347,-472,787
345,-481,784
350,-481,786
347,-483,787
347,-482,786
350,-480,786
350,-483,786
350,-480,791
349,-480,788
349,-473,790
349,-478,787
350,-476,790
350,-478,790
354,-480,787
352,-479,787
348,-474,789
346,-476,786
348,-472,787
349,-478,788
350,-479,786
348,-479,787
352,-477,788
352,-475,786
354,-470,787
353,-479,786
347,-474,790
353,-472,791
353,-483,792
345,-473,794
354,-475,790
350,-477,788
350,-480,786
349,-487,782
349,-481,785
349,-477,789
349,-482,786
349,-480,782
352,-484,783
351,-482,784
352,-481,786
355,-476,786
349,-485,785
349,-475,791
356,-472,790
355,-477,787
355,-476,787
351,-479,789
350,-475,786
352,-474,790
350,-474,792
356,-477,787
351,-471,788
352,-466,801
352,-472,786
352,-474,788
352,-477,789
356,-477,785
348,-475,785
351,-478,789
353,-469,790
356,-486,772
345,-483,783
350,-489,781
350,-487,785
354,-488,785
354,-489,784
353,-505,766
351,-494,779
352,-489,785
357,-496,779
355,-473,787
354,-472,786
354,-485,785
353,-484,780
350,-487,783
350,-489,777
354,-485,782
353,-482,785
351,-486,782
356,-482,784
354,-480,784
355,-488,781
351,-484,782
353,-485,782
360,-482,784
358,-485,783
358,-479,783
356,-489,776
357,-485,779
356,-484,781
351,-485,786
355,-484,780
356,-484,781
355,-485,781
354,-482,779
358,-486,782
356,-481,782
356,-482,783
352,-481,784
358,-485,780
354,-483,782
357,-487,781
352,-484,781
360,-484,780
354,-487,778
356,-487,777
354,-486,781
365,-479,780
358,-487,781
354,-485,783
356,-492,779
353,-487,779
354,-490,785
354,-489,782
354,-490,781
354,-487,778
363,-486,780
357,-484,780
355,-487,779
356,-484,782
359,-490,780
357,-486,780
361,-486,782
354,-485,782
353,-485,785
359,-479,782
361,-490,776
356,-478,785
353,-484,779
357,-493,775
358,-482,779
360,-486,780
361,-484,778
361,-487,784
356,-489,781
357,-480,778
354,-489,780
361,-486,777
358,-481,780
359,-483,785
359,-489,781
359,-479,781
356,-479,779
357,-485,783
354,-482,783
363,-483,780
363,-477,782
350,-489,778
358,-475,781
356,-488,775
353,-483,779
353,-484,780
360,-487,780
362,-484,777
356,-492,779
362,-482,780
355,-481,787
359,-484,782
354,-484,777
357,-479,779
359,-480,783
360,-481,782
358,-482,784
361,-479,784
361,-477,780
357,-475,781
359,-477,784
356,-481,784
358,-481,784
357,-483,785
359,-480,784
360,-476,781
356,-477,781
356,-484,784
358,-481,782
358,-479,787
361,-477,786
355,-475,783
354,-485,783
359,-473,786
360,-482,784
358,-479,785
358,-487,785
357,-485,777
352,-481,783
358,-482,783
352,-485,783
358,-483,783
359,-485,781
364,-480,780
361,-480,781
357,-478,781
360,-481,782
355,-477,785
358,-479,787
358,-482,782
358,-479,783
363,-477,786
359,-477,785
361,-477,778
359,-481,784
357,-486,785
359,-479,782
361,-475,784
358,-479,782
360,-475,781
362,-478,785
360,-479,785
362,-478,788
360,-477,782
362,-484,782
359,-476,784
356,-477,781
360,-483,782
361,-478,784
355,-480,782
358,-482,781
360,-479,783
361,-475,783
355,-470,786
356,-479,786
359,-482,783
361,-478,784
356,-483,785
350,-478,780
358,-482,781
361,-477,783
358,-479,780
364,-478,787
357,-477,782
352,-480,784
353,-478,782
357,-479,787
364,-480,785
354,-482,778
361,-479,782
361,-481,783
359,-471,785
359,-476,783
360,-478,783
357,-478,778
358,-480,782
363,-481,783
361,-479,783
360,-476,781
354,-472,783
360,-478,780
356,-481,783
363,-486,782
366,-479,782
358,-483,781
351,-475,785
357,-477,781
354,-480,785
364,-480,781
354,-486,778
359,-484,784
359,-482,783
361,-481,783
355,-484,781
359,-475,782
358,-483,784
355,-482,780
358,-480,778
354,-477,782
358,-480,785
359,-484,782
357,-479,780
362,-478,786
360,-479,781
357,-474,781
357,-479,784
357,-481,782
361,-482,784
359,-479,781
358,-482,783
353,-480,783
357,-482,782
359,-479,782
364,-480,784
357,-481,786
356,-486,782
360,-476,779
353,-480,782
359,-476,780
358,-473,786
363,-485,783
363,-481,781
360,-479,781
361,-478,780
357,-481,781
363,-483,783
370,-488,783
358,-479,779
358,-479,782
361,-481,780
362,-479,782
355,-478,781
358,-480,785
363,-479,782
361,-480,785
360,-486,781
359,-481,786
358,-476,784
361,-486,779
360,-480,783
360,-485,780
364,-481,783
360,-474,787
364,-486,781
358,-486,779
358,-475,788
365,-478,784
361,-476,785
362,-477,787
364,-478,782
362,-482,780
358,-481,781
359,-482,783
359,-477,784
361,-480,780
361,-476,779
361,-479,783
365,-476,783
362,-477,786
360,-484,782
359,-476,785
360,-480,783
358,-476,788
365,-482,778
355,-482,781
366,-484,781
366,-476,782
364,-481,782
360,-478,782
359,-478,784
355,-480,781
361,-486,780
366,-475,789
361,-480,780
363,-479,779
361,-477,783
363,-488,785
364,-480,780
361,-481,785
364,-475,782
364,-482,779
368,-480,784
354,-475,784
361,-483,780
363,-478,783
358,-480,781
364,-483,779
364,-485,779
362,-478,782
357,-488,773
354,-485,777
364,-469,780
353,-488,779
363,-489,776
360,-485,785
362,-500,777
360,-493,772
360,-478,782
354,-470,783
352,-474,788
358,-496,775
363,-474,784
354,-494,778
360,-485,783
365,-489,780
355,-471,785
361,-479,783
350,-453,799
362,-492,780
352,-475,787
357,-471,788
349,-471,788
359,-478,785
349,-469,792
357,-476,788
354,-475,785
357,-473,785
355,-479,785
359,-474,786
361,-478,785
360,-470,789
359,-474,786
354,-474,786
355,-472,790
357,-474,785
354,-479,783
356,-477,787
356,-479,785
354,-473,789
359,-474,787
356,-477,785
355,-477,786
357,-479,788
353,-476,784
353,-474,786
359,-468,786
354,-474,790
358,-476,785
353,-473,789
359,-471,787
359,-477,786
355,-471,787
357,-470,793
355,-479,786
352,-470,789
360,-471,787
358,-473,785
360,-466,787
355,-477,788
357,-472,788
360,-479,790
353,-470,790
359,-470,791
355,-471,790
356,-468,788
359,-469,786
358,-469,786
358,-474,790
354,-475,784
356,-474,790
355,-468,790
351,-472,787
354,-473,793
361,-472,785
353,-476,785
353,-476,786
351,-473,786
359,-469,791
356,-468,788
360,-481,784
356,-475,784
361,-476,790
351,-474,790
355,-469,789
354,-468,789
361,-476,791
359,-470,789
352,-468,791
353,-467,789
352,-468,792
359,-467,796
355,-470,791
360,-470,791
358,-475,786
354,-470,792
358,-466,789
357,-469,791
359,-469,790
353,-472,790
358,-471,789
356,-472,788
355,-468,790
360,-477,788
354,-474,789
355,-468,790
354,-476,788
361,-470,786
357,-473,784
357,-476,784
357,-476,790
352,-481,790
354,-472,789
350,-473,790
358,-474,785
353,-477,789
353,-472,791
356,-476,791
353,-475,788
356,-471,792
352,-476,788
357,-465,792
355,-470,790
356,-477,787
354,-471,793
357,-471,791
355,-471,787
357,-469,792
358,-462,796
359,-473,785
356,-468,790
355,-471,789
357,-469,791
354,-471,789
361,-464,787
350,-475,789
362,-467,788
358,-472,790
358,-473,791
356,-469,791
358,-470,790
358,-470,784
355,-470,790
355,-470,787
354,-468,787
353,-470,790
357,-475,785
360,-475,789
351,-471,785
358,-478,784
354,-478,788
355,-478,785
353,-480,787
353,-475,788
360,-471,789
357,-476,789
356,-470,790
356,-476,786
353,-472,789
353,-466,791
358,-472,788
357,-472,789
364,-470,788
359,-471,794
