acc_x[mg],acc_y[mg],acc_z[mg],gyro_x[dps],gyro_y[dps],gyro_z[dps]
782.000,123.000,600.000,-0.140,0.070,-0.210
813.871,125.800,623.831,-0.266,0.248,-0.151
739.727,111.875,568.594,-0.339,0.441,-0.173
815.683,124.463,626.974,-0.327,0.582,-0.268
748.832,113.613,577.047,-0.228,0.668,-0.285
800.543,117.292,619.215,-0.209,0.721,-0.269
767.809,107.274,594.899,-0.087,0.780,-0.306
782.649,109.769,607.869,0.320,0.767,-0.504
784.908,112.432,609.230,0.931,0.766,-0.564
774.716,109.783,604.142,1.459,0.834,-0.493
791.817,117.622,621.584,1.784,0.811,-0.560
774.898,132.063,608.241,2.359,0.658,-0.707
794.583,146.872,624.384,2.944,0.297,-0.424
779.949,142.650,612.580,2.822,-0.105,0.159
787.561,139.988,614.460,2.317,-0.300,0.351
783.000,137.000,610.000,2.240,-0.420,0.280
779.931,135.463,606.066,2.487,-0.542,0.214
784.282,138.855,604.447,2.643,-0.632,0.247
774.619,138.380,595.084,2.576,-0.556,0.344
780.576,137.404,599.913,2.036,-0.458,0.308
773.354,137.746,591.689,1.370,-0.512,0.134
781.667,143.336,595.644,0.758,-0.475,-0.028
782.661,144.876,594.565,0.010,-0.496,-0.070
785.404,142.241,594.636,-0.780,-0.501,-0.069
787.334,138.683,595.836,-1.446,-0.313,-0.121
784.908,137.938,595.462,-1.671,-0.231,-0.170
788.388,140.275,600.342,-1.687,-0.143,-0.016
783.949,139.263,597.559,-1.648,-0.015,0.280
785.717,139.195,600.132,-1.630,0.116,0.586
783.369,138.720,600.974,-1.862,0.213,0.879
783.000,136.000,604.000,-2.030,0.140,1.050
782.429,134.141,604.570,-2.035,0.130,1.164
781.538,133.405,601.967,-1.984,0.195,1.387
782.270,131.376,601.539,-1.905,0.244,1.623
782.394,128.628,597.717,-1.934,0.352,1.715
784.159,128.231,594.762,-2.257,0.604,1.775
781.279,130.640,589.895,-2.681,0.901,1.832
782.199,130.744,590.279,-3.122,1.141,1.895
783.103,123.680,592.180,-3.796,1.507,1.896
782.702,116.760,589.097,-4.343,1.891,1.780
783.944,115.113,591.406,-4.470,2.152,1.653
783.679,114.558,594.242,-4.211,2.386,1.582
784.133,113.647,596.067,-3.811,2.638,1.638
783.519,114.419,600.251,-3.454,2.856,1.582
781.710,114.853,604.908,-3.011,2.947,1.636
779.000,113.000,612.000,-2.660,3.010,1.680
776.958,114.555,614.990,-2.421,3.190,1.310
777.438,115.128,615.329,-2.124,3.303,1.180
774.422,111.342,618.224,-1.846,3.209,1.117
772.186,111.697,621.336,-1.656,3.089,0.810
773.678,111.572,621.562,-1.452,2.947,0.682
776.746,112.886,619.416,-1.211,2.752,0.707
779.079,118.350,617.999,-1.121,2.497,0.697
779.033,120.854,619.799,-1.243,2.193,0.695
778.328,123.459,621.092,-1.533,1.894,0.810
776.458,123.960,621.482,-1.850,1.576,0.929
774.973,121.138,625.417,-2.126,1.321,1.070
772.752,119.385,624.864,-2.283,1.073,1.124
771.833,118.897,624.425,-2.203,0.843,1.141
769.329,117.657,625.948,-2.178,0.583,1.281
766.000,115.000,624.000,-2.240,0.280,1.330
767.806,114.843,624.000,-2.183,0.089,1.277
767.205,114.837,623.648,-2.113,0.007,1.146
768.619,110.629,625.704,-2.087,-0.024,1.119
772.607,105.621,623.528,-2.136,-0.143,1.057
772.809,105.492,619.204,-2.167,-0.244,0.819
774.469,105.493,622.844,-2.074,-0.392,0.669
774.923,100.608,621.730,-2.032,-0.490,0.473
773.982,98.018,619.999,-2.038,-0.484,0.291
775.467,98.114,618.720,-1.775,-0.611,0.121
776.901,96.854,616.929,-1.409,-0.629,-0.083
776.613,94.790,619.790,-1.225,-0.672,-0.239
777.213,96.504,618.877,-0.802,-0.681,-0.428
776.377,101.207,618.064,-0.164,-0.631,-0.368
774.983,101.894,617.761,0.258,-0.710,-0.192
776.000,102.000,616.000,0.490,-0.700,-0.140
776.054,103.647,615.276,0.722,-0.701,-0.132
775.883,107.298,612.644,1.052,-0.652,-0.204
776.728,111.931,611.925,1.110,-0.621,-0.169
778.971,110.011,614.159,0.762,-0.616,-0.151
778.194,105.653,614.566,0.329,-0.526,-0.250
778.353,105.149,610.907,0.022,-0.481,-0.401
778.856,106.047,607.930,0.007,-0.413,-0.725
776.086,106.026,608.023,0.072,-0.293,-0.907
776.839,106.491,607.158,-0.037,-0.108,-0.953
775.667,109.556,606.475,-0.105,0.021,-1.088
774.912,113.115,604.649,0.021,0.183,-1.127
776.084,116.510,606.868,0.063,0.313,-1.121
774.322,118.234,611.956,-0.022,0.264,-1.115
774.182,119.365,610.668,0.016,0.285,-1.128
776.000,123.000,612.000,0.140,0.210,-1.190
777.001,124.159,615.709,0.153,0.132,-1.133
776.861,122.151,616.825,0.035,0.241,-1.104
776.900,117.632,616.271,-0.052,0.362,-1.161
773.405,116.073,613.405,-0.078,0.475,-1.260
770.304,118.516,615.282,-0.067,0.478,-1.486
771.085,114.896,616.560,-0.194,0.514,-1.526
769.886,114.141,612.864,-0.512,0.635,-1.470
769.896,112.516,616.473,-0.574,0.571,-1.474
771.551,107.261,620.419,-0.288,0.486,-1.404
773.367,116.352,617.168,0.058,0.514,-1.417
773.995,124.460,619.091,0.471,0.383,-1.282
773.881,123.103,623.023,0.636,0.242,-0.988
773.692,123.118,621.053,0.297,0.303,-0.790
771.636,123.013,620.096,0.144,0.265,-0.692
769.000,124.000,621.000,0.140,0.210,-0.630
766.148,123.300,620.982,-0.163,0.162,-0.397
767.179,122.005,621.115,-0.373,0.017,-0.126
769.129,122.003,619.935,-0.596,0.010,0.020
771.411,122.336,617.604,-0.992,-0.059,0.132
774.919,122.695,617.233,-1.450,-0.169,0.254
774.662,117.352,621.095,-2.022,-0.232,0.262
774.002,112.944,625.238,-2.392,-0.358,0.047
774.004,114.845,626.980,-2.324,-0.416,-0.260
774.083,115.178,625.641,-2.223,-0.525,-0.414
772.586,115.348,623.589,-2.346,-0.661,-0.445
772.134,116.245,624.696,-2.382,-0.751,-0.585
775.089,113.356,621.590,-2.405,-0.753,-0.628
774.512,111.930,617.243,-2.446,-0.686,-0.657
775.321,110.460,618.188,-2.268,-0.702,-0.784
775.000,106.000,617.000,-1.890,-0.630,-0.770
772.058,105.772,615.812,-1.403,-0.501,-0.706
772.375,106.683,618.049,-0.933,-0.479,-0.694
770.144,109.630,621.263,-0.348,-0.529,-0.688
770.869,117.190,624.262,0.181,-0.594,-0.521
771.614,122.769,625.071,0.408,-0.654,-0.393
771.210,124.962,626.295,0.386,-0.708,-0.318
773.051,119.359,625.819,0.037,-0.697,-0.130
772.061,114.012,622.283,-0.270,-0.635,-0.194
772.711,116.407,619.385,-0.249,-0.615,-0.349
772.932,117.782,618.175,-0.054,-0.724,-0.268
773.393,118.101,616.996,-0.014,-0.794,-0.148
773.407,114.872,615.291,-0.301,-0.748,-0.158
771.596,111.643,616.580,-0.663,-0.802,-0.246
772.075,113.222,616.802,-0.847,-0.927,-0.462
771.000,112.000,616.000,-0.770,-0.980,-0.700
770.012,110.049,617.102,-0.923,-0.922,-0.822
769.915,110.553,614.727,-1.236,-0.893,-0.943
770.807,112.538,614.059,-1.256,-0.940,-1.086
772.732,115.692,614.966,-1.552,-0.817,-1.304
772.629,117.122,613.612,-2.084,-0.657,-1.280
771.660,115.522,617.174,-2.448,-0.619,-1.199
769.879,115.093,621.206,-2.589,-0.476,-1.336
769.049,116.896,623.771,-2.406,-0.353,-1.270
767.549,117.773,626.487,-1.918,-0.350,-1.158
765.647,118.825,628.860,-1.066,-0.349,-0.869
767.299,119.026,630.097,-0.151,-0.348,-0.477
769.687,121.913,625.085,0.599,-0.378,-0.236
769.950,125.545,623.279,0.958,-0.549,0.105
771.391,123.523,625.011,0.794,-0.629,0.297
774.000,121.000,623.000,0.420,-0.630,0.420
775.704,116.040,622.145,0.040,-0.697,0.438
777.584,110.605,619.435,-0.082,-0.688,0.343
778.477,109.839,615.070,-0.026,-0.782,0.381
778.934,110.423,612.861,0.010,-0.863,0.269
776.670,113.450,611.530,-0.202,-0.826,0.210
774.797,116.377,612.355,-0.774,-0.853,0.196
773.849,115.862,614.107,-1.292,-0.913,0.140
772.014,113.228,614.944,-1.595,-0.913,0.144
772.936,111.079,616.409,-1.689,-0.899,0.028
771.584,111.965,618.615,-1.568,-0.963,-0.053
770.965,114.810,618.479,-1.276,-0.985,-0.091
772.198,116.156,617.482,-1.032,-0.967,-0.013
771.971,114.263,616.668,-0.969,-0.876,0.081
773.175,112.915,615.923,-0.895,-0.848,0.072
773.000,113.000,615.000,-0.840,-0.910,0.070
773.712,114.710,613.943,-0.949,-0.905,-0.164
774.510,114.831,614.862,-1.181,-0.970,-0.388
771.983,112.240,614.668,-1.435,-0.948,-0.493
769.832,111.955,615.884,-1.630,-0.877,-0.637
768.360,110.115,616.800,-1.696,-0.810,-0.728
767.960,110.308,616.026,-1.775,-0.770,-0.780
768.017,108.630,618.156,-1.901,-0.766,-0.850
768.883,105.762,617.251,-2.084,-0.701,-1.036
770.580,112.711,615.431,-2.232,-0.756,-1.128
772.271,112.350,620.349,-2.290,-0.745,-1.069
773.218,104.154,625.161,-2.564,-0.620,-1.038
772.333,104.387,624.049,-2.400,-0.520,-1.080
771.869,111.297,626.507,-1.528,-0.484,-1.108
770.713,116.501,631.384,-0.733,-0.397,-0.853
769.000,119.000,631.000,-0.070,-0.280,-0.490
768.923,120.353,632.719,0.493,-0.341,-0.244
769.593,116.463,630.534,0.841,-0.349,-0.042
771.088,118.879,622.395,1.016,-0.414,0.047
772.393,123.129,621.021,1.038,-0.570,0.136
773.346,117.035,619.602,0.756,-0.658,0.381
775.514,112.332,613.474,0.234,-0.709,0.485
778.265,109.812,608.782,-0.084,-0.778,0.337
781.835,108.939,607.963,-0.201,-0.903,0.216
780.938,109.838,608.133,-0.364,-0.968,0.152
777.229,111.111,607.625,-0.650,-1.001,0.101
777.028,112.420,608.351,-0.937,-0.905,-0.022
776.315,109.123,606.786,-1.126,-0.799,-0.242
776.056,108.365,606.549,-1.187,-0.626,-0.378
775.824,108.688,611.970,-1.010,-0.399,-0.426
774.000,105.000,616.000,-0.770,-0.350,-0.490
772.260,107.811,615.211,-0.649,-0.173,-0.616
770.987,115.083,615.710,-0.475,-0.060,-0.608
771.413,114.862,620.464,-0.401,-0.087,-0.450
772.304,111.566,621.635,-0.630,-0.037,-0.424
772.999,112.966,618.890,-0.661,0.033,-0.398
771.363,115.524,617.800,-0.444,0.176,-0.341
770.042,118.233,616.971,-0.347,0.284,-0.270
771.017,120.014,617.865,-0.346,0.284,-0.084
770.003,119.090,619.562,-0.454,0.221,0.049
771.201,119.247,621.912,-0.620,0.203,0.130
771.676,116.924,622.941,-0.854,0.233,0.111
770.554,111.704,618.340,-1.043,0.343,0.056
771.030,109.740,615.876,-1.034,0.424,0.069
771.179,108.800,617.080,-0.968,0.336,-0.017
774.000,109.000,615.000,-0.840,0.350,-0.070
774.224,114.153,612.101,-0.757,0.418,-0.067
773.763,116.685,613.186,-1.023,0.414,-0.081
772.910,114.374,615.333,-1.667,0.458,-0.024
768.703,117.449,616.536,-2.464,0.512,0.007
770.120,120.129,618.976,-3.208,0.449,-0.002
771.905,115.574,621.494,-3.741,0.332,-0.003
769.814,109.606,625.498,-3.994,0.355,-0.081
767.211,106.951,634.307,-3.575,0.357,-0.267
765.736,109.979,639.927,-2.239,0.193,-0.320
767.432,113.452,638.438,-0.910,-0.078,-0.019
767.841,113.959,637.967,-0.138,-0.421,0.341
768.024,111.543,636.607,0.308,-0.632,0.420
767.751,110.227,631.363,0.431,-0.733,0.308
768.205,114.872,628.789,0.410,-0.857,0.200
768.000,118.000,626.000,0.140,-0.910,0.210
765.094,116.457,621.471,-0.519,-0.911,0.270
766.436,112.527,619.431,-1.173,-0.872,0.338
766.920,108.325,618.018,-1.592,-0.751,0.322
767.619,108.907,618.219,-1.689,-0.660,0.269
769.024,109.735,619.495,-1.541,-0.610,0.423
767.599,105.991,622.954,-1.356,-0.545,0.485
767.002,104.025,624.914,-1.094,-0.486,0.498
767.838,105.817,621.298,-0.669,-0.425,0.624
770.535,108.369,619.656,-0.164,-0.364,0.674
771.079,110.301,622.311,0.090,-0.299,0.849
770.860,108.231,625.848,-0.060,-0.271,0.913
770.274,107.327,624.592,-0.331,-0.284,0.773
768.616,111.068,623.263,-0.559,-0.285,0.667
769.161,109.129,627.686,-0.814,-0.366,0.544
770.000,103.000,628.000,-1.120,-0.420,0.490
770.942,103.443,625.116,-1.319,-0.415,0.376
770.349,106.581,625.712,-1.330,-0.469,0.235
769.645,107.480,625.560,-1.365,-0.557,0.164
769.933,108.646,624.417,-1.417,-0.721,0.144
770.022,108.950,625.478,-1.387,-0.765,0.267
771.192,109.036,625.758,-1.413,-0.793,0.364
770.937,107.785,623.865,-1.475,-0.914,0.426
770.086,104.238,623.005,-1.537,-0.848,0.488
768.404,102.237,623.608,-1.500,-0.825,0.491
767.452,101.262,625.433,-1.394,-0.889,0.490
768.883,100.835,625.687,-1.451,-0.971,0.489
770.828,101.133,624.093,-1.443,-1.103,0.491
774.064,100.655,622.397,-1.408,-1.114,0.489
777.453,98.701,620.844,-1.471,-1.125,0.488
779.000,98.000,620.000,-1.330,-1.120,0.420
777.402,98.053,617.429,-1.199,-1.061,0.296
774.783,98.401,615.418,-1.104,-0.957,0.217
771.938,100.169,613.268,-0.959,-0.835,0.237
770.361,98.905,611.037,-1.088,-0.885,0.312
771.240,97.835,612.921,-1.379,-0.886,0.230
770.633,96.350,613.842,-1.782,-0.728,0.122
770.068,93.983,613.015,-2.029,-0.547,-0.018
771.878,96.701,614.786,-1.774,-0.426,-0.268
772.240,99.027,618.027,-1.613,-0.321,-0.293
770.611,98.210,622.816,-1.521,-0.124,-0.303
768.671,98.564,627.563,-1.164,-0.029,-0.411
767.378,101.191,629.366,-0.823,0.041,-0.422
766.723,102.210,630.405,-0.300,0.042,-0.548
765.939,105.920,632.223,0.285,-0.173,-0.716
767.000,111.000,632.000,0.630,-0.280,-0.700
769.659,111.766,630.226,0.820,-0.389,-0.632
770.955,113.981,628.664,0.975,-0.590,-0.637
770.490,111.293,626.055,1.220,-0.678,-0.560
768.761,108.196,623.757,1.195,-0.731,-0.430
768.005,111.326,622.640,0.972,-0.793,-0.432
770.593,111.660,623.149,0.784,-0.851,-0.399
770.899,108.712,622.919,0.384,-0.834,-0.271
769.978,105.162,622.016,0.016,-0.769,-0.211
770.769,104.854,622.041,-0.075,-0.878,-0.210
772.003,104.482,621.743,-0.026,-0.910,-0.211
773.898,104.311,622.170,0.024,-0.701,-0.190
773.471,107.452,621.254,-0.073,-0.619,-0.077
774.550,107.656,621.257,-0.396,-0.630,0.012
774.721,107.072,621.967,-0.746,-0.632,0.000
772.000,108.000,622.000,-0.980,-0.630,0.070
770.332,106.521,624.777,-1.109,-0.568,0.133
767.660,102.824,623.231,-1.203,-0.517,0.230
766.119,101.496,620.833,-1.413,-0.425,0.331
765.560,102.651,623.444,-1.442,-0.476,0.181
766.605,102.910,623.492,-1.263,-0.581,0.175
769.752,101.419,623.013,-1.175,-0.557,0.295
773.253,97.735,622.951,-1.032,-0.639,0.277
774.978,97.679,622.062,-0.667,-0.700,0.218
776.202,103.721,621.221,-0.167,-0.701,0.091
778.722,106.579,620.215,0.120,-0.663,0.059
774.368,104.570,618.997,0.111,-0.587,0.076
771.095,103.989,617.257,0.050,-0.508,0.059
768.522,103.867,618.642,0.098,-0.270,-0.051
763.652,104.193,618.699,0.232,-0.132,-0.228
765.000,106.000,617.000,0.350,-0.070,-0.210
764.185,106.895,620.320,0.356,0.006,-0.089
765.638,107.749,623.462,0.375,-0.100,0.035
768.765,108.439,625.482,0.535,-0.214,0.124
768.934,110.020,628.175,0.528,-0.385,0.145
770.468,110.973,629.194,0.494,-0.516,0.135
771.070,109.834,630.071,0.460,-0.479,0.150
772.059,111.159,628.858,0.187,-0.496,0.214
771.155,112.010,627.995,-0.054,-0.618,0.214
769.976,113.192,627.399,-0.332,-0.753,0.146
769.508,115.886,626.236,-0.770,-0.808,0.205
767.925,110.562,628.562,-1.358,-0.920,0.392
768.063,103.543,627.620,-1.890,-0.995,0.393
767.723,103.097,624.396,-2.029,-0.982,0.353
768.304,100.213,626.565,-1.849,-1.069,0.436
771.000,96.000,628.000,-1.540,-1.190,0.560
771.974,98.294,624.427,-1.345,-1.313,0.635
772.535,101.364,624.744,-1.273,-1.389,0.567
773.804,97.812,627.670,-1.274,-1.411,0.602
773.116,92.523,624.838,-1.417,-1.365,0.617
771.254,92.756,624.654,-1.445,-1.335,0.526
771.056,95.423,627.223,-1.188,-1.418,0.488
772.128,94.858,625.855,-0.973,-1.393,0.572
773.910,93.917,624.181,-0.979,-1.331,0.700
774.080,96.391,620.796,-0.887,-1.334,0.587
774.268,97.504,617.982,-0.710,-1.291,0.581
775.664,96.116,613.880,-0.763,-1.193,0.664
775.816,96.138,609.616,-0.862,-1.057,0.592
775.879,95.711,612.031,-0.692,-0.950,0.541
773.407,94.970,612.864,-0.467,-0.813,0.393
770.000,96.000,613.000,-0.420,-0.630,0.280
769.123,98.715,615.617,-0.365,-0.558,0.169
767.589,98.126,618.586,-0.287,-0.573,-0.024
765.996,95.570,623.004,-0.266,-0.503,-0.155
766.035,100.535,623.446,-0.057,-0.539,-0.261
767.671,104.579,623.409,0.384,-0.657,-0.277
768.990,102.400,626.615,0.671,-0.627,-0.284
767.969,102.130,626.941,0.779,-0.789,-0.278
769.772,105.625,626.934,0.963,-0.913,-0.277
771.196,110.310,627.246,1.121,-0.842,-0.293
770.400,111.144,625.531,0.974,-0.853,-0.193
771.921,106.897,623.962,0.608,-0.795,-0.057
770.764,102.469,621.747,0.266,-0.754,0.010
768.565,103.768,621.353,0.026,-0.680,-0.121
769.224,102.170,624.390,0.189,-0.807,-0.117
771.000,97.000,623.000,0.420,-0.910,0.070
771.997,102.594,619.097,0.358,-0.708,0.071
772.312,108.820,620.990,0.361,-0.843,0.152
775.384,108.173,622.641,0.216,-0.946,0.343
777.400,108.399,620.584,-0.088,-0.889,0.498
776.354,109.024,620.178,-0.262,-0.919,0.584
774.209,107.476,622.552,-0.377,-0.909,0.648
769.705,105.983,624.084,-0.499,-0.907,0.700
768.890,106.087,625.826,-0.560,-0.843,0.696
769.361,103.509,626.574,-0.553,-0.843,0.809
768.060,104.047,622.861,-0.579,-0.790,0.897
771.664,108.955,622.073,-0.499,-0.777,0.940
774.435,109.675,622.891,-0.552,-0.703,1.022
773.870,106.847,621.704,-0.746,-0.533,1.182
775.273,102.430,622.025,-0.767,-0.655,1.340
776.000,102.000,621.000,-0.770,-0.700,1.260
776.786,102.382,621.745,-0.767,-0.750,1.191
777.298,99.858,621.246,-0.854,-0.839,1.188
776.427,102.057,617.297,-1.041,-0.862,1.224
777.438,101.978,617.161,-1.213,-0.948,1.279
775.783,97.320,616.431,-1.399,-0.867,1.247
773.735,95.943,617.565,-1.465,-0.843,1.268
772.882,96.041,618.978,-1.315,-0.758,1.257
771.090,97.808,619.700,-1.191,-0.694,1.255
770.295,99.168,625.118,-1.244,-0.780,1.367
768.364,98.046,626.134,-1.303,-0.667,1.504
768.062,98.600,627.273,-1.380,-0.626,1.554
769.412,98.461,631.598,-1.392,-0.620,1.544
770.170,94.461,631.548,-1.430,-0.654,1.644
771.204,89.272,629.624,-1.549,-0.697,1.576
773.000,87.000,626.000,-1.470,-0.700,1.260
774.036,91.077,623.946,-1.342,-0.882,1.063
773.753,95.178,624.804,-1.308,-1.016,1.035
774.723,92.417,625.005,-1.448,-1.140,1.102
774.353,87.067,624.101,-1.590,-1.222,1.089
773.885,82.639,619.995,-1.466,-1.295,0.889
773.793,83.884,616.562,-1.180,-1.320,0.647
773.005,87.020,617.104,-0.734,-1.259,0.483
773.925,84.227,617.152,-0.368,-1.265,0.486
774.729,84.294,613.843,-0.182,-1.101,0.502
775.774,86.344,611.484,0.008,-0.907,0.438
775.599,85.028,613.547,0.132,-0.721,0.394
776.547,85.479,615.251,0.107,-0.575,0.293
776.476,85.989,614.996,-0.053,-0.440,0.185
775.045,86.057,617.609,-0.143,-0.351,0.129
777.000,86.000,621.000,-0.140,-0.350,0.000
775.490,85.050,621.945,-0.197,-0.046,-0.185
773.226,85.545,622.056,-0.271,0.049,-0.317
772.265,87.195,622.089,-0.255,-0.082,-0.435
771.916,88.625,624.181,-0.160,-0.026,-0.520
773.595,89.300,624.498,-0.145,0.003,-0.454
775.337,91.689,622.695,-0.128,-0.006,-0.423
775.948,92.931,623.069,-0.067,-0.076,-0.416
774.129,91.069,623.073,-0.068,-0.136,-0.352
773.821,92.297,622.084,-0.076,-0.200,-0.357
773.591,94.741,622.303,-0.024,-0.180,-0.264
771.603,94.673,624.051,-0.005,-0.107,-0.176
770.220,93.180,625.171,-0.136,-0.187,-0.254
768.379,91.677,624.691,-0.094,-0.195,-0.275
768.180,92.226,623.970,0.090,-0.138,-0.289
770.000,94.000,625.000,0.140,-0.210,-0.350
770.127,94.935,626.056,0.153,-0.335,-0.291
769.719,95.586,625.135,-0.014,-0.404,-0.307
770.701,96.882,625.344,-0.123,-0.461,-0.427
770.410,96.653,626.158,-0.216,-0.520,-0.373
769.906,98.103,625.624,-0.388,-0.598,-0.363
771.334,101.317,626.439,-0.233,-0.728,-0.318
771.987,97.530,629.126,-0.304,-0.767,-0.130
771.092,94.785,626.495,-0.620,-0.703,-0.134
770.703,100.643,621.670,-0.545,-0.742,-0.157
772.357,102.532,626.674,-0.351,-0.842,-0.051
772.944,93.320,628.584,-0.467,-0.794,0.068
773.102,86.314,621.513,-0.715,-0.797,-0.003
774.201,92.900,620.832,-0.538,-0.969,-0.302
773.878,98.067,627.084,-0.443,-1.147,-0.419
773.000,95.000,632.000,-0.770,-1.330,-0.350
772.100,93.166,630.442,-0.964,-1.459,-0.339
771.390,91.596,629.940,-1.046,-1.520,-0.488
769.538,90.060,632.763,-0.988,-1.586,-0.687
769.008,90.877,628.517,-0.801,-1.634,-0.631
772.727,97.003,621.746,-0.488,-1.731,-0.396
778.049,104.118,619.875,-0.156,-1.944,-0.148
779.980,103.732,620.010,-0.150,-2.106,0.164
778.194,99.330,619.178,-0.333,-2.103,0.349
775.590,95.678,615.817,-0.534,-2.054,0.244
773.249,92.584,613.183,-0.568,-1.869,0.151
772.781,87.777,612.511,-0.587,-1.571,0.089
772.806,83.339,611.275,-0.632,-1.417,-0.075
773.169,83.603,611.023,-0.524,-1.277,-0.161
774.149,86.275,610.930,-0.489,-1.094,-0.309
775.000,85.000,611.000,-0.420,-0.910,-0.420
775.083,82.118,612.775,-0.300,-0.609,-0.410
774.766,82.608,613.140,-0.099,-0.340,-0.527
775.624,84.291,613.437,0.228,-0.156,-0.598
775.770,88.404,617.251,0.474,0.032,-0.700
776.078,89.951,621.246,0.720,0.199,-0.772
775.629,90.593,624.970,0.742,0.287,-0.681
773.921,94.125,630.451,0.547,0.197,-0.706
773.121,92.211,634.850,0.430,0.013,-0.766
771.159,92.895,634.527,0.249,-0.160,-0.829
771.981,97.258,632.284,0.176,-0.432,-0.814
773.343,98.541,631.767,0.271,-0.739,-0.711
772.358,98.827,631.858,0.253,-0.894,-0.695
771.628,96.036,629.904,0.209,-1.032,-0.582
769.744,96.469,624.045,0.301,-1.214,-0.487
770.000,100.000,621.000,0.420,-1.330,-0.490
771.777,101.030,622.059,0.427,-1.508,-0.375
773.330,99.799,619.880,0.371,-1.662,-0.234
775.329,97.716,618.278,0.283,-1.712,-0.198
775.705,98.921,619.680,0.090,-1.798,-0.222
774.308,97.996,619.647,-0.154,-1.809,-0.196
774.021,94.239,618.762,-0.194,-1.726,-0.232
773.966,93.020,617.974,-0.061,-1.601,-0.358
773.930,93.971,618.851,-0.002,-1.541,-0.417
774.990,92.031,620.197,0.052,-1.496,-0.472
774.018,89.007,617.446,0.118,-1.396,-0.542
775.283,93.498,614.543,0.204,-1.449,-0.572
779.816,96.543,615.450,0.313,-1.447,-0.533
780.833,95.790,614.116,0.105,-1.396,-0.480
779.830,94.719,611.893,-0.251,-1.392,-0.494
778.000,94.000,613.000,-0.350,-1.260,-0.490
776.091,96.877,613.969,-0.408,-1.140,-0.433
776.037,93.974,613.474,-0.407,-0.968,-0.320
775.297,88.390,611.852,-0.149,-0.819,-0.217
774.630,85.781,612.788,0.165,-0.671,-0.232
775.070,85.073,614.067,0.469,-0.374,-0.318
774.676,86.122,614.149,0.763,-0.174,-0.455
772.914,86.069,616.154,0.994,0.016,-0.564
773.811,89.610,616.974,1.056,0.139,-0.560
775.831,93.528,618.377,0.889,0.128,-0.607
775.915,95.305,620.523,0.693,0.235,-0.688
775.304,96.707,621.555,0.543,0.302,-0.725
772.072,97.456,624.349,0.462,0.254,-0.813
769.462,99.677,626.205,0.394,0.181,-0.837
768.991,99.827,625.947,0.355,0.048,-0.845
770.000,99.000,626.000,0.490,-0.070,-0.840
771.930,99.120,626.079,0.669,-0.189,-0.718
771.233,97.957,624.703,0.935,-0.319,-0.642
771.238,100.201,622.750,1.319,-0.419,-0.594
772.344,106.103,623.808,1.587,-0.610,-0.506
773.455,108.241,625.137,1.549,-0.859,-0.360
775.219,107.835,624.923,1.148,-1.003,-0.276
774.966,105.771,624.986,0.749,-1.051,-0.360
775.018,104.781,623.251,0.574,-1.048,-0.484
773.516,109.941,620.239,0.300,-1.147,-0.458
772.340,110.896,620.543,-0.111,-1.313,-0.267
773.716,105.583,619.927,-0.577,-1.298,-0.163
773.892,103.676,616.697,-1.005,-1.248,-0.115
775.610,101.931,619.222,-1.001,-1.266,-0.050
775.797,96.162,619.421,-0.824,-1.256,0.006
775.000,95.000,614.000,-0.770,-1.190,-0.000
777.545,97.078,613.045,-0.539,-1.069,0.051
779.645,95.732,610.494,-0.260,-0.950,0.143
780.530,99.193,606.741,-0.173,-0.816,0.143
780.792,103.719,607.866,-0.314,-0.740,0.336
778.752,101.763,609.426,-0.617,-0.649,0.409
775.210,99.835,611.501,-1.006,-0.440,0.350
774.041,100.004,613.101,-1.346,-0.269,0.426
774.969,99.132,615.680,-1.401,-0.147,0.484
774.960,96.809,619.563,-1.451,-0.085,0.560
775.044,92.471,619.934,-1.429,0.019,0.508
774.163,91.071,620.706,-1.127,0.101,0.498
774.146,96.745,622.404,-0.885,0.042,0.450
775.014,95.444,621.547,-0.737,0.101,0.448
773.764,92.155,621.033,-0.790,0.134,0.563
773.000,97.000,622.000,-0.840,0.070,0.420
772.983,97.343,623.846,-0.762,0.011,0.347
773.056,96.506,622.913,-0.921,-0.021,0.355
772.347,98.004,620.935,-1.041,0.063,0.351
771.316,97.263,623.522,-1.077,0.036,0.324
770.680,95.254,623.208,-1.124,-0.001,0.268
771.217,95.269,623.640,-1.017,-0.011,0.282
771.996,95.931,627.105,-0.904,-0.072,0.282
771.066,94.070,625.217,-0.845,-0.068,0.346
771.527,95.345,624.567,-0.735,-0.174,0.354
773.048,97.163,626.297,-0.621,-0.309,0.381
771.393,96.084,628.320,-0.704,-0.424,0.476
769.203,93.920,630.459,-0.792,-0.529,0.475
770.548,93.171,627.682,-0.747,-0.575,0.391
770.873,95.273,624.801,-0.598,-0.637,0.353
771.000,94.000,624.000,-0.420,-0.630,0.420
773.763,90.239,620.643,-0.474,-0.571,0.480
773.422,91.149,617.815,-0.505,-0.501,0.548
773.021,92.044,619.768,-0.501,-0.492,0.561
774.603,86.933,620.491,-0.642,-0.460,0.567
775.052,87.374,616.211,-0.719,-0.423,0.537
776.119,91.282,616.746,-0.794,-0.507,0.486
774.842,87.618,620.132,-0.919,-0.485,0.488
773.975,85.035,620.858,-0.983,-0.486,0.426
773.532,84.331,624.835,-0.788,-0.503,0.365
770.628,83.482,627.993,-0.392,-0.464,0.295
769.481,85.585,627.211,-0.186,-0.569,0.284
770.690,87.573,626.546,-0.067,-0.665,0.243
774.045,86.390,623.742,0.247,-0.704,0.094
776.211,86.363,619.420,0.421,-0.608,-0.012
778.000,91.000,617.000,0.280,-0.560,-0.070
778.379,93.153,616.100,0.107,-0.693,-0.125
775.385,90.477,615.255,-0.296,-0.618,-0.246
775.088,85.375,614.971,-0.904,-0.432,-0.351
773.446,84.697,617.656,-1.018,-0.259,-0.530
771.763,90.064,621.006,-0.573,-0.233,-0.642
773.126,92.234,621.790,-0.244,-0.379,-0.527
771.908,95.378,618.716,-0.373,-0.422,-0.412
772.827,98.137,617.765,-0.744,-0.485,-0.288
774.042,93.265,622.861,-0.929,-0.497,-0.260
774.174,90.345,625.328,-0.704,-0.515,-0.377
775.888,92.754,623.952,-0.335,-0.622,-0.447
775.131,94.399,624.507,0.047,-0.618,-0.379
773.564,93.662,626.351,0.466,-0.649,-0.361
773.005,94.395,624.356,0.636,-0.707,-0.426
774.000,98.000,620.000,0.630,-0.770,-0.420
774.222,98.241,619.866,0.586,-0.782,-0.419
772.365,98.027,618.983,0.314,-0.702,-0.419
771.698,102.203,616.415,0.024,-0.742,-0.427
772.129,104.778,618.399,-0.201,-0.776,-0.376
773.587,102.906,620.341,-0.586,-0.770,-0.206
775.098,100.843,621.209,-0.992,-0.766,-0.041
773.867,103.302,622.043,-1.196,-0.774,-0.000
773.836,105.155,622.891,-1.191,-0.838,0.058
776.020,99.818,624.039,-1.284,-0.794,0.249
773.454,92.623,622.688,-1.427,-0.710,0.300
770.910,90.238,621.052,-1.264,-0.701,0.244
772.762,91.658,620.937,-1.016,-0.684,0.174
772.934,90.022,620.746,-0.885,-0.601,0.145
775.658,88.080,618.547,-0.925,-0.560,0.223
778.000,92.000,616.000,-0.980,-0.560,0.280
776.951,95.750,615.053,-0.962,-0.497,0.337
777.955,96.270,615.399,-1.251,-0.486,0.445
776.820,94.799,617.764,-1.729,-0.491,0.587
774.685,93.656,619.799,-1.994,-0.494,0.659
771.618,93.872,621.742,-2.040,-0.473,0.735
771.378,89.434,622.966,-2.124,-0.406,0.758
773.001,82.616,621.975,-2.085,-0.344,0.618
772.024,80.947,623.758,-1.776,-0.280,0.497
772.206,81.322,626.503,-1.470,-0.380,0.430
770.213,78.525,628.788,-1.160,-0.524,0.357
771.083,75.437,631.074,-0.886,-0.627,0.091
773.664,77.932,629.859,-0.484,-0.749,-0.144
774.184,83.591,627.250,-0.027,-0.773,-0.119
774.958,86.156,625.881,0.060,-0.862,-0.061
773.000,86.000,626.000,-0.070,-0.980,-0.000
772.086,84.251,626.986,-0.143,-0.978,-0.052
770.549,84.682,625.266,-0.049,-1.065,-0.140
769.974,89.323,621.295,0.095,-1.229,-0.103
771.394,88.261,621.975,0.177,-1.257,-0.033
770.460,83.723,624.539,0.235,-1.292,0.012
771.358,84.328,623.469,0.408,-1.424,-0.011
773.162,83.875,620.781,0.723,-1.392,-0.075
775.826,83.000,618.137,0.964,-1.329,-0.135
776.280,82.368,617.763,1.196,-1.343,-0.241
775.561,81.854,618.237,1.464,-1.236,-0.425
775.816,85.552,617.079,1.603,-1.147,-0.569
774.174,87.326,617.225,1.604,-1.078,-0.689
775.582,88.731,618.089,1.611,-0.934,-0.788
774.481,91.255,618.051,1.513,-0.828,-0.763
772.000,92.000,620.000,1.330,-0.770,-0.770
772.979,92.892,622.810,1.214,-0.708,-0.835
772.136,94.051,622.459,1.028,-0.688,-0.842
772.441,97.835,621.809,0.932,-0.743,-0.843
772.786,98.563,624.489,0.839,-0.798,-0.817
773.534,96.478,623.774,0.614,-0.870,-0.741
776.622,97.089,619.071,0.457,-0.913,-0.688
778.058,94.698,619.189,0.262,-0.910,-0.626
778.087,92.031,620.169,0.077,-0.912,-0.626
776.292,92.804,616.557,0.064,-0.860,-0.643
775.864,92.634,616.610,0.017,-0.752,-0.572
774.684,91.063,619.448,-0.249,-0.638,-0.566
771.751,91.303,620.107,-0.342,-0.644,-0.532
772.325,90.124,621.216,-0.147,-0.597,-0.484
771.723,85.240,619.549,-0.068,-0.477,-0.491
771.000,83.000,618.000,0.000,-0.420,-0.560
773.630,86.926,619.711,0.238,-0.293,-0.809
774.360,94.305,621.848,0.462,-0.345,-0.836
773.378,97.134,626.175,0.452,-0.608,-0.613
774.915,93.655,628.470,0.184,-0.754,-0.550
776.050,89.759,627.474,-0.067,-0.778,-0.570
775.871,89.215,626.683,0.075,-0.871,-0.661
774.912,91.146,623.693,0.524,-0.984,-0.773
774.883,92.841,619.338,0.828,-0.981,-0.709
776.205,94.933,616.062,0.865,-0.980,-0.628
773.296,92.387,617.779,0.698,-0.973,-0.701
771.050,87.318,618.745,0.592,-1.019,-0.916
772.832,90.286,615.679,0.665,-1.041,-1.136
774.314,92.951,618.290,0.583,-0.959,-1.198
775.032,89.487,619.785,0.492,-0.990,-1.280
775.000,90.000,617.000,0.630,-0.980,-1.400
777.488,94.419,614.534,0.760,-0.857,-1.460
778.771,96.908,611.172,0.782,-0.748,-1.493
775.545,96.011,612.883,0.720,-0.566,-1.372
775.168,94.709,616.147,0.742,-0.444,-1.350
775.987,99.647,615.495,1.059,-0.389,-1.386
776.008,106.066,616.432,1.380,-0.250,-1.102
775.953,108.113,618.043,1.391,-0.210,-0.747
775.039,110.735,617.135,1.208,-0.149,-0.506
775.048,113.619,615.952,0.927,-0.070,-0.320
773.705,114.399,616.588,0.483,-0.052,-0.141
772.264,112.212,616.993,-0.038,0.123,0.023
773.604,108.323,616.777,-0.451,0.261,0.095
773.708,106.576,617.348,-0.676,0.399,0.166
772.982,103.231,620.625,-0.694,0.495,0.208
773.000,98.000,622.000,-0.630,0.560,0.140
771.324,97.469,618.252,-0.462,0.698,0.135
769.921,102.478,620.362,-0.191,0.605,0.144
770.826,105.422,623.670,-0.136,0.508,0.186
773.018,104.411,621.369,-0.352,0.457,0.411
774.016,105.633,621.386,-0.688,0.414,0.482
773.952,104.104,623.413,-0.847,0.419,0.410
773.993,99.777,625.117,-0.763,0.422,0.421
773.129,98.983,625.975,-0.705,0.427,0.418
771.320,99.022,626.671,-0.595,0.256,0.517
770.160,98.646,627.785,-0.487,0.104,0.710
769.259,96.007,627.822,-0.546,0.024,0.827
768.904,92.684,627.825,-0.709,-0.011,0.839
770.590,92.109,626.303,-0.750,-0.125,0.842
772.180,93.116,624.940,-0.522,-0.296,0.841
773.000,92.000,625.000,-0.490,-0.350,0.910
772.282,89.235,625.638,-0.797,-0.529,0.931
770.837,88.364,628.524,-0.966,-0.674,0.743
772.152,86.672,628.062,-1.015,-0.779,0.664
772.721,85.612,626.272,-1.076,-0.887,0.523
771.542,84.301,627.326,-0.999,-0.926,0.266
772.145,84.543,626.586,-0.784,-0.997,0.211
771.956,88.189,624.882,-0.542,-1.055,0.209
771.961,88.061,623.130,-0.301,-1.117,0.209
772.094,89.287,622.666,0.004,-1.122,0.215
771.723,91.212,623.996,0.203,-1.124,0.170
772.007,90.854,622.548,0.177,-1.085,0.092
771.705,93.489,619.667,0.102,-1.041,0.070
772.089,95.120,619.164,-0.066,-1.044,0.059
771.987,93.565,621.380,-0.322,-0.966,-0.011
773.000,89.000,622.000,-0.630,-0.910,-0.070
773.214,85.919,620.160,-0.787,-0.852,-0.187
772.470,88.141,619.952,-0.488,-0.784,-0.322
774.489,90.258,619.457,-0.074,-0.757,-0.373
774.551,92.208,618.242,0.199,-0.804,-0.287
775.701,94.960,617.980,0.289,-0.845,-0.185
776.822,96.068,619.342,0.290,-0.846,-0.228
774.892,96.016,619.989,0.349,-0.915,-0.282
774.116,96.907,619.952,0.162,-0.914,-0.281
771.531,97.274,620.849,-0.047,-0.852,-0.278
770.543,95.552,620.991,-0.155,-0.796,-0.287
771.025,94.720,620.475,-0.253,-0.731,-0.248
770.825,95.236,619.520,-0.154,-0.672,-0.181
770.802,94.461,620.389,-0.161,-0.614,-0.118
769.957,91.607,621.016,-0.214,-0.545,-0.069
771.000,92.000,622.000,-0.280,-0.420,-0.140
772.651,94.106,622.380,-0.242,-0.355,-0.153
775.374,93.074,619.750,-0.067,-0.302,-0.074
775.663,99.824,622.950,-0.093,-0.283,-0.063
774.610,104.903,624.702,0.204,-0.464,0.156
776.797,96.013,620.223,0.135,-0.578,0.404
776.486,93.588,620.620,-0.435,-0.559,0.205
773.845,97.133,624.240,-0.167,-0.641,-0.002
773.001,97.870,625.135,0.145,-0.824,0.125
773.071,99.968,622.387,-0.078,-1.017,0.266
771.816,97.677,622.745,-0.325,-1.110,0.291
769.363,94.504,625.036,-0.557,-1.141,0.245
769.265,96.100,624.378,-0.661,-1.251,0.192
771.728,96.497,623.827,-0.722,-1.346,0.238
773.116,90.952,622.803,-0.772,-1.324,0.367
774.000,87.000,622.000,-0.700,-1.330,0.350
774.958,88.727,622.712,-0.408,-1.393,0.161
774.924,89.684,624.758,-0.101,-1.410,0.121
775.117,91.588,623.610,-0.120,-1.357,0.160
773.697,94.285,620.464,-0.335,-1.320,0.100
770.926,94.853,621.988,-0.590,-1.326,0.065
769.757,92.196,624.163,-0.812,-1.233,0.071
768.999,91.146,622.817,-0.913,-1.192,0.071
770.763,93.947,620.194,-0.911,-1.197,0.131
773.542,91.167,618.204,-0.953,-1.069,0.262
775.195,87.804,618.171,-1.057,-1.048,0.258
776.640,89.058,620.542,-0.955,-1.012,0.145
776.841,90.600,622.415,-0.774,-1.005,0.169
776.919,90.785,621.421,-0.792,-1.159,0.215
775.759,88.607,619.857,-0.841,-1.098,0.210
775.000,87.000,620.000,-0.770,-1.050,0.210
775.054,87.683,620.184,-0.591,-1.120,0.097
774.837,90.280,617.850,-0.434,-1.069,-0.055
775.131,91.523,616.157,-0.469,-1.016,-0.037
774.217,89.743,618.378,-0.701,-0.916,0.004
773.896,86.947,620.468,-0.873,-0.805,-0.143
773.956,86.183,620.898,-0.709,-0.767,-0.312
775.191,89.315,618.770,-0.479,-0.770,-0.428
777.018,92.014,617.801,-0.421,-0.709,-0.489
775.391,88.501,622.221,-0.421,-0.582,-0.484
774.226,83.521,621.938,-0.364,-0.509,-0.537
772.743,87.789,617.088,-0.068,-0.477,-0.570
771.639,94.494,618.228,0.278,-0.502,-0.545
771.993,96.276,621.895,0.326,-0.484,-0.444
772.128,97.053,622.987,0.100,-0.588,-0.256
774.000,96.000,622.000,-0.070,-0.700,-0.210
774.978,95.690,622.618,-0.123,-0.627,-0.217
774.994,98.441,624.851,-0.292,-0.770,-0.155
774.836,98.413,624.299,-0.440,-0.946,-0.109
774.684,95.484,623.593,-0.589,-1.015,-0.003
773.151,95.004,622.081,-0.886,-1.056,0.093
773.371,93.373,621.068,-0.959,-1.055,0.052
775.012,92.068,623.165,-0.756,-1.126,0.000
774.008,93.942,623.177,-0.700,-1.187,0.063
776.183,92.602,619.844,-0.606,-1.200,0.133
777.712,91.256,616.594,-0.466,-1.136,0.147
775.175,94.406,615.477,-0.579,-1.125,0.107
775.584,98.529,616.678,-0.657,-1.078,0.064
777.020,96.603,618.144,-0.858,-0.947,0.194
774.488,91.448,616.738,-1.056,-0.905,0.276
773.000,92.000,618.000,-0.910,-0.840,0.140
773.967,98.706,622.592,-0.725,-0.833,0.113
773.771,104.150,623.249,-0.612,-0.888,0.432
775.447,94.718,622.138,-0.808,-0.965,0.733
778.122,83.569,618.200,-1.126,-0.941,0.545
778.994,87.842,613.707,-1.008,-0.786,0.271
779.003,92.260,614.309,-0.521,-0.781,0.207
780.106,90.901,613.830,-0.442,-0.762,0.294
779.281,90.953,611.147,-0.941,-0.637,0.483
775.406,90.514,611.268,-1.327,-0.575,0.401
774.556,87.802,615.338,-1.683,-0.472,0.225
771.413,86.620,618.295,-1.949,-0.364,0.216
770.321,87.272,619.545,-1.924,-0.339,0.186
773.696,86.569,621.361,-1.747,-0.240,0.125
772.747,84.741,620.860,-1.414,-0.127,0.154
773.000,84.000,622.000,-1.050,-0.070,0.280
773.142,84.055,624.912,-0.678,-0.068,0.293
773.249,83.809,623.075,-0.458,-0.034,0.212
775.584,84.486,620.916,-0.331,0.065,0.251
775.108,82.145,623.722,-0.275,0.058,0.275
773.389,79.735,624.731,-0.403,0.079,0.157
774.502,82.796,624.000,-0.401,-0.051,0.048
777.149,82.813,625.040,-0.353,-0.213,-0.082
777.121,80.986,623.273,-0.480,-0.205,-0.205
775.925,81.948,620.245,-0.515,-0.331,-0.258
776.692,81.270,620.348,-0.359,-0.313,-0.380
776.140,81.315,621.324,-0.137,-0.291,-0.455
773.810,82.364,620.010,0.104,-0.381,-0.545
772.701,83.613,618.889,0.250,-0.323,-0.647
771.916,86.307,620.311,0.458,-0.278,-0.626
772.000,86.000,622.000,0.560,-0.280,-0.630
771.196,85.751,622.877,0.370,-0.279,-0.626
771.241,88.077,623.730,0.381,-0.318,-0.726
773.179,91.150,624.116,0.473,-0.436,-0.782
771.995,91.465,623.532,0.537,-0.563,-0.572
774.691,90.066,624.628,0.680,-0.801,-0.486
778.113,95.408,625.991,0.686,-0.903,-0.474
775.841,95.655,624.985,0.544,-0.842,-0.340
775.101,90.334,626.835,0.299,-0.971,-0.280
771.823,86.520,626.030,0.142,-0.985,-0.325
770.737,88.049,622.046,0.245,-1.053,-0.454
772.832,93.608,622.646,0.515,-1.165,-0.480
770.671,87.893,622.889,0.503,-1.078,-0.374
771.844,95.389,626.801,0.459,-1.178,-0.337
774.174,99.500,629.679,0.812,-1.344,-0.180
775.000,81.000,622.000,0.490,-1.330,-0.210
776.042,81.434,619.404,-0.139,-1.264,-0.754
775.067,89.095,623.643,0.338,-1.295,-1.078
775.892,91.662,622.420,0.732,-1.422,-0.850
777.073,89.912,619.619,0.249,-1.490,-0.599
774.832,84.861,618.426,-0.060,-1.453,-0.715
774.084,87.861,616.451,-0.064,-1.490,-0.949
775.048,87.868,614.957,0.009,-1.537,-0.976
775.024,87.888,614.992,0.132,-1.411,-0.915
774.931,88.233,614.969,0.243,-1.333,-0.851
775.331,88.142,615.026,0.426,-1.300,-0.831
777.523,90.596,614.269,0.570,-1.179,-0.851
781.996,93.370,614.075,0.665,-1.088,-0.815
783.879,94.895,615.180,0.572,-1.025,-0.756
780.272,91.445,615.025,0.310,-0.886,-0.782
776.000,91.000,617.000,0.070,-0.770,-0.910
772.450,91.289,618.176,-0.128,-0.658,-1.037
770.848,89.307,616.891,-0.100,-0.462,-1.069
771.180,88.499,618.084,-0.053,-0.378,-0.992
770.302,87.516,619.210,-0.056,-0.286,-1.011
772.170,88.949,618.402,0.204,-0.191,-1.036
777.039,93.084,616.521,0.553,-0.212,-0.866
780.158,97.208,616.089,0.626,-0.131,-0.767
781.023,97.162,617.902,0.562,-0.070,-0.708
780.224,95.766,618.115,0.518,-0.074,-0.629
778.796,98.027,617.755,0.351,-0.063,-0.678
776.025,99.197,618.311,0.178,-0.082,-0.708
774.424,96.527,619.399,-0.057,-0.041,-0.695
773.377,94.751,620.045,-0.378,0.008,-0.709
770.676,95.118,619.987,-0.672,-0.003,-0.785
771.000,96.000,620.000,-0.840,0.000,-0.840
772.855,95.374,620.807,-0.782,0.057,-0.726
773.082,92.548,621.301,-0.731,0.164,-0.581
772.742,92.123,620.337,-0.526,0.313,-0.554
773.204,94.123,622.190,-0.156,0.336,-0.546
774.306,95.047,622.407,0.074,0.267,-0.441
774.981,93.542,620.821,0.247,0.393,-0.328
773.884,93.092,620.970,0.356,0.489,-0.280
773.011,94.908,619.995,0.418,0.424,-0.344
772.421,95.096,622.188,0.379,0.416,-0.320
770.209,94.902,624.136,0.247,0.421,-0.152
770.283,95.298,623.517,0.186,0.423,-0.185
770.914,96.860,624.269,0.263,0.402,-0.188
771.297,98.200,623.450,0.369,0.325,-0.137
773.226,97.959,621.840,0.346,0.277,-0.130
773.000,99.000,622.000,0.420,0.280,-0.000
772.878,101.750,623.765,0.494,0.225,0.061
773.206,101.534,624.197,0.441,0.147,0.170
772.219,100.702,624.025,0.327,0.121,0.235
771.333,100.128,626.101,0.053,-0.029,0.196
771.042,95.211,626.998,-0.106,-0.189,0.199
773.657,97.050,626.854,-0.147,-0.318,0.020
775.029,97.744,624.778,-0.137,-0.501,-0.069
775.899,97.452,623.822,-0.137,-0.558,-0.067
775.674,106.539,627.491,-0.101,-0.653,-0.005
772.391,98.941,626.207,-0.096,-0.864,0.405
771.692,83.724,620.371,-0.753,-0.885,0.342
769.353,83.553,618.694,-1.009,-0.640,-0.277
768.253,90.084,618.905,-0.218,-0.457,-0.377
771.493,94.197,617.776,0.126,-0.410,-0.098
773.000,92.000,617.000,-0.280,-0.280,0.140
773.009,89.212,619.404,-0.557,-0.157,0.224
773.444,89.208,622.138,-0.498,-0.035,0.086
775.365,92.605,620.371,-0.557,0.025,0.140
775.554,94.612,621.020,-0.685,-0.040,0.238
774.575,95.479,625.501,-0.709,-0.087,0.206
773.601,95.687,627.152,-0.797,-0.155,0.305
771.924,92.770,629.253,-0.919,-0.132,0.269
771.134,89.371,631.104,-0.982,-0.007,0.143
768.481,84.995,627.174,-0.837,0.016,0.148
768.008,89.236,623.337,-0.495,-0.090,0.052
770.430,93.263,622.488,-0.174,-0.196,-0.032
773.196,88.538,621.122,-0.205,-0.208,0.042
775.278,87.052,619.492,-0.386,-0.212,0.061
774.969,88.323,619.155,-0.331,-0.210,-0.013
776.000,92.000,622.000,-0.210,-0.280,-0.070
776.199,94.001,623.226,-0.138,-0.408,-0.072
774.512,94.471,621.739,-0.232,-0.466,-0.067
772.686,95.580,623.836,-0.363,-0.550,-0.071
770.865,94.041,624.571,-0.532,-0.527,-0.085
769.361,94.349,622.149,-0.775,-0.500,-0.182
768.970,93.484,623.586,-0.739,-0.564,-0.198
769.003,92.024,624.992,-0.624,-0.483,-0.140
769.846,93.023,624.078,-0.503,-0.486,-0.205
771.860,90.735,623.163,-0.359,-0.454,-0.215
770.795,88.860,623.085,-0.359,-0.338,-0.243
768.876,89.137,625.754,-0.290,-0.405,-0.307
769.352,89.097,626.886,-0.133,-0.396,-0.254
771.806,90.256,625.597,0.058,-0.336,-0.310
772.891,88.595,624.813,0.142,-0.266,-0.347
771.000,89.000,622.000,0.210,-0.210,-0.350
771.687,95.199,619.927,0.521,-0.214,-0.366
772.957,97.456,621.468,0.566,-0.194,-0.193
773.212,95.537,622.237,0.298,-0.269,-0.082
774.367,95.257,621.228,0.142,-0.247,-0.045
773.070,98.550,621.198,0.023,-0.219,0.025
771.950,101.219,623.523,-0.106,-0.292,0.088
773.122,99.844,623.914,-0.376,-0.277,0.223
774.020,98.963,622.972,-0.623,-0.277,0.407
772.570,99.847,624.510,-0.585,-0.339,0.542
770.229,100.067,625.875,-0.528,-0.329,0.604
769.827,99.737,625.405,-0.682,-0.188,0.675
769.577,97.590,624.687,-0.978,-0.121,0.706
768.772,94.299,625.012,-1.152,-0.035,0.691
769.127,95.293,623.706,-1.195,-0.010,0.615
770.000,94.000,623.000,-1.190,-0.070,0.560
771.600,89.349,623.214,-1.126,-0.001,0.562
774.337,88.853,621.249,-1.085,-0.091,0.556
775.375,89.335,621.722,-0.897,-0.224,0.541
773.340,90.742,624.266,-0.652,-0.374,0.427
769.374,88.457,626.778,-0.495,-0.537,0.441
768.000,86.045,626.447,-0.198,-0.556,0.391
769.077,89.253,623.948,0.082,-0.480,0.360
769.086,90.092,625.815,0.078,-0.353,0.552
767.355,88.429,626.287,-0.040,-0.407,0.516
766.983,86.620,625.958,-0.226,-0.355,0.441
769.384,84.649,628.752,-0.570,-0.197,0.353
769.676,81.903,630.384,-0.719,-0.265,0.226
770.413,84.470,631.220,-0.584,-0.376,0.098
770.848,86.762,632.170,-0.573,-0.429,0.088
770.000,83.000,633.000,-0.700,-0.560,0.210
772.675,85.359,631.402,-0.715,-0.752,0.033
772.070,86.776,629.327,-0.558,-0.785,-0.068
769.108,84.353,627.649,-0.325,-0.730,-0.134
768.660,83.863,623.029,-0.074,-0.662,-0.266
767.385,84.496,618.525,0.141,-0.615,-0.302
768.474,86.113,618.355,0.209,-0.532,-0.456
770.049,83.771,621.187,0.133,-0.414,-0.488
770.850,83.772,621.156,0.132,-0.356,-0.547
773.489,86.112,620.353,0.264,-0.282,-0.737
774.240,84.415,624.535,0.249,-0.325,-0.830
773.211,84.911,625.946,0.183,-0.355,-0.840
772.522,88.811,624.697,0.239,-0.368,-0.857
771.718,89.641,628.449,0.162,-0.434,-0.928
770.762,86.567,631.076,-0.020,-0.415,-0.898
768.000,87.000,630.000,0.000,-0.420,-0.840
766.833,91.402,629.036,0.131,-0.481,-0.845
767.488,93.868,629.520,0.107,-0.538,-0.752
765.128,93.565,630.823,-0.021,-0.638,-0.571
765.997,92.316,630.377,-0.111,-0.736,-0.409
768.510,92.117,629.901,-0.150,-0.666,-0.339
769.197,93.309,629.699,-0.125,-0.738,-0.348
771.141,93.994,626.747,0.013,-0.838,-0.273
771.137,93.101,625.010,0.137,-0.771,-0.273
769.205,92.085,625.066,0.139,-0.828,-0.352
769.285,91.974,624.715,0.181,-0.839,-0.328
770.364,91.916,625.221,0.232,-0.857,-0.433
768.901,92.418,623.991,0.164,-0.793,-0.496
767.952,94.918,623.068,0.031,-0.810,-0.505
769.302,97.215,625.393,0.009,-0.998,-0.558
772.000,98.000,626.000,0.070,-0.980,-0.420
773.978,99.706,623.492,-0.049,-1.033,-0.291
773.713,100.908,620.518,-0.056,-1.111,-0.227
775.286,101.406,619.743,0.099,-1.136,-0.178
775.294,102.457,619.158,-0.066,-1.041,-0.054
773.240,101.124,615.341,-0.417,-0.847,0.125
772.883,98.384,613.976,-0.785,-0.742,0.128
771.941,95.797,613.990,-1.064,-0.544,0.065
771.983,93.205,615.676,-1.180,-0.425,0.002
771.347,89.924,620.280,-1.356,-0.318,0.046
769.961,86.849,622.136,-1.482,-0.172,0.098
770.163,88.439,624.968,-1.380,-0.101,0.014
771.682,87.814,627.795,-1.158,-0.057,0.009
773.257,84.599,627.777,-1.016,-0.076,-0.020
772.853,88.929,626.888,-0.887,-0.070,-0.073
772.000,91.000,628.000,-0.770,-0.140,-0.070
771.184,87.404,630.959,-0.770,-0.210,-0.073
769.563,86.071,628.327,-0.730,-0.205,-0.059
767.990,86.252,625.858,-0.618,-0.220,-0.120
767.710,88.101,628.401,-0.508,-0.194,-0.122
765.991,89.385,628.486,-0.493,-0.239,-0.043
765.029,91.688,628.175,-0.488,-0.276,0.020
766.054,92.912,630.128,-0.574,-0.205,0.150
766.008,90.207,630.093,-0.763,-0.206,0.211
766.643,88.343,629.698,-0.732,-0.269,0.162
768.204,86.615,630.919,-0.599,-0.289,0.045
769.650,85.301,630.211,-0.516,-0.264,-0.041
769.744,85.015,629.978,-0.458,-0.326,-0.128
770.277,86.689,629.666,-0.282,-0.452,-0.345
770.985,88.053,629.053,-0.133,-0.494,-0.421
770.000,88.000,630.000,-0.210,-0.560,-0.490
769.124,88.812,629.249,-0.336,-0.625,-0.622
768.194,90.395,627.487,-0.366,-0.674,-0.632
767.749,91.896,626.442,-0.328,-0.754,-0.610
768.130,91.794,627.479,-0.382,-0.772,-0.479
769.426,89.667,625.747,-0.288,-0.761,-0.414
769.890,85.451,623.892,-0.095,-0.674,-0.417
770.117,89.501,623.926,0.161,-0.633,-0.423
771.958,91.208,622.912,0.224,-0.697,-0.426
771.136,93.279,626.803,0.093,-0.744,-0.264
771.960,103.677,629.638,0.439,-0.912,0.011
773.341,91.816,626.069,0.242,-1.020,0.297
772.450,82.915,620.539,-0.359,-0.917,0.126
771.261,88.223,621.070,-0.271,-0.824,-0.342
767.576,89.472,625.287,-0.042,-0.847,-0.577
769.000,95.000,623.000,0.070,-0.840,-0.490
770.326,91.822,623.356,-0.151,-0.770,-0.170
768.576,90.422,626.889,-0.458,-0.825,-0.162
770.581,89.168,625.736,-0.495,-0.791,-0.271
770.132,84.118,624.282,-0.476,-0.582,-0.321
770.467,90.126,623.726,-0.366,-0.467,-0.465
772.159,94.152,624.197,-0.272,-0.508,-0.377
773.167,91.708,625.016,-0.363,-0.559,-0.201
775.037,88.134,624.115,-0.548,-0.495,-0.141
772.537,89.241,623.621,-0.632,-0.526,-0.140
772.152,91.239,625.619,-0.587,-0.671,-0.136
772.950,90.651,624.896,-0.541,-0.707,-0.154
770.841,90.976,624.219,-0.581,-0.698,-0.090
769.465,87.556,628.212,-0.527,-0.700,0.013
766.487,85.028,628.786,-0.401,-0.700,-0.091
764.000,88.000,628.000,-0.210,-0.700,-0.140
762.135,89.232,628.946,0.049,-0.700,-0.134
763.516,87.799,628.913,0.111,-0.700,-0.156
768.342,89.401,629.401,0.297,-0.701,-0.086
770.646,89.691,630.809,0.508,-0.696,-0.076
770.731,88.747,634.467,0.611,-0.715,-0.047
769.682,87.552,635.606,0.813,-0.786,0.001
768.971,87.188,631.750,0.917,-0.846,-0.080
768.100,91.724,631.807,1.042,-1.029,-0.262
767.683,91.747,633.313,1.020,-1.292,-0.514
768.975,89.202,630.332,0.862,-1.386,-0.630
767.690,88.658,627.306,0.833,-1.434,-0.644
766.951,87.546,627.085,0.882,-1.496,-0.764
768.207,88.600,628.298,1.145,-1.570,-0.862
767.983,91.506,627.705,1.346,-1.698,-0.917
769.000,94.000,625.000,1.400,-1.750,-0.910
769.892,93.167,623.959,1.308,-1.692,-0.844
771.321,93.971,624.097,0.894,-1.629,-0.842
772.447,96.828,624.016,0.583,-1.539,-0.808
770.943,96.467,626.482,0.335,-1.404,-0.713
771.286,95.803,628.021,-0.114,-1.429,-0.573
771.982,94.637,626.575,-0.484,-1.467,-0.480
772.030,94.037,626.055,-0.637,-1.476,-0.492
772.050,94.132,627.836,-0.697,-1.604,-0.492
771.760,90.791,628.526,-0.709,-1.567,-0.440
772.847,89.681,624.566,-0.653,-1.511,-0.358
772.187,93.651,621.626,-0.595,-1.596,-0.382
772.146,94.945,622.129,-0.537,-1.590,-0.422
773.162,93.726,619.751,-0.597,-1.519,-0.303
774.333,94.109,615.509,-0.706,-1.462,-0.204
777.000,94.000,615.000,-0.630,-1.400,-0.210
777.151,93.054,616.072,-0.506,-1.283,-0.156
776.252,93.517,614.489,-0.392,-1.144,-0.074
774.840,95.267,614.021,-0.256,-1.111,-0.080
772.702,96.364,615.738,-0.189,-1.109,-0.032
771.694,95.268,615.739,-0.237,-0.999,-0.009
771.991,92.221,616.192,-0.285,-0.886,-0.087
770.886,89.935,617.054,-0.278,-0.759,-0.148
770.873,90.852,617.919,-0.218,-0.637,-0.334
772.127,92.090,618.793,-0.139,-0.530,-0.436
770.880,90.788,620.437,-0.188,-0.339,-0.348
771.832,88.808,624.445,-0.216,-0.227,-0.418
773.367,87.543,626.198,-0.213,-0.216,-0.529
774.172,88.799,625.853,-0.195,-0.326,-0.577
773.862,92.436,626.155,-0.137,-0.425,-0.634
774.000,91.000,629.000,-0.210,-0.420,-0.560
774.343,86.171,632.048,-0.333,-0.476,-0.428
771.397,89.064,629.197,-0.415,-0.587,-0.459
771.104,93.861,627.022,-0.408,-0.722,-0.521
769.602,93.076,629.184,-0.495,-0.826,-0.418
769.488,91.486,629.811,-0.696,-0.956,-0.335
770.741,91.104,628.540,-0.673,-0.980,-0.356
767.894,93.184,625.774,-0.555,-1.143,-0.349
769.802,93.208,624.012,-0.557,-1.335,-0.349
769.594,90.292,624.752,-0.569,-1.144,-0.312
768.241,90.379,625.097,-0.484,-1.203,-0.128
769.738,92.353,624.845,-0.297,-1.230,-0.082
770.004,95.022,627.568,-0.191,-1.055,-0.353
771.265,92.498,630.271,-0.347,-1.047,-0.502
770.967,88.928,627.276,-0.501,-0.973,-0.499
773.000,92.000,623.000,-0.490,-1.120,-0.700
775.010,93.159,621.090,-0.376,-1.320,-0.845
774.784,92.167,621.031,-0.230,-1.335,-0.736
775.257,91.726,619.941,-0.187,-1.297,-0.679
773.820,93.167,618.187,-0.037,-1.235,-0.717
772.540,95.577,619.698,0.085,-1.291,-0.684
771.706,94.701,619.536,-0.033,-1.333,-0.719
771.014,95.112,618.043,-0.066,-1.329,-0.769
771.920,95.995,620.773,-0.001,-1.267,-0.705
772.780,96.039,622.028,-0.053,-1.196,-0.649
773.653,94.523,622.392,-0.057,-1.156,-0.534
773.576,91.109,622.885,0.120,-1.063,-0.470
772.221,94.808,621.172,0.273,-1.060,-0.494
772.105,101.650,622.725,0.360,-1.028,-0.357
773.187,102.900,622.624,0.156,-0.980,-0.099
774.000,102.000,620.000,-0.140,-0.980,0.140
773.258,101.969,620.823,-0.143,-0.860,0.267
771.403,102.032,621.053,-0.185,-0.782,0.372
770.603,101.978,621.382,-0.247,-0.702,0.524
771.273,101.728,621.848,-0.349,-0.564,0.564
772.390,100.491,620.216,-0.431,-0.586,0.574
774.413,99.870,620.225,-0.431,-0.632,0.642
774.972,97.738,622.157,-0.572,-0.632,0.627
774.933,95.047,623.057,-0.691,-0.694,0.626
775.955,95.848,621.370,-0.820,-0.760,0.648
775.211,94.632,620.656,-0.815,-0.782,0.528
774.810,90.224,620.772,-0.721,-0.728,0.482
774.357,89.383,619.014,-0.650,-0.709,0.462
772.486,93.302,619.489,-0.416,-0.792,0.300
773.323,94.987,621.046,-0.362,-0.756,0.298
775.000,95.000,619.000,-0.490,-0.700,0.490
775.000,96.065,616.970,-0.609,-0.703,0.621
775.067,94.491,618.355,-0.736,-0.688,0.637
774.296,93.842,619.789,-0.873,-0.748,0.620
773.604,93.529,619.709,-1.125,-0.772,0.660
774.212,90.606,620.551,-1.316,-0.773,0.715
775.093,85.736,623.636,-1.423,-0.764,0.682
774.973,81.918,623.884,-1.469,-0.775,0.548
774.961,84.627,622.936,-1.405,-0.899,0.424
775.780,88.018,624.683,-1.344,-1.027,0.461
776.147,85.741,624.641,-1.308,-1.104,0.595
774.838,81.700,622.262,-1.396,-1.151,0.631
773.302,81.067,620.231,-1.297,-1.202,0.453
772.659,80.780,621.728,-0.827,-1.057,0.228
770.715,82.760,622.952,-0.540,-0.993,0.221
771.000,89.000,622.000,-0.490,-1.120,0.280
772.166,87.808,622.803,-0.531,-1.005,0.284
770.243,83.976,623.780,-0.817,-0.918,0.199
770.817,84.930,624.107,-1.008,-0.845,-0.005
772.332,83.971,623.526,-0.908,-0.692,-0.104
771.435,80.669,624.519,-0.800,-0.587,-0.181
770.816,79.014,624.623,-0.545,-0.471,-0.302
769.980,82.376,623.009,-0.109,-0.496,-0.354
771.732,85.899,624.896,0.133,-0.557,-0.416
774.750,86.642,623.695,0.148,-0.610,-0.427
774.353,88.640,622.126,0.128,-0.712,-0.410
773.564,88.142,624.413,0.179,-0.906,-0.455
774.221,86.915,624.562,0.227,-1.157,-0.508
775.410,90.150,623.879,0.329,-1.294,-0.466
777.228,90.744,623.964,0.507,-1.419,-0.422
777.000,90.000,622.000,0.420,-1.470,-0.490
775.961,94.443,619.079,0.228,-1.466,-0.497
776.268,93.895,620.425,0.087,-1.480,-0.441
774.525,87.946,620.346,-0.264,-1.427,-0.369
773.745,87.393,617.581,-0.507,-1.371,-0.368
773.635,87.932,618.723,-0.456,-1.303,-0.440
772.896,88.271,620.047,-0.419,-1.245,-0.409
772.978,88.913,620.045,-0.419,-1.106,-0.424
772.047,86.165,621.796,-0.419,-0.981,-0.424
772.672,87.050,624.509,-0.428,-1.035,-0.407
772.727,90.626,625.383,-0.342,-1.060,-0.448
770.605,90.553,623.389,-0.171,-1.024,-0.332
772.043,89.570,620.765,0.027,-0.923,-0.277
774.315,88.812,620.016,0.304,-0.815,-0.263
773.937,89.144,621.152,0.599,-0.761,-0.211
775.000,91.000,620.000,0.770,-0.700,-0.280
776.853,95.350,616.375,0.785,-0.700,-0.175
777.109,96.426,615.634,0.589,-0.658,0.031
776.360,90.728,616.658,0.259,-0.576,0.126
775.234,88.851,616.919,0.066,-0.558,0.108
774.831,90.628,616.847,0.108,-0.551,-0.077
774.974,90.784,617.148,0.235,-0.466,-0.130
775.018,87.670,619.230,0.281,-0.422,-0.070
775.044,84.976,621.890,0.340,-0.487,-0.193
774.143,87.268,622.092,0.517,-0.486,-0.437
773.824,90.048,622.278,0.643,-0.569,-0.610
773.752,92.101,623.757,0.536,-0.695,-0.626
774.421,91.077,623.551,0.338,-0.688,-0.666
776.521,90.052,622.655,0.274,-0.719,-0.821
776.985,91.094,620.577,0.283,-0.774,-0.913
777.000,91.000,619.000,0.280,-0.770,-0.840
776.218,90.344,621.549,0.109,-0.768,-0.768
775.082,87.449,622.561,-0.070,-0.774,-0.822
774.826,88.190,620.376,-0.017,-0.760,-0.850
775.140,91.589,619.817,-0.008,-0.802,-0.818
776.187,91.604,619.873,0.020,-0.850,-0.724
775.777,89.403,620.025,-0.033,-0.836,-0.613
776.106,88.014,619.986,-0.137,-0.841,-0.636
777.024,88.973,619.990,0.055,-0.842,-0.698
776.159,88.767,619.428,0.092,-0.788,-0.701
775.346,91.576,617.254,0.075,-0.717,-0.701
774.022,93.128,617.269,0.248,-0.674,-0.677
774.065,88.779,618.006,0.271,-0.572,-0.585
773.489,86.803,618.226,0.305,-0.467,-0.578
771.866,87.144,620.285,0.448,-0.406,-0.726
772.000,90.000,620.000,0.700,-0.280,-0.840
772.786,95.243,619.697,0.903,-0.270,-0.845
773.968,98.795,621.831,0.866,-0.299,-0.795
773.562,97.943,621.225,0.795,-0.225,-0.692
774.886,96.821,621.176,0.750,-0.214,-0.573
775.827,98.724,622.097,0.812,-0.192,-0.580
774.741,98.991,621.868,0.928,-0.124,-0.633
773.916,101.308,620.879,0.903,-0.067,-0.549
772.994,104.009,619.103,0.782,-0.067,-0.366
773.849,102.368,618.233,0.608,-0.082,-0.172
773.354,101.802,616.526,0.378,-0.011,-0.086
772.557,102.076,615.859,0.145,-0.028,-0.014
773.247,101.802,617.930,0.026,-0.086,0.143
774.199,100.384,619.206,-0.132,-0.060,0.227
773.837,98.946,620.196,-0.291,-0.078,0.293
774.000,100.000,621.000,-0.280,-0.140,0.350
777.556,100.960,620.153,-0.388,-0.144,0.348
778.382,100.573,619.787,-0.585,-0.132,0.396
777.137,97.761,620.247,-0.718,-0.154,0.467
776.385,94.242,618.634,-0.813,-0.102,0.505
775.769,92.506,616.241,-0.859,-0.069,0.455
775.915,91.901,617.603,-0.921,-0.060,0.322
774.920,90.859,620.113,-0.908,0.002,0.281
774.082,89.050,620.069,-0.969,-0.061,0.283
772.987,89.763,619.756,-1.061,-0.137,0.223
774.123,89.190,621.249,-0.951,-0.138,0.171
774.886,86.326,622.514,-0.880,-0.142,0.064
773.028,86.173,623.274,-0.754,-0.140,-0.021
773.125,85.642,624.125,-0.479,-0.130,0.006
772.902,85.038,623.935,-0.340,-0.060,-0.096
773.000,86.000,623.000,-0.280,-0.070,-0.210
773.951,86.922,620.311,-0.211,-0.083,-0.151
773.454,86.564,620.768,-0.290,0.039,-0.129
771.577,84.540,624.400,-0.494,0.089,-0.175
770.500,83.863,624.630,-0.585,0.034,-0.271
771.284,84.106,625.501,-0.525,-0.008,-0.386
772.040,85.505,625.635,-0.379,-0.001,-0.428
772.000,88.193,623.995,-0.198,-0.079,-0.497
772.020,89.932,625.846,-0.078,-0.142,-0.558
771.252,90.089,626.227,0.043,-0.080,-0.562
770.174,90.283,625.642,0.124,-0.066,-0.555
768.998,92.333,626.346,0.192,-0.089,-0.591
767.006,93.162,627.806,0.360,-0.205,-0.648
767.303,94.788,630.749,0.415,-0.289,-0.618
768.000,97.207,630.813,0.337,-0.282,-0.638
768.000,97.000,630.000,0.280,-0.350,-0.630
768.893,96.160,630.092,0.332,-0.465,-0.503
769.550,95.106,628.702,0.457,-0.652,-0.480
771.231,95.432,626.025,0.565,-0.753,-0.498
771.919,96.528,624.261,0.710,-0.815,-0.482
772.136,97.160,625.534,0.781,-0.972,-0.509
772.993,96.834,624.020,0.763,-1.059,-0.567
771.923,97.132,618.723,0.691,-1.047,-0.477
771.963,99.818,619.671,0.508,-1.044,-0.351
771.980,100.418,622.975,0.264,-1.167,-0.412
772.926,97.896,621.124,0.062,-1.171,-0.348
774.832,96.274,618.385,-0.109,-1.055,-0.207
774.849,95.209,618.067,-0.260,-1.062,-0.243
776.619,92.213,619.174,-0.149,-1.030,-0.278
776.809,93.487,617.581,0.015,-0.974,-0.190
776.000,95.000,616.000,0.070,-0.910,-0.070
776.273,94.075,617.694,0.029,-0.736,-0.010
772.493,91.745,618.924,-0.216,-0.489,0.062
768.544,88.633,618.816,-0.326,-0.314,0.030
767.482,101.792,619.487,-0.161,-0.252,0.053
768.841,103.708,621.591,0.032,-0.183,0.468
772.713,84.102,620.303,-0.457,-0.124,0.697
772.913,84.894,619.149,-0.898,0.012,0.391
773.737,96.460,623.643,-0.079,0.076,0.205
776.906,99.326,626.041,0.468,-0.046,0.418
775.062,95.934,625.234,0.037,-0.117,0.677
772.861,92.328,624.607,-0.283,-0.186,0.602
772.957,94.041,625.289,-0.232,-0.210,0.265
772.847,93.218,624.122,-0.253,-0.217,0.124
771.739,90.809,620.623,-0.528,-0.199,0.047
770.000,91.000,621.000,-0.560,-0.140,-0.140
769.897,91.122,622.813,-0.486,-0.259,-0.209
770.653,89.641,623.786,-0.475,-0.304,-0.208
771.702,87.955,623.991,-0.232,-0.226,-0.235
771.153,88.765,623.973,-0.119,-0.205,-0.355
769.434,90.527,625.885,-0.121,-0.225,-0.429
770.188,91.121,628.332,0.031,-0.297,-0.427
769.960,92.063,627.912,-0.011,-0.356,-0.493
770.851,92.019,627.898,-0.076,-0.478,-0.428
771.424,93.265,629.013,0.053,-0.605,-0.402
769.573,95.874,628.249,0.018,-0.752,-0.450
771.263,95.725,627.320,-0.295,-0.976,-0.335
771.393,96.091,626.919,-0.785,-1.081,-0.265
771.440,92.174,628.248,-0.993,-1.143,-0.294
774.356,87.709,625.204,-0.892,-1.193,-0.362
775.000,88.000,622.000,-0.700,-1.190,-0.420
775.879,88.725,622.290,-0.214,-1.192,-0.428
775.431,90.781,618.918,0.072,-1.150,-0.320
774.629,90.380,616.761,0.022,-1.012,-0.275
774.242,90.157,614.458,-0.036,-0.789,-0.450
770.204,91.881,614.588,-0.233,-0.684,-0.481
769.081,95.927,617.607,-0.473,-0.701,-0.504
768.908,94.538,621.415,-0.719,-0.620,-0.481
768.814,89.913,625.901,-0.846,-0.496,-0.415
772.366,94.371,625.641,-0.581,-0.479,-0.503
773.205,93.523,629.398,-0.233,-0.534,-0.337
772.653,95.854,630.597,0.001,-0.620,-0.305
772.928,101.205,628.092,0.242,-0.771,-0.307
773.084,96.288,627.340,0.250,-0.856,-0.098
774.167,96.459,622.184,0.129,-0.925,-0.248
774.000,98.000,620.000,0.070,-0.980,-0.350
772.195,97.996,619.237,-0.165,-0.863,-0.286
771.835,96.229,618.095,-0.422,-0.771,-0.236
771.644,93.476,617.722,-0.663,-0.777,-0.185
769.854,94.637,618.713,-0.823,-0.743,-0.238
770.669,93.525,620.134,-0.710,-0.676,-0.171
773.477,95.681,620.178,-0.614,-0.611,-0.146
773.965,93.544,623.263,-0.474,-0.479,-0.135
773.076,92.364,624.124,-0.230,-0.418,-0.072
772.758,104.429,622.307,0.070,-0.439,0.007
773.867,101.170,620.666,0.202,-0.286,0.376
772.599,87.128,619.211,-0.299,-0.117,0.475
769.619,88.382,621.281,-0.593,-0.062,0.076
769.024,94.355,625.077,-0.216,-0.206,-0.188
770.278,94.649,627.083,-0.087,-0.355,-0.199
772.000,90.000,626.000,-0.350,-0.280,-0.070
772.074,86.975,625.832,-0.445,-0.330,-0.108
771.857,88.332,626.318,-0.128,-0.418,-0.319
772.405,91.049,625.000,0.212,-0.415,-0.353
773.177,94.885,625.082,0.320,-0.425,-0.362
772.238,93.999,624.322,0.352,-0.416,-0.310
770.768,93.548,622.666,0.244,-0.423,-0.194
771.067,98.283,621.975,0.136,-0.418,-0.212
771.946,97.349,621.980,0.081,-0.358,-0.150
772.150,93.360,622.061,-0.146,-0.233,-0.021
771.060,92.935,621.735,-0.373,-0.190,0.053
771.213,92.643,622.418,-0.466,-0.253,0.075
772.132,91.227,623.192,-0.497,-0.287,0.082
771.793,89.552,624.468,-0.487,-0.275,0.163
772.164,88.950,626.260,-0.488,-0.286,0.124
773.000,88.000,628.000,-0.420,-0.350,0.070
771.342,86.977,629.798,-0.352,-0.467,0.084
770.482,87.713,630.748,-0.318,-0.606,-0.085
772.011,88.530,631.220,-0.152,-0.661,-0.197
770.959,89.561,629.706,0.002,-0.789,-0.254
771.777,90.147,626.822,0.109,-0.962,-0.401
774.098,91.446,624.382,0.132,-0.974,-0.412
771.789,93.051,621.850,0.067,-0.984,-0.425
770.954,92.989,621.007,0.070,-1.047,-0.488
771.133,93.790,620.963,0.024,-1.057,-0.489
770.306,94.073,621.401,-0.092,-1.007,-0.496
768.419,94.300,622.859,-0.202,-0.936,-0.457
766.282,95.357,624.817,-0.169,-0.904,-0.391
769.280,94.610,626.179,-0.037,-0.906,-0.330
772.219,94.028,625.945,0.007,-0.823,-0.275
773.000,95.000,626.000,0.140,-0.770,-0.280
773.968,96.699,626.006,0.329,-0.832,-0.286
773.362,98.575,626.057,0.417,-0.882,-0.225
772.147,99.327,624.998,0.364,-1.000,-0.228
771.733,98.101,622.604,0.165,-1.067,-0.353
771.852,96.487,621.844,0.040,-1.040,-0.449
770.426,95.860,621.903,-0.020,-1.059,-0.497
767.843,94.931,620.907,-0.149,-1.127,-0.488
766.973,94.928,620.022,-0.150,-1.190,-0.489
768.398,95.918,620.587,0.031,-1.134,-0.451
770.568,95.528,622.450,0.136,-1.117,-0.307
770.744,94.138,622.623,0.136,-1.073,-0.282
771.332,94.422,621.653,0.146,-0.901,-0.254
771.850,94.613,623.946,0.129,-0.827,-0.204
770.953,90.203,626.174,0.056,-0.755,-0.209
772.000,88.000,627.000,0.000,-0.700,-0.210
772.907,89.842,628.778,0.110,-0.759,-0.331
773.767,89.999,629.250,0.270,-0.822,-0.372
773.237,90.475,627.824,0.219,-0.882,-0.296
770.004,91.524,625.956,0.053,-0.941,-0.277
768.890,92.079,626.378,0.001,-1.007,-0.290
770.299,92.120,626.674,0.100,-1.056,-0.376
771.033,94.147,623.823,0.216,-1.049,-0.414
771.877,91.580,623.906,0.216,-1.048,-0.223
774.249,84.953,622.984,0.175,-1.100,-0.317
777.236,90.876,618.876,0.538,-1.179,-0.747
777.192,98.717,621.361,1.023,-1.180,-0.572
772.297,95.686,624.397,0.773,-1.248,-0.282
769.929,92.747,620.470,0.318,-1.458,-0.515
772.407,94.192,619.273,0.201,-1.451,-0.723
773.000,93.000,622.000,0.140,-1.330,-0.840
771.992,91.863,621.331,0.189,-1.274,-0.789
772.737,92.373,619.823,0.361,-1.155,-0.744
772.587,91.356,621.466,0.527,-1.069,-0.803
771.203,93.051,623.806,0.578,-1.039,-0.728
773.101,92.635,621.313,0.685,-1.062,-0.839
776.478,96.590,617.376,0.643,-1.033,-0.893
775.839,99.764,618.231,0.091,-0.981,-0.766
774.053,92.478,620.962,-0.279,-1.046,-0.892
774.580,90.612,618.235,-0.076,-1.011,-1.098
776.009,92.531,614.722,0.204,-0.871,-1.101
774.129,97.623,620.221,0.429,-0.850,-0.956
770.470,99.703,625.182,0.831,-0.964,-0.905
772.003,96.408,622.790,1.083,-0.959,-0.899
775.302,99.794,619.718,1.047,-0.913,-0.830
775.000,103.000,620.000,1.190,-0.980,-0.770
773.984,103.106,621.102,1.338,-0.927,-0.648
774.679,102.615,619.422,1.146,-0.847,-0.574
775.144,104.995,619.135,0.839,-0.837,-0.491
774.035,105.524,620.573,0.516,-0.846,-0.358
772.267,103.675,620.962,0.149,-0.819,-0.364
772.038,105.376,620.862,-0.021,-0.764,-0.327
771.945,104.917,619.931,-0.157,-0.768,-0.202
771.031,104.973,619.084,-0.404,-0.643,-0.143
771.618,103.656,618.014,-0.542,-0.551,-0.090
773.227,102.204,618.984,-0.582,-0.615,0.018
774.659,104.574,621.107,-0.501,-0.631,0.151
774.496,104.580,622.469,-0.535,-0.632,0.247
774.109,103.975,622.744,-0.656,-0.627,0.286
776.358,103.875,620.719,-0.715,-0.632,0.278
776.000,101.000,621.000,-0.840,-0.630,0.280
773.198,96.380,622.098,-0.789,-0.628,0.285
772.927,96.897,620.491,-0.707,-0.632,0.231
772.809,99.493,619.893,-0.685,-0.651,0.167
772.980,97.464,622.353,-0.797,-0.775,0.107
772.650,95.478,622.047,-1.057,-0.863,0.048
773.341,94.929,618.297,-0.911,-0.928,-0.016
775.081,95.001,619.238,-0.694,-0.981,-0.072
775.051,94.113,621.045,-0.701,-0.979,-0.071
774.225,93.672,619.946,-0.646,-0.988,-0.068
773.127,95.071,621.218,-0.586,-0.927,-0.071
772.420,94.192,622.133,-0.515,-0.911,-0.072
771.458,94.475,621.919,-0.475,-0.885,-0.052
772.491,94.624,623.633,-0.377,-0.834,0.018
772.796,91.471,625.074,-0.274,-0.836,-0.012
771.000,89.000,624.000,-0.280,-0.770,-0.070
771.789,88.731,622.149,-0.164,-0.823,-0.121
772.689,91.384,621.851,-0.068,-0.864,-0.260
774.094,91.467,622.414,-0.104,-0.781,-0.248
774.856,88.384,623.394,-0.190,-0.776,-0.212
773.233,88.572,624.232,-0.173,-0.760,-0.324
773.043,91.895,624.989,0.056,-0.784,-0.347
772.959,95.148,622.738,0.220,-0.842,-0.351
772.085,95.075,620.937,0.403,-0.841,-0.291
771.084,95.975,622.709,0.552,-0.835,-0.153
771.283,101.399,622.975,0.589,-0.881,-0.144
773.014,103.307,622.682,0.681,-0.933,-0.083
773.996,100.931,620.749,0.505,-0.870,0.058
772.187,101.465,620.319,0.196,-0.850,0.045
771.052,101.877,622.115,-0.037,-0.918,-0.089
772.000,101.000,621.000,-0.280,-0.910,-0.140
771.911,101.128,620.827,-0.468,-0.848,-0.189
773.413,99.427,621.859,-0.559,-0.826,-0.334
774.535,99.547,621.607,-0.553,-0.910,-0.312
775.641,102.835,619.725,-0.556,-1.063,-0.294
777.385,103.741,618.855,-0.433,-1.118,-0.359
778.172,99.887,618.758,-0.449,-1.032,-0.252
779.000,98.162,616.875,-0.476,-1.056,-0.291
777.212,102.726,616.062,-0.159,-1.058,-0.359
775.203,102.110,614.456,-0.156,-0.974,-0.125
774.179,98.167,613.020,-0.374,-1.042,0.007
774.011,98.348,612.498,-0.466,-0.992,-0.011
775.400,97.218,611.500,-0.491,-0.849,0.007
774.347,97.420,612.576,-0.509,-0.732,0.002
772.903,97.737,615.475,-0.652,-0.614,0.088
773.000,94.000,618.000,-0.700,-0.490,0.140
774.591,92.031,619.713,-0.645,-0.355,0.077
776.808,92.448,621.527,-0.489,-0.398,0.067
776.432,95.308,622.940,-0.278,-0.427,0.070
774.814,97.587,625.058,-0.156,-0.438,0.073
771.455,94.595,626.008,-0.168,-0.519,0.057
770.005,94.520,625.930,-0.307,-0.576,-0.025
771.069,97.091,624.871,-0.269,-0.715,-0.148
771.890,96.176,623.964,-0.143,-0.900,-0.148
773.692,93.566,624.325,-0.182,-0.925,-0.019
774.010,92.307,621.705,-0.312,-0.914,0.009
773.806,94.656,620.987,-0.366,-1.123,-0.004
773.786,93.620,622.462,-0.351,-1.175,0.002
774.229,88.574,623.160,-0.463,-1.113,-0.006
775.012,87.059,622.732,-0.473,-1.115,-0.090
774.000,89.000,620.000,-0.280,-1.050,-0.210
773.816,91.011,619.797,-0.150,-1.053,-0.267
775.449,89.473,620.391,-0.124,-0.995,-0.388
776.688,89.949,618.162,-0.217,-0.984,-0.434
776.802,94.229,615.886,-0.345,-0.927,-0.429
776.986,94.486,616.323,-0.483,-0.805,-0.533
776.790,92.682,616.960,-0.662,-0.751,-0.551
775.982,91.960,617.070,-0.616,-0.623,-0.486
776.040,91.925,618.001,-0.370,-0.628,-0.486
774.486,94.181,617.724,-0.125,-0.583,-0.550
772.871,97.415,620.062,0.089,-0.570,-0.565
773.304,97.746,620.378,0.182,-0.713,-0.559
774.132,96.580,618.214,0.254,-0.638,-0.555
773.716,97.477,619.303,0.394,-0.550,-0.583
774.295,99.249,617.489,0.504,-0.560,-0.718
776.000,100.000,615.000,0.560,-0.490,-0.700
773.501,99.068,614.894,0.453,-0.308,-0.625
771.826,100.154,616.276,0.246,-0.201,-0.691
772.067,102.159,618.315,0.197,-0.259,-0.668
771.863,101.551,619.342,0.203,-0.284,-0.593
773.747,102.635,620.103,0.083,-0.280,-0.539
775.089,102.711,619.866,-0.004,-0.280,-0.475
774.972,102.094,620.047,0.079,-0.279,-0.417
774.099,104.823,620.057,0.141,-0.217,-0.419
773.093,104.686,619.759,0.093,-0.144,-0.381
772.363,101.583,620.866,-0.053,-0.143,-0.239
771.283,101.227,620.212,-0.276,-0.135,-0.208
773.136,102.041,620.367,-0.378,-0.135,-0.190
775.146,98.530,622.534,-0.453,-0.027,-0.121
773.774,96.028,622.993,-0.573,-0.019,-0.059
774.000,98.000,623.000,-0.560,-0.210,-0.000
774.976,97.304,622.179,-0.440,-0.221,-0.002
774.937,96.040,621.699,-0.351,-0.190,0.048
774.958,95.940,622.721,-0.366,-0.288,0.087
774.684,96.385,622.508,-0.286,-0.422,0.035
775.196,96.973,621.611,-0.202,-0.520,-0.010
776.095,95.763,620.560,-0.309,-0.568,0.006
775.962,97.245,617.814,-0.350,-0.556,-0.002
775.098,99.938,617.811,-0.408,-0.493,-0.003
773.471,98.700,620.596,-0.593,-0.487,0.014
770.922,96.100,621.126,-0.700,-0.492,-0.063
768.693,97.007,620.365,-0.647,-0.471,-0.033
769.865,97.847,619.744,-0.483,-0.353,0.003
772.695,95.167,621.987,-0.417,-0.279,0.013
774.220,95.242,623.982,-0.413,-0.364,0.075
776.000,96.000,622.000,-0.280,-0.420,0.070
776.989,94.309,622.683,-0.095,-0.480,0.075
776.433,92.381,622.941,0.040,-0.536,-0.022
774.573,92.500,619.511,0.122,-0.646,-0.162
773.385,95.700,619.218,0.131,-0.706,-0.272
772.115,95.377,620.017,0.009,-0.567,-0.389
769.439,95.342,620.032,-0.187,-0.479,-0.421
769.043,95.848,621.119,-0.359,-0.412,-0.421
769.038,92.210,622.035,-0.360,-0.289,-0.423
769.503,91.781,620.413,-0.184,-0.171,-0.318
771.464,91.962,619.987,0.023,-0.036,-0.200
772.493,93.475,622.370,0.377,0.018,-0.246
775.394,97.701,622.868,0.629,-0.027,-0.115
777.115,97.526,622.963,0.494,-0.089,-0.004
776.993,97.164,621.751,0.334,-0.148,-0.163
776.000,99.000,622.000,0.210,-0.210,-0.210
773.283,99.941,623.972,0.020,-0.331,-0.271
772.193,100.086,623.178,-0.054,-0.413,-0.245
771.577,99.490,622.975,-0.145,-0.447,-0.180
772.299,98.371,622.378,-0.260,-0.542,-0.237
771.079,98.050,621.715,-0.294,-0.551,-0.185
771.688,99.431,620.602,-0.360,-0.580,-0.231
776.275,101.067,620.055,-0.268,-0.709,-0.197
777.081,100.191,620.141,-0.203,-0.769,-0.007
775.535,97.472,618.005,-0.335,-0.727,-0.040
772.696,96.129,619.413,-0.317,-0.597,-0.166
771.253,96.145,619.031,-0.235,-0.525,-0.288
770.239,98.194,617.816,-0.197,-0.449,-0.374
770.390,100.490,619.263,-0.230,-0.433,-0.327
772.063,101.044,618.999,-0.286,-0.491,-0.277
771.000,101.000,620.000,-0.350,-0.420,-0.280
773.356,100.044,619.196,-0.426,-0.413,-0.283
776.022,100.725,619.383,-0.315,-0.431,-0.235
775.582,100.302,620.501,-0.266,-0.407,-0.158
776.225,97.753,618.709,-0.279,-0.435,-0.138
775.188,98.828,617.875,-0.308,-0.396,-0.130
773.746,99.846,619.492,-0.452,-0.339,-0.043
772.910,96.687,621.014,-0.571,-0.273,0.078
771.146,94.021,620.040,-0.759,-0.210,0.139
769.991,95.515,621.925,-0.745,-0.263,0.138
769.998,95.989,626.122,-0.574,-0.295,0.178
769.562,93.265,627.050,-0.574,-0.263,0.257
770.627,93.745,626.840,-0.514,-0.310,0.287
772.244,95.074,626.989,-0.380,-0.364,0.269
771.872,93.773,627.017,-0.265,-0.434,0.198
771.000,93.000,627.000,-0.210,-0.490,0.140
770.887,92.145,625.396,-0.155,-0.485,0.083
771.290,91.822,623.180,-0.071,-0.543,0.011
769.850,92.205,623.374,-0.113,-0.588,-0.026
770.843,91.665,624.123,-0.131,-0.724,-0.144
771.643,92.629,623.562,-0.019,-0.883,-0.222
769.599,94.198,622.959,0.086,-0.924,-0.212
770.109,93.960,625.332,0.064,-1.061,-0.289
770.968,93.962,628.958,-0.001,-1.060,-0.411
771.742,94.697,626.104,0.058,-0.970,-0.488
772.110,96.778,623.233,0.041,-1.075,-0.476
771.583,99.318,625.742,-0.052,-1.164,-0.563
772.163,97.554,627.182,-0.088,-1.206,-0.636
771.484,94.254,626.641,-0.155,-1.167,-0.529
769.843,94.124,624.638,-0.033,-1.122,-0.579
770.000,95.000,623.000,0.210,-1.190,-0.630
770.829,95.901,622.954,0.275,-1.195,-0.563
772.407,95.618,623.086,0.332,-1.182,-0.565
773.349,92.806,622.346,0.352,-1.203,-0.540
772.213,88.953,621.436,0.404,-1.141,-0.643
774.050,88.726,620.196,0.676,-0.988,-0.825
775.941,94.473,617.336,0.863,-0.908,-0.827
773.879,98.102,617.143,0.830,-0.988,-0.767
774.810,98.907,618.964,0.583,-1.051,-0.766
776.165,99.958,618.809,0.369,-0.997,-0.831
774.593,99.884,620.809,0.280,-0.962,-0.808
772.684,100.168,622.513,0.094,-1.025,-0.738
771.684,99.733,620.998,0.117,-1.053,-0.819
773.882,100.323,619.618,0.236,-1.053,-0.815
776.222,101.109,618.969,0.286,-1.044,-0.683
777.000,103.000,619.000,0.210,-0.980,-0.630
777.158,103.471,617.366,-0.043,-0.978,-0.571
774.944,99.693,615.845,-0.127,-0.944,-0.543
772.267,98.186,616.695,-0.194,-0.821,-0.611
771.761,94.830,616.288,-0.167,-0.713,-0.631
772.047,95.299,613.979,-0.014,-0.563,-0.636
773.286,101.078,612.945,0.089,-0.383,-0.613
774.028,101.914,614.152,0.058,-0.273,-0.480
774.875,100.168,615.935,-0.133,-0.152,-0.420
776.659,98.724,615.417,-0.047,-0.017,-0.424
777.640,101.691,613.819,0.082,0.039,-0.412
777.714,103.216,614.835,0.028,0.147,-0.434
775.813,101.051,616.473,-0.025,0.242,-0.387
774.945,101.303,617.176,-0.083,0.311,-0.353
774.900,102.030,618.134,-0.061,0.433,-0.436
774.000,101.000,618.000,-0.000,0.420,-0.490
774.034,99.084,616.271,0.008,0.466,-0.429
773.231,99.655,615.032,-0.061,0.610,-0.448
772.848,100.489,615.347,-0.040,0.657,-0.570
772.215,101.938,616.433,0.039,0.777,-0.490
770.166,103.473,617.237,0.084,0.847,-0.413
770.113,105.628,619.828,0.049,0.848,-0.406
771.110,105.740,624.340,-0.078,0.912,-0.272
772.900,101.133,627.796,-0.135,0.849,-0.275
772.520,104.455,630.370,-0.247,0.733,-0.248
770.250,108.155,632.938,-0.372,0.527,-0.087
769.479,103.901,635.219,-0.545,0.303,-0.104
768.054,101.396,635.769,-0.823,0.268,-0.148
766.487,102.706,634.800,-0.906,0.040,-0.141
764.738,105.261,636.326,-0.832,-0.238,-0.132
764.000,105.000,636.000,-0.910,-0.350,0.000
764.037,105.645,633.108,-1.102,-0.530,0.126
764.354,107.213,633.840,-1.132,-0.712,0.267
766.836,106.041,632.568,-1.116,-0.908,0.575
768.403,106.620,629.114,-1.086,-1.024,0.786
769.299,106.328,627.436,-0.906,-1.073,0.878
769.902,101.808,626.837,-0.848,-1.125,1.008
768.970,98.985,624.711,-0.912,-1.122,1.048
769.882,100.839,620.269,-0.848,-1.186,0.986
770.899,100.742,618.865,-0.816,-1.151,0.921
771.034,96.989,619.086,-0.980,-1.016,0.870
769.892,95.594,618.654,-1.114,-0.938,0.771
768.597,96.241,619.271,-1.101,-0.901,0.641
770.814,95.705,620.273,-1.020,-0.909,0.524
772.020,94.913,621.045,-0.886,-0.819,0.403
773.000,94.000,620.000,-0.700,-0.700,0.350
775.797,92.171,618.117,-0.512,-0.641,0.410
775.379,92.433,618.498,-0.392,-0.570,0.432
775.106,93.951,619.772,-0.220,-0.563,0.403
776.062,93.587,619.717,-0.115,-0.531,0.460
773.953,92.474,620.311,-0.311,-0.480,0.484
774.388,90.600,620.884,-0.521,-0.488,0.392
774.893,91.186,620.004,-0.561,-0.414,0.273
773.045,93.038,621.829,-0.620,-0.414,0.274
773.782,90.630,622.294,-0.799,-0.442,0.348
773.457,89.504,621.938,-0.886,-0.315,0.310
772.149,90.659,624.294,-0.697,-0.253,0.239
771.534,91.635,622.424,-0.474,-0.144,0.197
770.768,95.280,621.146,-0.418,-0.072,0.221
771.175,96.851,623.247,-0.415,-0.145,0.202
773.000,94.000,623.000,-0.350,-0.070,0.210
774.072,94.403,622.039,-0.397,-0.054,0.288
773.080,98.955,622.478,-0.539,-0.178,0.129
773.492,100.632,624.305,-0.588,-0.260,0.031
773.328,98.675,624.720,-0.706,-0.286,0.122
771.143,96.019,623.514,-0.772,-0.287,0.127
770.993,95.055,624.323,-0.667,-0.375,0.050
769.869,97.243,624.943,-0.472,-0.418,0.000
769.003,99.902,623.111,-0.286,-0.354,0.063
768.397,99.485,624.072,-0.323,-0.340,0.132
766.763,97.389,627.639,-0.410,-0.402,0.148
767.858,97.127,626.814,-0.425,-0.405,0.127
769.424,99.009,625.894,-0.409,-0.302,0.172
769.999,99.775,627.414,-0.454,-0.286,0.212
768.662,96.406,628.040,-0.663,-0.273,0.216
767.000,95.000,628.000,-0.770,-0.280,0.280
767.794,95.937,627.932,-0.715,-0.408,0.223
768.787,97.542,628.169,-0.595,-0.419,0.227
769.397,102.187,627.507,-0.552,-0.511,0.449
770.379,98.434,628.763,-0.777,-0.761,0.654
771.087,90.949,628.052,-0.923,-0.858,0.694
772.460,93.176,625.691,-0.696,-0.937,0.607
775.154,97.093,626.021,-0.404,-1.056,0.561
774.263,94.413,625.106,-0.342,-1.054,0.625
771.249,90.125,624.191,-0.561,-0.993,0.597
770.440,91.853,622.609,-0.803,-0.936,0.409
768.778,93.501,621.474,-0.867,-0.867,0.299
769.758,92.678,622.339,-0.969,-0.832,0.272
771.012,93.186,623.278,-1.073,-0.845,0.287
771.156,92.869,623.996,-1.128,-0.835,0.274
772.000,92.000,623.000,-1.120,-0.770,0.280
770.195,91.920,623.716,-0.996,-0.704,0.350
770.018,92.212,624.446,-0.926,-0.703,0.296
768.736,91.200,622.797,-0.864,-0.662,0.304
767.787,91.133,623.810,-0.833,-0.615,0.398
769.488,90.492,625.132,-0.841,-0.638,0.413
770.039,90.321,624.912,-0.841,-0.630,0.325
771.132,93.181,625.019,-0.839,-0.709,0.283
772.894,93.141,625.015,-0.838,-0.771,0.347
773.256,91.321,624.951,-0.894,-0.759,0.350
771.869,90.160,624.944,-0.961,-0.829,0.359
772.583,90.070,625.069,-0.973,-0.813,0.309
772.083,89.345,626.774,-0.835,-0.738,0.280
769.112,87.751,626.212,-0.770,-0.689,0.264
767.964,89.364,622.600,-0.758,-0.708,0.210
769.000,90.000,623.000,-0.630,-0.700,0.280
770.969,88.158,623.272,-0.568,-0.572,0.285
769.540,88.448,621.787,-0.469,-0.558,0.275
769.064,90.281,623.514,-0.295,-0.524,0.280
770.053,91.614,626.359,-0.137,-0.479,0.305
767.978,91.875,628.603,-0.188,-0.480,0.355
768.457,90.749,628.814,-0.286,-0.410,0.249
771.176,91.099,627.952,-0.286,-0.502,0.214
772.040,91.995,627.092,-0.474,-0.625,0.280
771.123,91.954,626.666,-0.565,-0.683,0.224
770.890,91.657,628.501,-0.580,-0.751,0.235
770.374,89.907,628.491,-0.724,-0.820,0.341
769.701,90.690,627.713,-0.776,-1.007,0.341
769.994,90.500,628.021,-0.776,-1.147,0.362
770.119,88.972,628.002,-0.855,-1.198,0.339
772.000,90.000,627.000,-0.910,-1.260,0.280
772.189,89.239,623.425,-0.904,-1.321,0.284
771.619,87.651,622.616,-0.969,-1.344,0.263
772.801,85.367,623.238,-0.952,-1.281,0.345
772.511,85.737,622.344,-0.857,-1.256,0.288
773.778,87.116,621.448,-0.691,-1.259,0.207
776.256,85.700,619.523,-0.551,-1.263,0.292
774.816,86.087,619.057,-0.635,-1.258,0.197
773.924,86.940,619.965,-0.569,-1.257,0.075
775.038,87.905,620.015,-0.584,-1.274,0.013
773.616,87.008,619.893,-0.762,-1.165,-0.040
772.180,84.598,619.848,-0.730,-1.079,-0.165
771.254,83.600,620.070,-0.671,-1.003,-0.362
769.541,82.913,621.558,-0.488,-0.878,-0.432
770.289,84.343,623.100,-0.341,-0.835,-0.504
772.000,86.000,622.000,-0.280,-0.770,-0.560
772.865,86.062,620.865,-0.146,-0.707,-0.557
773.234,85.333,623.042,-0.191,-0.653,-0.605
772.063,84.584,625.466,-0.184,-0.580,-0.684
771.975,86.193,625.888,-0.103,-0.551,-0.682
771.350,88.938,626.194,-0.032,-0.576,-0.608
769.642,90.112,628.714,0.090,-0.648,-0.644
768.975,89.964,631.058,0.064,-0.703,-0.622
768.958,89.914,629.270,0.002,-0.761,-0.497
769.844,92.339,626.843,-0.005,-0.934,-0.434
769.825,93.260,628.999,0.016,-1.088,-0.368
770.921,89.278,629.313,-0.077,-1.181,-0.343
774.399,88.088,624.538,-0.120,-1.318,-0.355
774.377,89.205,623.185,0.179,-1.316,-0.339
771.689,88.897,625.267,0.352,-1.345,-0.269
771.000,88.000,625.000,0.280,-1.400,-0.280
770.135,89.340,622.342,0.331,-1.331,-0.351
770.379,93.703,621.561,0.424,-1.387,-0.295
771.959,91.548,622.906,0.346,-1.366,-0.280
771.144,87.303,622.009,0.242,-1.320,-0.267
771.311,89.176,620.597,0.332,-1.318,-0.325
773.373,91.177,621.112,0.432,-1.249,-0.420
774.006,91.005,620.967,0.416,-1.262,-0.267
773.990,92.749,620.968,0.355,-1.259,-0.269
774.660,95.690,621.120,0.296,-1.317,-0.360
775.818,96.078,620.185,0.169,-1.302,-0.289
775.351,95.742,619.745,-0.107,-1.228,-0.291
774.549,93.963,619.974,-0.231,-1.291,-0.247
773.466,92.995,619.917,-0.212,-1.219,-0.209
771.836,92.812,620.048,-0.295,-1.112,-0.205
772.000,91.000,620.000,-0.350,-1.120,-0.140
773.662,91.034,619.840,-0.409,-1.178,-0.081
775.616,89.158,621.541,-0.436,-1.213,-0.007
776.444,85.748,622.018,-0.375,-1.098,-0.034
777.162,84.743,622.209,-0.307,-1.037,-0.088
776.401,85.275,622.789,-0.139,-1.042,-0.056
775.972,86.279,620.356,-0.081,-0.962,-0.085
774.803,88.151,620.113,-0.222,-0.987,-0.142
772.111,88.192,621.029,-0.343,-1.052,-0.140
771.917,85.260,620.772,-0.411,-0.948,-0.187
771.827,86.048,621.833,-0.429,-0.802,-0.273
772.069,87.846,621.585,-0.370,-0.754,-0.272
771.223,87.988,622.731,-0.183,-0.797,-0.308
771.482,88.032,624.152,-0.043,-0.858,-0.357
774.357,89.340,623.953,0.009,-0.920,-0.350
775.000,91.000,623.000,0.070,-0.980,-0.350
775.058,90.135,621.884,0.069,-1.039,-0.291
773.652,89.430,623.109,0.115,-1.107,-0.265
771.972,87.829,621.052,0.184,-1.150,-0.328
771.772,89.675,620.037,0.261,-1.260,-0.354
772.292,92.483,623.037,0.403,-1.347,-0.360
774.401,90.363,623.894,0.394,-1.323,-0.441
775.020,90.182,621.725,0.195,-1.332,-0.492
775.911,94.614,618.136,0.078,-1.331,-0.553
776.191,97.329,618.679,-0.127,-1.327,-0.582
775.157,94.651,617.663,-0.481,-1.307,-0.452
774.280,94.380,613.694,-0.590,-1.145,-0.416
773.823,94.664,615.157,-0.525,-1.002,-0.401
773.570,92.256,617.449,-0.493,-0.972,-0.330
770.592,90.818,619.418,-0.573,-0.895,-0.270
771.000,89.000,622.000,-0.560,-0.840,-0.210
772.084,86.357,622.884,-0.497,-0.843,-0.149
772.290,84.525,623.783,-0.368,-0.791,-0.161
774.101,82.466,623.957,-0.084,-0.749,-0.353
773.240,83.347,623.880,0.097,-0.829,-0.455
774.838,88.820,623.721,0.402,-0.947,-0.523
775.941,88.650,622.704,0.474,-0.987,-0.553
776.045,90.254,621.974,0.419,-1.056,-0.487
775.185,91.067,621.150,0.297,-1.057,-0.488
774.401,94.151,618.494,0.233,-0.979,-0.497
776.099,98.289,617.930,0.311,-1.027,-0.413
771.604,94.108,620.941,-0.169,-1.074,-0.266
772.285,110.448,624.684,0.317,-1.197,-0.101
773.580,108.952,627.077,0.587,-1.367,0.489
773.488,89.452,621.862,-0.313,-1.304,0.751
777.000,89.000,618.000,-0.280,-1.120,0.420
773.296,79.054,619.284,-0.324,-1.113,0.142
775.682,83.661,615.017,-0.098,-1.054,-0.441
776.470,92.257,614.915,0.527,-0.836,-0.508
774.692,90.093,617.867,0.224,-0.927,-0.266
777.668,90.266,616.395,-0.347,-0.935,-0.418
775.196,84.051,618.725,-0.771,-0.740,-0.521
775.164,90.903,618.811,-0.753,-0.778,-0.790
776.911,97.061,616.974,-0.505,-0.838,-0.787
778.568,95.206,618.007,-0.367,-0.845,-0.584
779.155,93.875,616.626,-0.341,-0.796,-0.478
779.048,92.779,615.469,-0.331,-0.735,-0.354
779.899,94.214,616.559,-0.251,-0.662,-0.348
776.758,88.992,618.567,-0.308,-0.633,-0.239
774.956,87.300,618.783,-0.353,-0.620,-0.217
775.000,90.000,616.000,-0.420,-0.560,-0.210
775.737,91.725,615.595,-0.599,-0.683,-0.140
777.023,91.940,619.112,-0.790,-0.671,-0.153
776.257,88.559,620.353,-0.911,-0.595,-0.086
775.428,88.425,619.500,-0.847,-0.665,-0.090
774.569,88.982,620.343,-0.584,-0.586,-0.178
775.354,89.150,621.057,-0.287,-0.575,-0.312
777.085,90.070,620.932,-0.055,-0.629,-0.345
777.059,91.779,618.290,0.066,-0.565,-0.279
776.223,94.659,615.904,0.078,-0.552,-0.342
774.651,94.665,616.786,-0.036,-0.573,-0.312
772.950,92.801,616.888,-0.304,-0.521,-0.262
773.002,91.643,619.461,-0.303,-0.469,-0.303
772.802,92.290,620.739,-0.197,-0.385,-0.377
773.177,91.721,618.845,-0.207,-0.265,-0.417
774.000,91.000,619.000,-0.140,-0.210,-0.350
773.838,95.373,617.249,-0.138,-0.147,-0.352
776.065,95.647,617.408,-0.134,-0.137,-0.261
778.387,90.062,618.321,-0.189,-0.109,-0.139
778.776,89.565,617.718,-0.173,-0.047,-0.166
777.034,91.417,619.944,-0.013,-0.087,-0.252
775.846,90.787,620.867,-0.024,-0.057,-0.364
774.860,91.094,619.983,-0.230,-0.076,-0.267
773.060,92.014,620.886,-0.474,-0.139,-0.204
773.033,90.599,621.936,-0.657,-0.135,-0.283
772.163,87.865,621.856,-0.825,-0.154,-0.223
771.855,86.155,622.006,-0.763,-0.097,-0.244
771.463,85.872,621.480,-0.512,-0.054,-0.274
771.052,84.337,620.969,-0.276,0.035,-0.185
772.117,82.945,622.320,-0.037,0.061,-0.231
772.000,83.000,625.000,0.140,-0.000,-0.420
772.030,81.283,626.972,0.328,0.068,-0.549
771.198,80.679,626.163,0.408,-0.021,-0.644
771.599,81.413,626.786,0.491,-0.132,-0.869
774.150,80.097,628.318,0.614,-0.157,-1.083
775.117,80.973,625.345,0.647,-0.253,-1.265
776.196,86.330,622.680,0.822,-0.382,-1.420
775.919,90.174,623.086,0.987,-0.496,-1.396
775.039,91.871,623.992,1.045,-0.553,-1.398
774.202,93.541,622.612,1.107,-0.676,-1.358
773.188,96.397,620.091,1.166,-0.713,-1.263
772.799,99.638,621.232,1.208,-0.715,-1.251
773.015,97.347,623.533,1.170,-0.816,-1.113
773.067,96.438,620.864,1.223,-0.840,-1.053
774.255,99.319,618.933,1.346,-0.838,-1.037
774.000,100.000,618.000,1.400,-0.770,-0.910
772.148,102.540,618.522,1.350,-0.701,-0.852
770.581,104.062,620.437,1.181,-0.706,-0.733
770.139,104.259,618.572,0.965,-0.662,-0.686
773.692,105.957,620.217,0.690,-0.594,-0.688
771.749,107.762,621.290,0.510,-0.546,-0.595
772.579,108.950,624.912,0.383,-0.578,-0.548
771.826,106.894,622.490,0.197,-0.711,-0.406
774.403,109.574,618.861,0.077,-0.833,-0.283
778.002,112.534,619.745,-0.036,-0.897,-0.242
774.455,108.919,617.052,-0.231,-0.957,-0.027
777.960,107.562,618.818,-0.581,-0.998,0.172
771.206,105.953,613.118,-0.883,-0.934,0.244
773.912,102.963,617.240,-1.020,-0.805,0.415
770.736,98.230,616.086,-1.228,-0.770,0.572
772.000,95.000,617.000,-1.400,-0.700,0.560
775.319,91.723,617.480,-1.295,-0.512,0.552
771.459,88.745,613.423,-1.087,-0.434,0.617
780.277,89.339,623.096,-1.007,-0.348,0.634
770.523,85.633,615.540,-0.942,-0.224,0.632
781.260,83.326,626.452,-0.898,-0.205,0.606
771.928,80.422,619.234,-0.802,-0.107,0.449
776.456,83.487,621.250,-0.536,0.004,0.347
773.931,86.160,622.357,-0.229,0.001,0.289
766.784,85.812,617.124,-0.116,-0.002,0.156
781.928,90.883,629.495,-0.291,0.002,0.142
757.217,90.457,610.203,-0.370,-0.003,0.082
785.738,93.506,635.000,-0.345,0.004,-0.051
757.891,90.915,612.899,-0.336,-0.012,-0.069
782.002,96.534,628.841,-0.178,-0.082,-0.067
774.000,97.000,622.000,-0.000,-0.140,0.000
761.688,93.754,611.415,0.014,-0.202,0.011
806.593,97.183,647.430,-0.072,-0.218,-0.062
717.270,86.084,574.845,-0.019,-0.228,-0.067
876.234,107.750,703.280,-0.027,-0.330,-0.079
533.800,66.540,430.130,-0.066,-0.187,-0.048
