acc_x[mg],acc_y[mg],acc_z[mg],gyro_x[dps],gyro_y[dps],gyro_z[dps]
-749.000,-63.000,-664.000,-5.950,3.010,0.910
-781.318,-63.658,-691.457,-5.140,3.246,0.886
-709.332,-50.003,-630.424,-3.557,3.251,0.789
-779.052,-50.775,-695.777,-3.383,3.800,0.884
-713.349,-40.373,-642.474,-1.922,3.639,0.822
-760.395,-36.776,-686.751,-1.597,4.021,0.978
-725.741,-27.551,-659.415,-0.767,4.133,1.070
-738.308,-22.926,-677.415,-0.574,4.366,1.281
-735.291,-19.520,-680.460,-0.333,4.486,1.463
-721.758,-13.700,-672.771,0.143,4.463,1.567
-740.536,-11.077,-685.444,0.034,4.433,1.792
-726.894,-9.006,-671.577,-0.087,4.228,2.051
-750.373,-8.164,-695.245,-0.229,4.122,2.236
-736.937,0.714,-683.888,-0.168,3.595,2.374
-749.086,13.929,-695.376,-0.928,3.264,2.814
-757.000,25.000,-695.000,-1.890,2.870,3.290
-754.081,35.455,-685.335,-3.389,2.012,3.598
-750.819,43.550,-685.250,-5.450,1.383,3.846
-738.475,48.470,-679.854,-6.869,1.092,4.158
-747.955,61.563,-684.461,-8.314,1.008,4.801
-739.205,82.033,-661.786,-10.070,0.856,5.674
-737.707,98.933,-653.298,-11.781,1.091,6.683
-738.010,98.040,-656.147,-13.444,1.555,7.704
-746.958,75.345,-659.844,-15.426,1.240,8.498
-752.341,37.369,-655.661,-15.322,0.727,8.718
-749.356,-14.763,-656.228,-11.248,0.823,8.528
-755.147,-55.436,-665.033,-4.601,0.979,8.745
-745.748,-80.435,-661.293,4.718,1.240,9.313
-733.872,-93.021,-664.910,15.438,2.135,10.204
-723.117,-95.774,-657.506,25.372,2.972,11.452
-712.000,-104.000,-664.000,35.490,3.570,12.250
-707.046,-98.428,-682.727,45.257,4.137,12.727
-709.216,-82.192,-689.681,52.244,4.455,13.216
-710.187,-69.948,-705.188,56.208,4.789,13.339
-710.680,-64.710,-700.891,57.183,4.932,13.240
-714.498,-74.269,-692.443,55.736,4.885,12.915
-719.423,-92.495,-700.379,54.088,4.785,12.225
-728.812,-110.146,-698.846,51.528,4.453,11.652
-738.443,-124.576,-705.163,47.421,4.212,10.989
-743.404,-149.491,-711.178,43.658,4.037,10.006
-747.074,-171.204,-712.352,39.334,3.820,9.209
-755.149,-175.447,-717.207,34.574,3.456,8.208
-757.905,-177.992,-708.882,29.770,2.851,6.681
-755.138,-171.981,-705.210,23.282,2.169,5.153
-755.405,-162.911,-707.055,16.668,1.514,3.782
-761.000,-152.000,-707.000,9.940,0.840,2.380
-765.043,-132.909,-707.171,2.157,-0.015,0.866
-763.814,-130.134,-706.556,-5.134,-0.684,-0.627
-765.462,-133.529,-707.925,-12.046,-1.231,-1.918
-764.578,-130.762,-707.429,-17.876,-1.898,-3.060
-759.915,-132.693,-705.779,-21.966,-2.413,-4.228
-751.333,-126.848,-699.604,-25.720,-2.699,-5.255
-739.246,-120.892,-700.331,-29.226,-2.732,-6.163
-732.502,-120.238,-698.725,-31.902,-2.920,-7.138
-723.993,-116.239,-691.831,-33.424,-2.954,-7.963
-718.299,-118.779,-702.840,-34.508,-2.534,-8.592
-715.867,-123.169,-707.852,-35.358,-2.445,-9.224
-704.444,-121.734,-704.468,-34.958,-2.147,-10.086
-689.611,-117.763,-700.110,-34.287,-1.246,-10.948
-678.693,-112.985,-697.333,-33.881,-0.455,-11.567
-673.000,-101.000,-701.000,-33.460,0.140,-12.110
-669.305,-87.943,-695.573,-33.296,0.674,-12.642
-671.556,-85.700,-698.836,-32.753,1.426,-13.397
-687.163,-78.943,-708.022,-32.247,2.073,-14.142
-706.353,-58.591,-717.602,-31.964,1.903,-14.787
-712.411,-31.788,-723.092,-31.832,1.337,-15.715
-710.773,-12.781,-718.412,-33.142,1.095,-16.646
-713.353,-2.152,-720.989,-35.542,0.875,-17.332
-718.591,10.910,-709.326,-37.910,0.079,-17.692
-722.711,24.931,-700.604,-40.022,-0.915,-17.971
-721.455,35.791,-697.434,-42.581,-1.752,-18.387
-717.150,34.473,-680.806,-45.772,-2.347,-18.852
-712.961,23.743,-683.659,-47.472,-2.470,-19.467
-710.545,17.070,-683.993,-47.575,-2.713,-19.786
-709.819,17.998,-676.401,-47.092,-3.117,-19.813
-709.000,11.000,-676.000,-44.940,-3.010,-19.740
-712.438,9.183,-678.333,-41.730,-2.749,-19.273
-712.633,23.634,-677.768,-38.504,-2.684,-18.704
-706.262,25.586,-663.526,-35.496,-2.530,-18.241
-702.985,27.326,-658.323,-33.305,-2.196,-17.858
-712.837,34.974,-650.024,-31.652,-2.154,-17.349
-732.743,46.205,-659.609,-29.464,-2.537,-16.869
-733.408,56.338,-682.516,-25.723,-2.571,-16.879
-735.484,62.713,-670.165,-22.366,-2.198,-16.706
-763.518,87.038,-668.751,-20.416,-1.955,-15.834
-772.962,98.007,-671.383,-17.641,-2.294,-15.087
-756.821,102.104,-659.823,-15.137,-3.367,-14.904
-747.935,112.193,-657.817,-13.325,-4.040,-14.545
-755.298,107.095,-654.298,-10.795,-4.065,-13.828
-762.148,111.412,-649.395,-8.205,-4.327,-12.844
-757.000,113.000,-646.000,-4.970,-4.620,-11.620
-758.475,100.756,-643.326,-0.549,-4.698,-10.535
-770.474,91.939,-642.858,4.684,-4.512,-9.181
-780.223,86.064,-647.380,9.999,-4.250,-7.577
-787.983,77.511,-644.940,14.561,-4.401,-6.256
-793.054,61.421,-638.044,18.843,-4.581,-5.090
-791.222,46.899,-639.882,22.437,-4.418,-4.041
-792.475,29.335,-644.387,25.610,-4.024,-3.075
-799.722,9.075,-648.843,29.698,-3.533,-2.045
-798.105,2.262,-647.816,33.514,-3.203,-0.851
-795.466,0.429,-644.099,35.691,-2.944,0.395
-795.269,-2.703,-641.899,36.753,-2.527,1.486
-787.198,-2.948,-644.398,36.839,-2.199,2.277
-774.885,-5.015,-644.388,35.352,-2.175,2.681
-759.515,-9.926,-647.340,32.755,-1.965,2.899
-745.000,-18.000,-659.000,29.960,-1.400,3.080
-732.887,-28.196,-662.958,26.937,-1.019,3.261
-721.453,-43.829,-661.568,23.981,-0.679,3.447
-716.105,-70.016,-656.439,21.591,0.104,3.626
-716.190,-96.786,-664.454,20.227,1.035,3.794
-717.653,-116.602,-672.632,20.021,1.533,3.872
-722.438,-128.265,-665.348,20.034,1.840,3.944
-730.745,-140.047,-663.954,20.669,2.433,4.153
-742.039,-149.867,-658.593,22.089,3.101,4.582
-753.823,-143.872,-654.206,23.067,3.720,4.997
-761.118,-131.092,-651.968,23.033,4.176,5.008
-764.865,-116.830,-652.586,21.058,4.362,4.639
-766.514,-100.634,-662.163,17.334,4.418,4.072
-770.938,-87.381,-663.609,12.804,4.277,3.575
-777.709,-79.097,-665.695,7.569,4.012,3.148
-777.000,-76.000,-668.000,2.310,3.570,2.660
-773.386,-78.025,-668.361,-2.529,3.068,2.339
-770.770,-86.869,-673.280,-6.561,2.753,2.203
-769.636,-95.671,-673.692,-9.365,2.440,2.094
-772.049,-99.285,-675.115,-10.786,2.183,1.955
-769.021,-98.079,-674.931,-10.642,1.923,1.875
-767.268,-93.657,-669.890,-9.804,1.722,1.901
-770.135,-84.065,-667.974,-8.632,1.677,1.966
-769.222,-72.698,-667.990,-6.615,1.674,2.086
-764.172,-63.217,-668.063,-4.555,1.841,2.360
-751.958,-45.965,-667.638,-3.284,2.031,2.782
-741.139,-31.328,-668.780,-2.158,2.240,3.188
-737.801,-26.298,-667.481,-1.350,2.496,3.674
-734.935,-25.512,-662.858,-1.328,2.741,4.221
-732.960,-33.774,-664.742,-0.358,3.065,4.690
-735.000,-45.000,-670.000,2.030,3.500,5.180
-736.982,-49.210,-675.855,4.310,4.051,5.778
-736.260,-45.445,-682.774,6.212,4.465,6.420
-735.363,-41.688,-684.711,7.545,4.701,6.833
-733.995,-36.511,-685.945,7.677,4.766,6.982
-731.997,-27.977,-691.419,6.775,4.613,6.825
-729.529,-24.634,-698.439,5.258,4.336,6.413
-731.363,-21.641,-702.121,2.862,3.959,6.065
-735.014,-18.017,-702.087,-0.189,3.536,5.643
-731.332,-22.034,-700.461,-2.996,3.045,4.991
-725.774,-31.407,-698.450,-5.169,2.704,4.363
-721.366,-40.148,-697.362,-5.983,2.655,4.048
-721.675,-46.657,-699.416,-5.672,2.637,3.959
-720.629,-49.280,-704.217,-4.845,2.440,3.908
-712.990,-47.541,-704.912,-3.323,2.221,3.930
-712.000,-44.000,-706.000,-2.100,2.240,4.060
-714.701,-40.555,-705.723,-1.204,2.198,4.248
-716.544,-36.355,-700.065,-0.342,2.003,4.302
-716.736,-33.367,-698.511,-0.118,1.886,4.125
-715.112,-35.539,-699.388,0.046,1.716,3.818
-717.223,-34.944,-702.252,0.297,1.573,3.553
-722.096,-31.480,-703.975,0.551,1.523,3.397
-725.069,-30.947,-704.098,0.620,1.306,3.200
-724.089,-29.130,-703.421,0.426,0.998,2.894
-725.124,-28.301,-695.374,0.474,0.854,2.631
-728.102,-25.336,-693.806,0.503,0.794,2.488
-725.711,-24.340,-694.640,0.797,0.749,2.422
-723.768,-28.825,-692.507,1.173,0.817,2.498
-729.035,-26.767,-698.150,1.205,0.941,2.483
-733.165,-24.971,-702.320,1.545,0.880,2.186
-731.000,-22.000,-704.000,1.960,0.560,1.890
-730.487,-15.418,-703.449,2.004,0.251,1.758
-735.479,-16.109,-700.530,1.445,-0.040,1.713
-737.678,-18.009,-698.806,0.745,-0.334,1.534
-732.558,-17.589,-697.166,0.605,-0.506,1.250
-729.364,-17.077,-698.869,0.309,-0.716,1.060
-728.318,-21.428,-699.814,-0.367,-0.863,0.966
-722.549,-25.009,-697.828,-0.866,-0.993,0.902
-719.975,-24.782,-695.234,-0.986,-1.119,0.717
-720.190,-30.025,-693.026,-0.782,-1.061,0.567
-719.116,-31.257,-693.278,-0.320,-1.058,0.564
-718.127,-32.791,-691.072,0.386,-0.967,0.548
-715.864,-37.932,-690.308,1.321,-0.729,0.587
-716.520,-37.544,-693.956,2.835,-0.473,0.645
-718.186,-36.899,-693.744,4.397,-0.168,0.714
-720.000,-34.000,-694.000,5.320,-0.000,0.770
-721.937,-30.327,-698.329,6.331,0.123,0.658
-722.284,-28.577,-701.100,7.262,0.160,0.468
-725.826,-26.441,-698.868,7.143,0.113,0.357
-729.174,-22.800,-695.305,6.288,0.194,0.330
-727.555,-21.211,-697.273,5.274,0.169,0.065
-719.652,-24.546,-700.353,4.245,-0.056,-0.363
-710.487,-21.622,-701.126,3.121,-0.215,-0.488
-706.269,-22.374,-704.661,1.711,-0.212,-0.424
-703.091,-32.276,-708.333,0.914,-0.249,-0.413
-706.017,-37.396,-711.079,1.154,-0.417,-0.463
-712.851,-42.338,-711.635,1.270,-0.603,-0.531
-715.974,-46.539,-708.152,1.149,-0.785,-0.585
-719.050,-50.589,-706.707,1.238,-0.965,-0.653
-723.951,-55.487,-703.090,1.431,-1.148,-0.703
-731.000,-56.000,-698.000,1.680,-1.330,-0.700
-732.522,-55.989,-698.836,2.360,-1.462,-0.758
-728.566,-55.457,-697.281,3.409,-1.438,-0.754
-727.969,-53.175,-694.286,3.904,-1.308,-0.524
-726.475,-47.797,-696.025,4.112,-1.220,-0.369
-722.465,-44.222,-694.700,4.134,-1.183,-0.502
-720.591,-42.116,-691.517,3.426,-1.189,-0.748
-717.768,-36.699,-692.139,2.360,-1.110,-0.844
-717.713,-38.486,-693.061,1.022,-0.987,-0.966
-722.359,-45.624,-690.778,-0.363,-0.879,-1.066
-722.202,-51.351,-687.600,-1.348,-0.693,-0.972
-719.106,-58.932,-686.214,-1.841,-0.539,-1.081
-719.669,-65.368,-685.660,-1.406,-0.268,-1.260
-722.826,-65.110,-686.387,-0.158,0.107,-1.345
-721.172,-58.819,-688.272,0.816,0.392,-1.222
-713.000,-51.000,-690.000,1.610,0.700,-0.980
-708.169,-44.798,-694.120,2.600,0.954,-0.870
-708.408,-39.616,-699.632,3.274,1.089,-0.579
-711.642,-35.324,-703.141,3.697,1.174,-0.388
-719.183,-35.870,-703.491,3.491,1.176,-0.264
-723.835,-37.289,-701.088,2.867,1.073,-0.109
-724.097,-38.525,-702.629,2.621,0.951,-0.264
-727.371,-41.109,-702.789,2.271,0.749,-0.426
-731.718,-40.993,-700.017,1.720,0.442,-0.426
-736.405,-43.133,-701.729,1.267,0.195,-0.308
-743.219,-45.452,-700.012,0.957,-0.082,-0.226
-745.462,-43.811,-694.350,0.187,-0.410,-0.173
-744.348,-45.677,-690.117,-1.427,-0.663,-0.144
-743.710,-52.015,-686.986,-2.790,-0.800,-0.244
-741.465,-56.444,-682.000,-3.724,-0.841,-0.279
-736.000,-59.000,-676.000,-4.900,-0.770,-0.280
-729.711,-64.043,-677.202,-5.504,-0.537,-0.339
-726.415,-69.373,-682.587,-4.591,-0.191,-0.342
-726.342,-68.309,-686.806,-3.189,0.198,0.015
-729.752,-60.484,-691.100,-2.292,0.493,0.545
-728.579,-56.143,-693.553,-1.380,0.702,0.729
-725.836,-54.179,-695.508,-0.658,0.765,0.799
-728.229,-48.604,-696.990,-0.487,0.697,0.996
-729.948,-46.078,-695.135,-0.543,0.700,1.119
-729.599,-43.865,-696.077,-0.965,0.652,1.029
-725.456,-40.994,-699.020,-1.764,0.575,0.788
-723.077,-41.697,-698.177,-2.924,0.532,0.603
-724.585,-41.904,-700.222,-3.991,0.441,0.535
-724.980,-42.181,-700.394,-4.443,0.306,0.467
-724.930,-41.797,-699.053,-4.921,0.201,0.416
-724.000,-41.000,-698.000,-5.460,0.210,0.420
-726.282,-43.564,-689.208,-5.930,0.268,0.532
-729.967,-45.005,-686.253,-6.433,0.376,0.690
-727.814,-45.710,-687.289,-6.044,0.532,0.655
-724.250,-48.313,-683.865,-5.160,0.793,0.676
-724.176,-46.747,-682.846,-4.804,1.237,0.970
-725.134,-43.492,-682.983,-4.327,1.711,1.233
-726.114,-41.782,-682.957,-3.590,2.052,1.336
-727.052,-36.501,-681.153,-3.222,2.352,1.457
-724.736,-31.489,-681.831,-3.428,2.772,1.597
-722.188,-30.723,-687.847,-3.572,3.131,1.608
-721.743,-31.567,-691.803,-3.391,3.335,1.661
-722.156,-32.251,-693.903,-3.521,3.514,1.836
-723.378,-33.700,-696.939,-3.387,3.693,2.015
-725.409,-36.197,-700.687,-2.867,3.779,2.194
-728.000,-34.000,-706.000,-2.520,3.640,2.240
-728.115,-31.115,-708.968,-2.264,3.454,2.117
-727.432,-29.979,-708.687,-2.185,3.284,2.084
-724.094,-26.901,-710.391,-2.099,3.082,2.118
-716.885,-28.408,-709.846,-1.927,2.928,2.077
-713.072,-28.015,-707.524,-1.617,2.702,2.143
-713.073,-26.279,-710.913,-1.355,2.478,2.265
-714.140,-31.367,-710.722,-1.091,2.376,2.392
-715.956,-31.286,-707.124,-0.717,2.379,2.517
-714.077,-28.842,-706.350,-0.598,2.336,2.471
-709.132,-30.015,-704.498,-0.300,2.268,2.400
-706.995,-29.123,-708.010,0.080,2.438,2.339
-706.792,-26.722,-714.312,0.505,2.523,2.313
-707.220,-22.671,-716.401,0.931,2.413,2.423
-707.994,-19.698,-718.232,0.979,2.286,2.527
-706.000,-18.000,-718.000,0.980,2.100,2.450
-704.037,-17.729,-717.860,0.741,1.976,2.315
-703.648,-20.196,-718.129,0.690,1.858,2.355
-700.654,-23.030,-719.106,0.955,1.744,2.419
-700.617,-27.519,-725.890,1.229,1.567,2.512
-704.136,-28.510,-729.345,1.880,1.298,2.613
-706.647,-23.687,-728.815,2.159,1.065,2.576
-711.387,-18.682,-726.702,1.694,0.740,2.513
-713.168,-16.054,-722.256,0.661,0.312,2.330
-709.139,-17.218,-720.319,-0.614,-0.068,2.078
-703.878,-21.322,-718.395,-1.323,-0.341,1.915
-699.712,-24.981,-718.076,-1.674,-0.512,1.906
-701.279,-26.874,-719.254,-1.878,-0.588,2.002
-705.004,-29.962,-718.559,-1.750,-0.650,2.039
-708.574,-29.496,-716.670,-1.514,-0.711,2.113
-710.000,-26.000,-715.000,-1.470,-0.840,2.100
-707.200,-27.587,-714.936,-1.318,-0.973,1.970
-708.209,-28.529,-715.600,-0.914,-0.980,1.994
-709.393,-26.548,-716.477,-0.816,-0.987,2.121
-708.194,-25.907,-713.798,-0.838,-0.968,2.195
-707.779,-25.639,-709.503,-0.889,-0.998,2.138
-708.176,-21.861,-707.509,-1.206,-0.953,2.100
-709.004,-18.992,-704.831,-1.567,-0.834,2.098
-708.066,-20.026,-705.678,-1.933,-0.777,2.095
-708.537,-17.630,-710.933,-2.206,-0.699,2.214
-710.698,-16.702,-713.702,-2.295,-0.755,2.258
-714.233,-16.125,-714.182,-2.346,-0.756,2.221
-715.878,-12.566,-715.180,-2.370,-0.843,2.270
-713.218,-13.911,-712.791,-2.156,-1.008,2.324
-714.397,-16.237,-709.761,-2.033,-0.976,2.396
-714.000,-19.000,-709.000,-2.030,-1.050,2.520
-710.168,-25.144,-707.171,-1.467,-1.063,2.637
-711.267,-27.799,-707.419,-0.537,-0.989,2.854
-713.043,-23.398,-709.490,0.160,-0.952,3.075
-715.061,-19.121,-712.577,0.507,-0.857,3.019
-715.688,-14.639,-714.080,0.644,-0.865,2.900
-715.018,-6.333,-713.934,0.163,-1.023,2.761
-716.006,-5.180,-712.833,-0.927,-1.203,2.659
-713.328,-6.112,-711.011,-1.901,-1.385,2.666
-710.806,-6.029,-711.353,-2.412,-1.531,2.535
-712.384,-11.465,-707.925,-2.482,-1.532,2.624
-713.165,-14.529,-707.846,-2.602,-1.588,2.852
-715.130,-20.225,-710.005,-2.229,-1.575,2.856
-717.012,-22.287,-705.688,-1.241,-1.436,2.891
-713.171,-16.240,-707.802,-0.538,-1.391,2.944
-709.000,-14.000,-711.000,0.070,-1.260,2.940
-707.969,-6.513,-712.401,0.310,-1.246,2.882
-709.186,-0.153,-715.449,-0.164,-1.320,2.816
-711.199,0.118,-711.696,-1.123,-1.390,2.736
-709.164,1.433,-709.088,-2.082,-1.546,2.553
-705.975,-3.686,-708.496,-2.635,-1.502,2.408
-706.248,-8.695,-708.064,-3.107,-1.478,2.385
-706.976,-11.255,-709.080,-3.121,-1.462,2.457
-705.179,-13.954,-710.789,-2.326,-1.336,2.517
-705.026,-12.649,-713.006,-1.063,-1.283,2.567
-711.145,-9.088,-711.538,-0.037,-1.152,2.686
-716.855,-3.305,-710.346,0.255,-1.142,2.777
-717.795,-0.189,-709.255,0.470,-1.205,2.808
-716.621,0.088,-709.056,0.501,-1.192,2.791
-717.228,-0.210,-707.481,-0.123,-1.276,2.809
-717.000,-3.000,-705.000,-0.840,-1.330,2.870
-714.079,-5.719,-707.653,-1.004,-1.333,2.813
-715.575,-6.424,-707.586,-0.840,-1.283,2.749
-714.513,-4.248,-706.413,-0.932,-1.217,2.651
-712.325,-1.679,-707.684,-0.965,-1.149,2.558
-714.854,1.090,-709.625,-0.898,-1.140,2.613
-714.843,1.762,-709.597,-1.032,-1.295,2.573
-717.369,-0.100,-708.006,-1.355,-1.328,2.599
-720.936,-0.888,-709.858,-1.422,-1.386,2.665
-720.829,-2.864,-710.214,-0.956,-1.584,2.538
-721.934,-0.933,-708.834,-0.567,-1.620,2.553
-720.151,3.373,-705.637,-0.425,-1.607,2.609
-716.242,3.952,-702.954,-0.411,-1.608,2.577
-714.610,4.091,-701.311,-0.173,-1.616,2.603
-714.017,3.917,-700.059,0.088,-1.600,2.676
-716.000,3.000,-702.000,0.140,-1.470,2.800
-720.329,0.489,-702.851,0.279,-1.346,2.809
-723.626,-1.877,-704.533,0.137,-1.264,2.749
-723.595,-1.476,-704.633,-0.015,-1.298,2.660
-721.672,-0.585,-703.181,-0.206,-1.324,2.510
-718.516,0.591,-702.654,-0.532,-1.220,2.424
-715.384,2.319,-701.732,-0.761,-1.182,2.370
-713.929,3.064,-700.995,-1.152,-1.032,2.384
-713.049,4.842,-702.744,-1.397,-0.847,2.446
-713.475,5.389,-705.090,-1.383,-0.788,2.501
-716.119,3.878,-703.818,-1.633,-0.707,2.580
-716.590,4.515,-704.799,-2.039,-0.716,2.565
-712.820,2.823,-703.989,-1.909,-0.633,2.484
-708.895,2.507,-705.249,-1.706,-0.436,2.443
-706.914,5.298,-711.918,-1.293,-0.341,2.457
-709.000,6.000,-716.000,-0.560,-0.350,2.520
-711.899,8.548,-719.080,-0.518,-0.529,2.529
-711.291,9.656,-714.368,-0.811,-0.675,2.427
-710.461,6.632,-708.789,-1.112,-0.773,2.279
-708.485,3.403,-709.968,-0.894,-0.901,2.245
-706.410,1.252,-713.469,-0.118,-0.888,2.361
-707.348,-0.222,-715.843,0.461,-0.834,2.474
-710.372,0.046,-710.529,0.781,-0.841,2.600
-717.400,-1.621,-707.995,0.772,-0.840,2.664
-723.364,-7.835,-706.139,0.874,-0.887,2.507
-723.966,-9.660,-701.925,0.881,-0.977,2.257
-719.764,-3.689,-702.746,0.545,-0.925,2.047
-715.597,1.925,-702.627,0.146,-0.766,1.907
-718.300,3.644,-705.290,-0.670,-0.697,1.908
-721.144,8.876,-708.034,-2.050,-0.789,1.954
-720.000,9.000,-707.000,-3.290,-0.840,1.680
-715.836,7.033,-710.299,-3.793,-0.771,1.240
-711.385,17.335,-712.103,-4.387,-0.859,1.019
-711.409,21.417,-706.859,-5.459,-0.983,0.896
-711.877,21.990,-704.712,-6.418,-0.943,0.775
-712.172,23.988,-708.303,-6.748,-0.913,0.659
-713.033,20.301,-708.644,-6.403,-1.006,0.638
-713.061,22.323,-708.094,-5.907,-1.047,0.706
-714.873,24.082,-709.942,-5.178,-0.982,0.827
-715.165,23.000,-708.721,-4.276,-1.030,0.970
-715.112,23.141,-705.157,-3.247,-1.070,0.967
-717.492,22.356,-702.376,-2.156,-1.007,1.076
-719.756,18.997,-701.811,-1.475,-0.958,1.253
-719.303,15.503,-702.152,-0.695,-0.886,1.244
-715.482,17.339,-704.517,0.272,-0.834,1.180
-715.000,18.000,-707.000,0.840,-0.770,1.120
-715.239,24.338,-707.757,0.781,-0.646,1.123
-713.429,32.616,-709.173,-0.028,-0.608,1.001
-711.443,31.976,-707.129,-1.059,-0.715,0.657
-708.191,32.901,-704.891,-2.169,-0.799,0.329
-708.376,32.191,-703.119,-3.360,-0.727,0.171
-708.860,29.195,-703.579,-3.901,-0.608,0.131
-709.119,22.301,-708.398,-3.747,-0.558,0.064
-710.079,16.912,-712.745,-2.839,-0.497,0.002
-708.745,20.593,-713.727,-1.247,-0.418,0.032
-711.684,19.959,-709.430,-0.116,-0.499,0.291
-712.553,23.079,-711.017,0.581,-0.643,0.552
-709.846,29.235,-714.716,1.634,-0.754,0.521
-710.164,32.091,-712.003,2.235,-0.867,0.502
-709.932,36.370,-712.342,1.884,-0.924,0.567
-710.000,33.000,-714.000,1.680,-1.120,0.560
-710.601,25.243,-713.288,1.927,-1.258,0.499
-715.780,16.528,-710.296,2.027,-1.290,0.480
-720.619,10.850,-706.150,2.125,-1.413,0.482
-717.409,12.309,-703.812,2.632,-1.323,0.306
-713.923,15.266,-702.360,3.160,-1.261,0.204
-712.797,20.202,-702.119,3.083,-1.239,0.305
-713.097,21.837,-704.195,2.785,-1.115,0.352
-714.841,17.330,-705.092,2.669,-1.119,0.414
-717.888,15.733,-703.851,2.536,-1.070,0.437
-722.699,16.035,-705.458,2.585,-1.002,0.328
-723.980,13.269,-704.807,2.729,-0.935,0.208
-721.779,16.820,-701.531,2.502,-0.913,0.078
-720.955,23.536,-701.000,2.007,-0.890,-0.023
-722.319,25.126,-700.940,1.346,-0.847,-0.081
-724.000,26.000,-700.000,0.350,-0.980,-0.210
-722.481,22.817,-699.725,-0.383,-0.933,-0.343
-719.501,18.550,-702.407,-0.344,-0.842,-0.311
-718.667,17.396,-702.290,-0.213,-0.790,-0.225
-718.607,16.497,-699.355,-0.151,-0.597,-0.206
-715.083,15.741,-699.256,0.292,-0.563,-0.215
-711.592,16.454,-701.522,1.005,-0.436,-0.197
-713.238,19.116,-703.080,1.488,-0.198,-0.056
-715.845,17.306,-704.780,1.534,-0.142,0.068
-718.275,14.843,-707.660,1.881,-0.085,0.021
-720.684,16.384,-707.518,2.424,-0.060,-0.055
-720.437,18.153,-705.815,2.229,-0.075,-0.094
-719.020,21.960,-704.078,1.596,-0.080,-0.210
-713.770,24.304,-704.511,1.162,-0.172,-0.409
-707.446,23.830,-707.409,0.941,-0.209,-0.489
-709.000,21.000,-709.000,0.490,-0.210,-0.420
-712.014,16.468,-709.197,0.025,-0.217,-0.406
-709.995,14.534,-706.796,0.103,-0.154,-0.570
-707.223,12.198,-705.286,0.542,-0.114,-0.682
-707.083,10.004,-706.887,1.253,0.023,-0.520
-708.602,8.304,-708.299,2.054,0.187,-0.391
-711.839,8.446,-709.112,2.843,0.209,-0.331
-713.998,11.098,-708.910,3.544,0.210,-0.283
-712.949,10.083,-706.261,3.850,0.208,-0.410
-717.334,11.925,-704.584,3.638,0.267,-0.436
-722.069,14.816,-707.232,3.588,0.257,-0.401
-721.367,11.985,-707.486,4.149,0.146,-0.443
-725.133,13.686,-706.852,4.165,0.156,-0.380
-726.661,15.846,-706.477,3.869,0.108,-0.358
-724.868,11.204,-703.677,3.833,-0.015,-0.432
-724.000,9.000,-704.000,3.570,-0.070,-0.490
-721.233,9.096,-704.180,3.446,-0.076,-0.492
-720.523,8.748,-703.101,3.168,-0.019,-0.489
-717.341,9.786,-702.810,2.674,0.038,-0.462
-715.518,9.947,-703.180,2.388,0.112,-0.388
-715.528,10.106,-704.366,2.133,0.140,-0.462
-713.736,9.900,-706.762,1.816,0.150,-0.474
-713.955,10.044,-711.339,1.603,0.212,-0.423
-710.391,10.047,-713.919,1.549,0.149,-0.551
-707.136,10.426,-714.845,1.323,0.072,-0.573
-706.407,12.938,-714.091,1.110,0.073,-0.545
-705.199,11.814,-711.010,0.909,0.065,-0.576
-703.944,11.085,-712.063,0.718,0.076,-0.534
-699.587,10.248,-716.133,0.949,0.064,-0.464
-699.449,6.602,-718.089,1.202,0.077,-0.325
-703.000,7.000,-717.000,0.980,0.140,-0.210
-704.005,8.004,-715.221,0.645,0.145,-0.258
-703.332,7.985,-712.648,0.663,0.128,-0.437
-703.209,7.638,-706.274,0.287,0.209,-0.535
-707.553,5.886,-702.698,-0.392,0.376,-0.388
-710.605,2.505,-703.035,-0.460,0.562,-0.240
-712.561,-0.328,-703.042,-0.411,0.736,-0.206
-715.182,0.045,-705.272,-0.096,0.846,-0.213
-718.600,-0.029,-708.778,0.522,0.906,-0.275
-723.532,2.698,-711.363,0.898,0.923,-0.333
-722.869,8.379,-714.053,1.256,0.825,-0.438
-721.088,11.803,-715.305,1.262,0.674,-0.546
-720.281,13.745,-714.277,0.823,0.428,-0.571
-718.477,13.728,-714.039,0.350,0.131,-0.671
-716.507,11.575,-713.845,-0.058,-0.020,-0.782
-712.000,9.000,-712.000,-0.420,-0.210,-0.840
-711.604,8.179,-710.987,-0.691,-0.348,-0.849
-713.303,4.872,-711.598,-0.513,-0.338,-0.779
-711.455,-0.166,-712.717,0.154,-0.401,-0.779
-710.767,2.434,-712.416,1.022,-0.419,-0.715
-710.774,7.715,-712.065,1.517,-0.427,-0.602
-709.508,10.614,-714.675,1.647,-0.411,-0.649
-706.813,13.161,-717.184,1.906,-0.427,-0.702
-705.959,14.855,-719.835,1.784,-0.551,-0.702
-706.213,16.824,-720.273,1.243,-0.665,-0.643
-704.539,15.600,-719.569,0.715,-0.841,-0.650
-703.163,11.482,-719.660,0.088,-1.016,-0.790
-702.636,8.997,-715.614,-0.584,-1.208,-0.865
-701.343,5.949,-712.137,-1.110,-1.239,-0.935
-698.625,3.904,-709.678,-1.256,-1.101,-0.983
-698.000,4.000,-710.000,-1.120,-0.980,-0.980
-699.645,3.101,-710.400,-0.939,-0.739,-0.870
-702.279,3.085,-708.329,-0.760,-0.534,-0.708
-703.250,1.520,-711.952,-0.498,-0.398,-0.745
-703.362,-0.889,-711.810,0.032,-0.314,-0.756
-710.223,0.876,-712.025,0.488,-0.252,-0.658
-716.950,0.655,-718.153,0.787,-0.211,-0.530
-719.169,1.257,-718.902,1.379,-0.289,-0.496
-720.995,5.729,-717.209,1.574,-0.470,-0.682
-719.404,7.728,-713.047,0.720,-0.774,-0.917
-719.080,8.922,-709.641,0.008,-0.997,-1.219
-721.139,8.348,-706.903,-0.182,-1.129,-1.443
-722.049,8.697,-704.016,-0.688,-1.229,-1.456
-719.769,11.859,-705.600,-0.886,-1.261,-1.372
-715.576,11.707,-705.925,-0.596,-1.165,-1.330
-716.000,9.000,-706.000,-0.630,-1.050,-1.330
-717.789,6.366,-704.557,-0.658,-1.115,-1.265
-719.008,3.903,-700.745,-0.323,-1.038,-1.302
-716.725,0.911,-699.678,0.435,-0.856,-1.357
-710.636,-0.090,-703.464,1.469,-0.628,-1.256
-708.675,2.122,-708.313,2.329,-0.300,-1.016
-707.322,5.896,-708.919,2.900,-0.108,-0.810
-703.802,8.025,-710.171,3.169,0.008,-0.767
-703.011,7.925,-711.067,3.537,0.128,-0.644
-701.651,9.232,-710.611,3.753,0.312,-0.463
-699.065,5.356,-712.998,3.473,0.410,-0.242
-699.606,0.847,-715.021,3.545,0.473,-0.003
-702.102,-1.840,-719.338,3.789,0.610,0.118
-704.557,-8.871,-723.765,3.752,0.498,0.257
-704.956,-7.116,-722.586,3.498,0.336,0.357
-705.000,-3.000,-720.000,2.590,0.280,0.350
-703.638,0.776,-718.952,1.312,0.156,0.295
-698.363,8.267,-719.784,-0.029,0.126,0.144
-695.889,8.508,-719.808,-2.105,0.135,-0.136
-699.191,10.718,-720.755,-4.895,-0.070,-0.425
-705.300,6.514,-724.273,-7.353,-0.420,-0.652
-709.560,-6.766,-726.068,-8.766,-0.781,-0.999
-711.186,-14.502,-724.846,-9.261,-1.067,-1.269
-715.571,-21.548,-722.260,-9.388,-1.246,-1.262
-720.859,-24.175,-717.526,-8.904,-1.480,-1.305
-725.825,-22.946,-710.349,-7.883,-1.673,-1.365
-731.065,-18.994,-704.594,-7.136,-1.639,-1.217
-736.263,-11.196,-699.279,-6.289,-1.611,-1.072
-739.279,-1.874,-695.144,-5.465,-1.588,-1.036
-736.269,8.394,-695.069,-5.063,-1.450,-0.874
-731.000,15.000,-694.000,-4.830,-1.400,-0.630
-723.446,20.416,-692.871,-4.769,-1.295,-0.447
-713.779,20.628,-694.446,-4.662,-1.044,-0.264
-705.427,14.160,-696.216,-4.485,-0.864,-0.091
-701.503,7.637,-701.201,-3.779,-0.618,0.126
-702.507,1.829,-710.910,-2.150,-0.309,0.373
-704.632,-2.880,-719.398,0.032,-0.101,0.624
-709.376,-2.654,-722.120,2.099,0.003,0.933
-710.272,6.187,-724.749,3.668,-0.059,1.117
-706.356,14.112,-725.768,4.983,-0.231,1.070
-706.007,17.698,-720.704,5.281,-0.469,1.034
-704.844,24.820,-717.342,4.486,-0.659,1.053
-703.056,28.350,-716.471,3.550,-0.735,0.867
-699.677,22.975,-715.814,2.295,-0.898,0.650
-698.239,18.517,-714.671,0.838,-0.975,0.540
-701.000,14.000,-712.000,-0.350,-0.840,0.350
-699.444,7.667,-712.624,-1.131,-0.713,0.162
-696.886,4.732,-713.720,-1.159,-0.649,0.064
-693.218,2.348,-710.142,-0.873,-0.541,0.173
-691.728,2.573,-708.826,-1.032,-0.225,0.380
-693.554,2.396,-710.259,-0.748,0.112,0.418
-695.706,-0.560,-709.915,0.224,0.329,0.428
-700.337,-0.950,-712.336,1.046,0.581,0.498
-702.870,0.726,-716.730,2.145,0.824,0.622
-705.889,6.365,-719.547,3.152,0.974,0.648
-710.429,12.525,-719.890,3.573,0.881,0.571
-714.016,15.498,-717.030,3.585,0.567,0.542
-717.223,15.694,-718.007,3.134,0.331,0.424
-719.693,12.886,-720.201,2.898,0.137,0.328
-720.946,8.213,-718.661,2.482,-0.193,0.172
-718.000,4.000,-716.000,1.610,-0.420,-0.070
-715.220,2.282,-712.424,0.975,-0.477,-0.129
-713.121,0.178,-710.462,0.713,-0.596,-0.289
-709.494,1.813,-708.855,0.667,-0.652,-0.390
-709.135,5.764,-709.980,0.397,-0.593,-0.318
-710.148,5.986,-712.780,0.442,-0.549,-0.376
-709.679,9.070,-714.236,0.749,-0.572,-0.331
-707.907,12.035,-713.841,0.850,-0.633,-0.358
-708.799,11.059,-711.946,1.093,-0.632,-0.364
-710.866,10.503,-715.266,1.622,-0.626,-0.116
-711.206,6.280,-714.409,2.548,-0.638,0.017
-713.326,1.628,-708.518,2.957,-0.597,0.215
-713.460,0.553,-708.024,3.400,-0.533,0.413
-713.249,-1.634,-705.989,4.529,-0.457,0.420
-715.226,-0.548,-705.294,4.893,-0.239,0.509
-715.000,2.000,-709.000,4.760,-0.070,0.560
-714.131,4.410,-712.556,4.609,-0.133,0.444
-713.094,7.250,-713.659,3.963,-0.096,0.305
-713.568,5.270,-711.006,2.762,-0.082,0.245
-712.196,6.312,-711.954,1.625,-0.198,0.127
-702.689,8.146,-712.473,1.110,-0.205,-0.064
-696.514,6.677,-710.888,0.649,-0.205,-0.035
-700.551,4.709,-713.264,0.268,-0.053,0.234
-707.637,-1.480,-716.697,0.392,0.074,0.479
-708.051,-6.405,-721.183,0.899,-0.047,0.511
-703.354,-8.153,-722.006,1.525,-0.079,0.391
-703.961,-6.042,-719.467,1.765,-0.069,0.327
-704.215,-0.446,-720.817,1.758,-0.063,0.372
-699.280,2.612,-720.146,1.811,-0.095,0.318
-697.168,4.264,-716.586,1.261,-0.229,0.294
-702.000,5.000,-716.000,0.280,-0.280,0.490
-705.980,1.004,-716.115,-0.179,-0.276,0.507
-704.930,-4.515,-714.685,-0.364,-0.330,0.457
-706.627,-4.246,-712.048,-0.490,-0.345,0.594
-707.975,-5.192,-709.908,-0.463,-0.154,0.630
-706.528,-7.023,-710.404,-0.183,0.079,0.649
-708.656,-2.899,-712.330,0.501,0.247,0.707
-709.997,-1.000,-713.036,0.604,0.353,0.699
-709.953,-0.193,-713.096,0.221,0.348,0.700
-710.813,2.594,-709.978,0.238,0.450,0.700
-711.496,3.279,-707.322,-0.193,0.600,0.705
-712.207,2.142,-709.127,-0.849,0.663,0.669
-711.246,-0.045,-707.488,-1.043,0.746,0.610
-711.227,-1.041,-706.161,-1.256,0.891,0.653
-711.941,0.359,-709.615,-1.232,1.081,0.702
-710.000,4.000,-713.000,-1.050,1.260,0.700
-709.756,7.722,-717.196,-0.989,1.333,0.760
-710.539,8.554,-722.489,-0.928,1.244,0.782
-707.803,11.677,-726.630,-0.836,1.035,0.757
-706.715,15.348,-728.663,-0.757,0.752,0.785
-706.626,12.298,-728.585,-1.054,0.429,0.753
-706.011,9.746,-726.271,-1.167,0.055,0.791
-707.021,7.699,-723.908,-0.967,-0.227,0.837
-704.368,3.246,-723.130,-0.676,-0.468,0.770
-700.966,1.360,-719.922,0.113,-0.696,0.871
-702.368,-0.181,-716.956,0.564,-0.570,1.011
-702.289,1.753,-717.385,0.875,-0.450,1.125
-699.715,2.437,-718.171,1.570,-0.519,1.214
-698.903,-0.459,-719.425,1.726,-0.457,1.176
-699.025,2.670,-719.835,1.599,-0.326,1.197
-699.000,5.000,-717.000,1.470,-0.140,1.190
-697.399,9.047,-716.582,1.004,-0.064,1.130
-695.590,12.196,-719.524,0.350,-0.126,1.027
-698.731,6.743,-720.256,-0.288,-0.149,0.909
-701.681,4.482,-722.233,-0.613,-0.112,0.930
-698.109,3.463,-724.542,-0.598,-0.055,0.867
-695.769,4.792,-724.728,-0.460,-0.078,0.746
-694.888,8.140,-720.546,-0.508,-0.067,0.618
-693.969,9.764,-716.954,-0.882,-0.066,0.493
-694.866,12.899,-718.960,-1.058,-0.086,0.492
-695.224,11.110,-717.117,-1.030,0.026,0.472
-697.845,9.054,-719.471,-1.048,0.112,0.588
-701.431,6.382,-724.072,-0.682,0.172,0.762
-705.154,5.681,-722.776,-0.113,0.210,0.754
-706.905,10.618,-728.177,0.443,0.118,0.690
-704.000,12.000,-732.000,0.980,-0.070,0.630
-702.127,16.196,-731.762,1.012,-0.309,0.627
-701.157,18.071,-732.258,0.818,-0.600,0.634
-701.643,14.511,-726.193,0.580,-0.921,0.626
-703.959,13.782,-723.064,0.039,-1.183,0.634
-703.312,9.839,-722.184,-0.263,-1.416,0.625
-703.309,3.762,-721.167,-0.182,-1.561,0.639
-706.223,-0.249,-722.977,-0.057,-1.614,0.705
-707.094,-2.034,-718.437,0.248,-1.616,0.706
-705.882,0.794,-717.077,0.641,-1.493,0.587
-707.347,5.825,-719.806,0.756,-1.486,0.502
-707.275,7.739,-716.125,0.495,-1.635,0.487
-705.007,8.403,-714.898,-0.082,-1.675,0.479
-704.922,9.048,-714.690,-0.627,-1.577,0.386
-702.432,9.099,-715.372,-0.864,-1.543,0.357
-700.000,10.000,-718.000,-1.050,-1.540,0.420
-700.798,7.541,-718.866,-1.244,-1.416,0.418
-702.284,6.164,-718.350,-1.303,-1.387,0.437
-704.549,9.693,-712.598,-1.453,-1.388,0.303
-703.636,11.695,-711.140,-1.543,-1.230,0.161
-699.473,12.123,-713.656,-1.098,-1.066,0.274
-700.986,11.800,-715.631,-0.536,-0.954,0.466
-706.330,9.775,-719.223,-0.418,-0.832,0.639
-708.035,7.065,-720.878,-0.122,-0.832,0.638
-706.562,9.619,-722.805,0.696,-0.960,0.518
-704.103,14.623,-721.752,0.869,-1.018,0.394
-705.056,14.324,-720.714,0.110,-1.149,0.303
-707.745,14.180,-722.795,-0.521,-1.348,0.247
-706.092,13.650,-722.637,-1.007,-1.529,0.077
-703.687,14.431,-722.050,-1.638,-1.698,-0.089
-701.000,17.000,-724.000,-2.240,-1.750,-0.210
-700.491,14.474,-726.041,-2.799,-1.920,-0.338
-704.450,13.044,-724.002,-3.119,-2.137,-0.394
-704.226,11.746,-720.664,-3.117,-2.212,-0.512
-704.879,8.075,-716.082,-2.792,-2.262,-0.556
-707.376,6.859,-711.358,-2.209,-2.199,-0.453
-705.307,7.058,-708.031,-1.504,-2.070,-0.403
-704.001,6.956,-702.605,-0.713,-1.868,-0.188
-704.851,6.048,-700.007,-0.110,-1.500,-0.004
-708.095,6.524,-701.288,0.468,-1.132,0.042
-710.268,9.396,-705.187,1.200,-0.766,0.155
-709.173,14.021,-708.485,1.823,-0.456,0.044
-711.173,19.731,-709.181,1.870,-0.269,0.044
-711.225,25.720,-712.188,1.145,-0.093,0.134
-706.241,27.871,-716.705,0.569,-0.084,-0.116
-704.000,24.000,-721.000,0.070,-0.210,-0.280
-705.610,19.584,-722.997,-0.574,-0.326,-0.281
-707.754,15.497,-721.803,-0.704,-0.506,-0.276
-707.471,10.362,-718.556,-0.706,-0.654,-0.318
-706.263,5.699,-714.931,-0.356,-0.730,-0.351
-705.818,3.319,-711.748,0.455,-0.631,-0.210
-707.742,1.604,-711.324,1.130,-0.358,-0.033
-711.115,2.271,-715.359,1.967,-0.206,0.073
-708.420,8.451,-717.991,2.952,-0.208,0.010
-704.802,14.767,-717.165,3.239,-0.212,-0.076
-707.468,19.368,-716.807,2.604,-0.235,-0.015
-710.339,18.671,-717.077,1.918,-0.390,-0.021
-710.648,13.931,-719.144,1.337,-0.555,-0.123
-707.870,11.106,-720.996,0.870,-0.666,-0.246
-705.968,6.153,-717.252,0.576,-0.782,-0.271
-706.000,3.000,-715.000,0.280,-0.770,-0.140
-703.367,1.477,-715.990,0.773,-0.706,-0.073
-702.617,-1.127,-715.740,1.516,-0.656,-0.031
-703.637,0.844,-717.166,1.706,-0.574,0.083
-703.970,2.480,-718.010,2.023,-0.563,0.208
-703.518,4.084,-717.903,2.136,-0.541,0.305
-701.285,9.283,-717.827,1.700,-0.481,0.260
-697.747,13.173,-716.991,1.225,-0.492,0.210
-696.823,13.183,-718.737,0.679,-0.492,0.212
-700.969,9.183,-722.371,0.053,-0.482,0.200
-703.730,4.422,-723.714,-0.391,-0.535,0.265
-703.854,1.167,-725.039,-0.507,-0.596,0.258
-703.676,-0.537,-727.546,-0.157,-0.659,0.172
-702.522,0.906,-722.827,-0.182,-0.722,0.135
-700.634,5.775,-718.912,-0.863,-0.872,0.141
-698.000,8.000,-719.000,-1.050,-1.050,0.140
-698.472,5.466,-716.170,-1.307,-0.999,0.245
-702.771,2.761,-717.290,-1.749,-0.916,0.465
-705.206,0.751,-718.552,-1.182,-0.879,0.430
-703.729,2.964,-719.747,-0.664,-0.813,0.287
-703.121,9.895,-721.239,-0.725,-0.872,0.298
-705.463,16.152,-722.339,-0.596,-0.919,0.367
-706.018,19.151,-722.900,-0.812,-1.069,0.422
-707.786,20.081,-720.200,-1.552,-1.316,0.422
-708.642,15.804,-717.835,-2.196,-1.444,0.370
-705.184,8.551,-712.817,-2.598,-1.541,0.289
-706.363,5.506,-708.923,-2.579,-1.475,0.303
-707.807,2.768,-706.968,-1.959,-1.348,0.409
-705.371,3.947,-707.901,-0.878,-1.199,0.652
-707.684,6.050,-712.614,0.575,-0.941,0.948
-711.000,7.000,-715.000,1.680,-0.770,1.120
-710.983,13.022,-718.514,2.286,-0.757,1.196
-711.274,18.455,-719.466,2.792,-0.879,1.051
-708.463,23.173,-718.060,2.411,-0.949,0.863
-703.099,23.298,-717.447,1.461,-1.043,0.859
-702.366,21.482,-716.908,0.846,-1.146,0.943
-705.716,17.403,-718.177,0.292,-1.219,0.982
-707.005,9.579,-716.819,0.001,-1.412,0.981
-706.975,7.198,-715.900,0.372,-1.410,0.982
-707.677,2.142,-718.363,1.111,-1.325,0.968
-709.676,1.566,-719.969,2.265,-1.380,1.071
-712.208,7.580,-719.530,3.501,-1.426,1.166
-710.295,9.979,-720.696,3.806,-1.526,1.219
-705.521,14.542,-722.255,3.795,-1.642,1.260
-702.855,15.739,-723.253,3.540,-1.778,1.172
-704.000,13.000,-725.000,2.450,-2.030,1.050
-704.306,11.217,-725.005,1.561,-2.279,0.867
-702.154,10.189,-725.174,0.977,-2.463,0.769
-702.228,9.387,-723.335,0.268,-2.654,0.754
-700.149,9.148,-720.317,-0.440,-2.783,0.617
-697.234,10.224,-718.136,-0.894,-2.800,0.556
-698.262,8.480,-718.314,-0.985,-2.797,0.551
-697.935,8.046,-718.856,-0.976,-2.720,0.487
-698.801,7.194,-714.367,-0.910,-2.596,0.550
-700.383,5.728,-711.938,-1.014,-2.543,0.634
-696.958,7.128,-712.433,-1.055,-2.353,0.579
-696.496,6.600,-713.802,-0.833,-2.095,0.556
-700.708,10.668,-712.675,-0.800,-1.987,0.556
-702.413,14.232,-711.524,-1.087,-1.846,0.575
-706.929,11.591,-719.321,-1.251,-1.831,0.636
-710.000,12.000,-722.000,-0.980,-1.890,0.630
-707.280,15.554,-720.817,-1.109,-1.934,0.631
-706.467,16.548,-720.495,-1.617,-2.171,0.584
-703.452,14.874,-715.468,-1.609,-2.332,0.540
-701.402,15.311,-719.153,-1.270,-2.464,0.594
-704.428,12.360,-723.874,-0.773,-2.666,0.661
-708.835,11.583,-725.618,-0.352,-2.840,0.806
-708.756,15.115,-728.028,-0.200,-3.025,0.832
-705.944,14.901,-727.813,-0.015,-3.266,0.647
-710.495,18.979,-732.974,0.015,-3.662,0.415
-714.727,20.229,-732.988,-0.707,-4.263,0.107
-714.694,17.472,-728.186,-1.989,-5.003,-0.124
-715.062,16.275,-724.980,-2.804,-5.525,-0.294
-714.653,13.024,-717.723,-3.205,-5.950,-0.457
-712.618,11.988,-714.931,-3.626,-6.345,-0.494
-711.000,12.000,-713.000,-3.850,-6.510,-0.560
-711.838,12.973,-707.866,-4.031,-6.586,-0.568
-712.627,11.093,-700.784,-4.207,-6.439,-0.550
-714.126,8.869,-692.913,-4.416,-6.243,-0.546
-715.449,8.355,-691.808,-4.157,-6.006,-0.426
-718.652,4.931,-687.070,-3.194,-5.542,-0.435
-723.834,8.427,-681.470,-2.777,-4.971,-0.284
-723.891,12.030,-683.109,-2.546,-4.367,0.016
-723.861,12.719,-681.258,-1.734,-3.885,0.130
-726.342,18.003,-679.838,-1.396,-3.361,0.355
-729.045,20.492,-679.179,-1.402,-2.744,0.586
-730.063,22.551,-676.251,-1.540,-2.196,0.654
-727.315,24.490,-678.547,-2.062,-1.791,0.589
-726.143,23.667,-681.743,-2.281,-1.406,0.580
-729.697,22.855,-685.921,-2.684,-0.908,0.720
-733.000,21.000,-692.000,-3.150,-0.630,0.770
-733.181,18.288,-694.643,-2.937,-0.574,0.770
-730.546,18.204,-697.835,-2.432,-0.413,0.767
-724.939,21.007,-700.873,-1.792,-0.266,0.804
-721.304,23.488,-702.958,-1.293,-0.344,0.878
-718.811,29.829,-704.020,-0.766,-0.450,0.930
-716.723,32.794,-704.077,-0.474,-0.503,0.996
-718.271,29.893,-705.041,-0.481,-0.565,1.053
-722.720,30.941,-704.132,-0.226,-0.685,1.054
-722.982,28.934,-703.053,-0.199,-0.883,0.989
-718.427,26.189,-702.346,-0.086,-0.920,0.977
-718.530,25.331,-701.744,0.376,-0.930,0.976
-718.319,22.761,-704.196,1.072,-1.019,1.001
-718.515,20.054,-704.540,2.192,-1.056,1.069
-721.324,18.072,-702.926,3.300,-1.043,1.132
-723.000,23.000,-703.000,4.060,-0.980,1.190
-725.207,26.143,-699.548,4.500,-1.034,1.077
-719.569,25.896,-698.964,4.741,-1.076,0.932
-714.390,30.871,-701.110,4.644,-0.959,0.872
-718.242,34.351,-697.155,3.962,-0.874,0.787
-715.400,34.952,-694.298,2.878,-0.807,0.629
-707.604,32.023,-693.969,2.211,-0.656,0.465
-707.207,28.865,-696.344,1.863,-0.397,0.499
-709.870,25.541,-699.943,1.786,-0.090,0.622
-711.493,16.671,-699.567,2.668,0.108,0.737
-713.365,12.599,-704.596,3.836,0.242,0.876
-715.472,9.109,-711.998,5.373,0.283,0.944
-722.743,2.381,-714.486,7.311,0.122,1.021
-727.435,2.379,-712.989,8.685,-0.054,1.033
-725.652,-1.046,-708.365,9.763,-0.335,0.888
-723.000,-6.000,-707.000,10.990,-0.630,0.840
-719.186,-2.565,-708.640,12.170,-0.693,0.847
-720.858,-1.590,-710.817,12.942,-0.793,0.787
-723.339,-1.519,-709.519,13.286,-0.929,0.712
-725.054,1.577,-706.431,13.195,-1.043,0.484
-727.376,2.029,-705.583,12.743,-1.166,0.144
-725.063,5.178,-703.238,11.968,-1.288,-0.225
-719.462,10.296,-699.723,10.903,-1.326,-0.504
-711.550,12.838,-697.027,9.689,-1.200,-0.623
-707.182,14.760,-699.816,8.479,-1.084,-0.701
-707.262,15.079,-703.052,7.695,-0.874,-0.618
-709.677,15.023,-702.711,6.881,-0.637,-0.520
-713.499,14.860,-704.755,5.987,-0.502,-0.623
-715.266,15.335,-701.050,5.175,-0.400,-0.720
-714.655,15.853,-698.295,3.930,-0.429,-0.784
-710.000,12.000,-704.000,3.080,-0.420,-0.910
-708.419,7.375,-707.591,3.014,-0.301,-0.930
-713.753,6.655,-710.951,2.866,-0.171,-0.744
-715.358,8.049,-712.657,2.782,-0.116,-0.707
-714.748,10.781,-710.312,2.929,-0.183,-0.831
-714.127,16.321,-708.532,2.455,-0.211,-0.829
-708.493,20.658,-709.036,1.783,-0.212,-0.851
-706.119,22.067,-706.716,1.509,-0.208,-0.832
-709.707,21.290,-705.738,0.650,-0.205,-0.706
-713.159,14.294,-710.435,-0.270,-0.367,-0.691
-716.678,4.394,-709.843,-0.358,-0.545,-0.739
-719.764,-3.741,-708.781,-0.450,-0.548,-0.843
-723.534,-8.877,-710.607,-0.540,-0.608,-0.949
-723.087,-9.936,-710.962,0.001,-0.728,-0.995
-719.700,-7.344,-709.526,0.338,-0.781,-1.056
-720.000,-2.000,-705.000,-0.280,-0.910,-1.050
-721.531,0.143,-701.588,-1.132,-0.977,-1.156
-725.752,-1.546,-696.460,-2.100,-1.059,-1.365
-727.722,-2.628,-694.338,-3.060,-1.244,-1.440
-725.168,-3.531,-697.539,-2.937,-1.208,-1.515
-721.319,-4.015,-697.861,-2.468,-1.072,-1.528
-718.683,-2.430,-701.078,-2.318,-0.952,-1.452
-719.034,0.139,-704.029,-1.612,-0.914,-1.397
-718.138,0.124,-703.042,-1.003,-0.980,-1.399
-716.949,-2.243,-703.683,-0.649,-0.877,-1.363
-717.925,-5.886,-704.574,0.213,-0.771,-1.183
-720.403,-6.998,-705.751,1.035,-0.778,-1.046
-720.226,-2.688,-707.627,1.906,-0.749,-0.913
-718.951,0.877,-707.860,2.690,-0.680,-0.830
-721.403,4.750,-708.141,2.695,-0.723,-0.843
-721.000,9.000,-708.000,2.450,-0.980,-0.910
-717.486,10.784,-703.668,2.112,-1.122,-1.099
-714.157,11.028,-701.675,1.473,-1.067,-1.139
-710.899,5.780,-701.968,0.796,-1.020,-1.081
-712.075,1.318,-699.265,0.135,-0.894,-0.986
-714.685,0.738,-699.520,-0.367,-0.703,-0.899
-716.412,-1.623,-701.142,-0.605,-0.615,-1.011
-718.050,-3.032,-702.191,-0.777,-0.474,-1.048
-717.117,-3.029,-705.771,-0.597,-0.286,-1.047
-716.759,-2.220,-706.992,0.000,-0.323,-1.062
-716.840,-1.810,-707.467,0.537,-0.411,-0.995
-713.770,-2.403,-707.481,0.895,-0.424,-0.977
-713.151,-4.006,-704.391,1.021,-0.401,-0.979
-713.810,-6.590,-704.400,1.334,-0.327,-0.982
-711.709,-5.618,-704.775,1.791,-0.272,-0.979
-712.000,-3.000,-702.000,1.680,-0.210,-0.980
-713.787,-0.405,-701.802,1.581,-0.152,-0.929
-715.298,1.175,-702.749,1.839,-0.038,-0.796
-717.711,-0.100,-704.306,1.880,0.028,-0.759
-719.914,-2.250,-707.135,1.771,-0.043,-0.776
-721.476,-4.994,-706.191,1.922,-0.083,-0.766
-723.403,-6.096,-706.273,2.339,-0.162,-0.773
-723.928,-5.909,-706.968,2.597,-0.211,-0.768
-721.283,-2.378,-706.898,2.532,-0.270,-0.707
-718.250,0.312,-708.183,2.314,-0.402,-0.636
-718.343,-1.336,-705.770,1.922,-0.457,-0.631
-719.197,0.138,-704.719,1.527,-0.571,-0.622
-718.577,-4.340,-704.102,1.304,-0.645,-0.658
-719.254,-11.404,-701.267,1.043,-0.619,-0.698
-718.739,-12.053,-700.988,1.098,-0.539,-0.619
-717.000,-14.000,-699.000,1.540,-0.350,-0.630
-716.970,-13.407,-697.674,1.680,-0.169,-0.585
-716.462,-11.283,-702.044,1.789,0.025,-0.435
-714.841,-10.425,-707.603,2.100,0.097,-0.429
-716.207,-9.626,-709.040,1.906,0.034,-0.379
-720.123,-8.337,-709.285,1.336,-0.031,-0.371
-719.498,-8.628,-711.192,1.089,-0.177,-0.530
-720.293,-13.221,-708.680,0.800,-0.286,-0.633
-723.123,-10.482,-706.023,0.063,-0.406,-0.631
-717.567,-6.788,-706.728,-0.569,-0.600,-0.673
-713.518,-8.091,-708.052,-0.641,-0.650,-0.775
-714.762,-7.918,-709.902,-0.753,-0.610,-0.699
-714.502,-10.110,-709.278,-1.126,-0.663,-0.606
-713.735,-9.497,-709.296,-0.920,-0.710,-0.648
-712.862,-10.400,-711.280,-0.515,-0.790,-0.712
-713.000,-10.000,-712.000,-0.350,-0.910,-0.770
-717.138,-5.144,-710.409,-0.553,-0.907,-0.658
-720.571,-7.699,-708.158,-0.947,-1.039,-0.545
-716.619,-10.557,-708.075,-0.543,-1.278,-0.651
-714.589,-11.399,-707.082,-0.104,-1.346,-0.687
-716.646,-10.246,-707.683,0.287,-1.306,-0.438
-716.671,-10.595,-710.160,1.199,-1.264,-0.164
-713.755,-13.005,-707.798,1.938,-1.414,-0.064
-713.672,-11.917,-708.704,2.662,-1.475,0.059
-719.769,-15.473,-711.225,3.596,-1.443,0.140
-722.733,-13.096,-708.841,4.097,-1.617,0.136
-722.762,-6.573,-706.480,3.839,-1.753,0.125
-720.212,-5.786,-703.432,3.499,-1.875,0.015
-717.713,-3.172,-703.577,3.051,-1.867,0.028
-719.222,-4.631,-706.280,2.626,-1.825,0.155
-719.000,-9.000,-706.000,2.520,-1.890,0.210
-718.982,-11.724,-704.168,2.096,-1.891,0.273
-717.774,-12.733,-704.431,1.921,-1.857,0.249
-716.122,-14.672,-705.186,1.949,-1.715,0.109
-718.058,-15.888,-701.290,1.307,-1.685,0.081
-716.312,-11.058,-698.048,0.190,-1.643,0.168
-709.324,-11.939,-696.634,-0.744,-1.515,0.116
-706.025,-15.062,-697.241,-1.539,-1.386,0.073
-708.743,-15.786,-701.698,-2.461,-1.201,0.139
-711.454,-19.508,-705.003,-2.961,-1.086,0.046
-713.865,-19.244,-710.186,-3.115,-0.926,-0.154
-716.399,-15.603,-712.485,-3.200,-0.976,-0.258
-719.100,-10.424,-711.844,-3.432,-1.076,-0.315
-719.614,-5.857,-713.152,-3.843,-1.182,-0.473
-716.461,-2.431,-710.327,-4.468,-1.523,-0.566
-714.000,-0.000,-706.000,-5.460,-1.750,-0.630
-714.585,-2.394,-700.826,-6.156,-1.825,-0.704
-717.047,-6.547,-697.134,-6.518,-1.722,-0.640
-714.962,-11.347,-697.419,-6.060,-1.609,-0.642
-714.577,-13.920,-698.341,-4.680,-1.395,-0.556
-720.164,-13.508,-699.015,-3.508,-1.090,-0.336
-723.252,-8.210,-699.071,-2.272,-0.955,-0.188
-722.954,-0.595,-701.220,-0.969,-0.833,-0.219
-723.769,1.861,-702.138,-0.421,-0.835,-0.285
-727.549,4.534,-699.450,-0.729,-0.898,-0.153
-725.654,4.250,-698.604,-0.952,-0.961,-0.219
-718.907,1.536,-699.162,-0.256,-0.966,-0.294
-718.545,0.258,-697.977,0.292,-0.851,-0.115
-720.225,-3.003,-695.168,0.442,-0.734,0.041
-721.369,-3.953,-695.263,1.379,-0.612,0.154
-725.000,-4.000,-696.000,2.380,-0.490,0.210
-725.384,-4.883,-693.982,2.743,-0.310,0.273
-722.536,-5.715,-697.171,3.325,-0.123,0.284
-721.617,-6.542,-701.884,4.034,0.035,0.306
-722.091,-7.907,-703.981,4.262,0.058,0.399
-721.362,-9.160,-706.772,4.289,-0.034,0.411
-719.617,-7.603,-705.085,4.329,-0.074,0.323
-718.966,-8.159,-701.920,3.943,-0.068,0.203
-717.232,-9.105,-702.891,3.384,-0.066,0.144
-714.957,-6.564,-703.206,3.254,-0.137,0.083
-716.227,-5.068,-702.100,2.817,-0.063,0.058
-717.117,-5.241,-701.990,1.803,0.064,0.087
-716.559,-7.094,-704.262,1.031,0.066,0.016
-715.632,-9.789,-707.898,0.574,0.065,-0.228
-716.417,-12.432,-707.619,0.129,-0.015,-0.436
-720.000,-14.000,-705.000,-0.560,-0.070,-0.420
-718.662,-11.452,-706.590,-0.992,-0.125,-0.468
-715.113,-10.027,-707.481,-0.671,-0.205,-0.573
-716.327,-8.751,-706.301,-0.478,-0.204,-0.444
-719.450,-5.710,-707.342,-0.431,-0.235,-0.284
-721.759,-8.808,-704.099,-0.026,-0.318,-0.293
-724.581,-10.927,-702.037,0.469,-0.450,-0.264
-724.858,-10.042,-702.982,1.104,-0.487,-0.208
-722.161,-11.900,-701.994,1.775,-0.424,-0.151
-721.135,-11.433,-703.569,2.290,-0.370,0.035
-719.709,-9.696,-704.085,2.540,-0.285,0.096
-717.711,-7.434,-704.129,2.391,-0.315,0.026
-716.017,-5.358,-705.235,2.081,-0.356,-0.025
-714.787,-6.829,-704.648,1.419,-0.359,-0.082
-714.959,-10.598,-703.946,0.515,-0.429,-0.065
-713.000,-13.000,-704.000,0.210,-0.420,-0.070
-711.845,-12.190,-704.749,0.322,-0.361,-0.075
-713.420,-11.736,-707.603,0.623,-0.290,-0.024
-715.512,-13.067,-711.457,1.072,-0.308,0.079
-717.792,-15.076,-711.066,1.285,-0.390,0.177
-715.405,-16.397,-709.357,1.649,-0.443,0.095
-712.709,-17.081,-707.266,2.122,-0.491,0.090
-713.023,-15.800,-704.997,2.311,-0.415,0.217
-712.137,-13.141,-707.717,2.124,-0.477,0.215
-710.855,-11.569,-709.930,1.822,-0.571,0.153
-713.146,-8.276,-709.793,1.329,-0.527,0.096
-716.817,-5.949,-710.343,0.364,-0.656,0.011
-716.059,-6.517,-710.810,-0.359,-0.691,-0.157
-714.493,-8.815,-707.588,-1.096,-0.735,-0.323
-711.406,-9.900,-704.956,-1.845,-0.844,-0.436
-710.000,-8.000,-706.000,-2.450,-0.770,-0.490
-712.780,-7.180,-705.096,-2.973,-0.714,-0.429
-712.865,-4.403,-705.645,-3.254,-0.548,-0.411
-714.463,-0.476,-705.916,-4.477,-0.472,-0.449
-717.156,-0.959,-706.516,-6.016,-0.705,-0.588
-720.385,-6.674,-708.474,-6.950,-0.893,-0.899
-723.155,-13.203,-709.117,-7.290,-1.013,-1.168
-721.950,-16.174,-710.051,-7.045,-1.205,-1.261
-723.771,-18.820,-710.012,-6.514,-1.327,-1.198
-725.205,-18.865,-710.107,-5.170,-1.374,-1.122
-723.251,-13.498,-708.189,-3.990,-1.509,-1.132
-718.722,-7.497,-705.288,-3.233,-1.519,-1.034
-714.343,-3.026,-704.760,-2.337,-1.449,-0.815
-713.874,1.316,-703.204,-1.850,-1.482,-0.781
-711.520,4.259,-700.765,-1.478,-1.461,-0.750
-711.000,4.000,-701.000,-1.120,-1.400,-0.560
-716.081,0.689,-701.125,-0.766,-1.341,-0.493
-720.615,-3.758,-700.748,-0.266,-1.239,-0.444
-719.645,-7.884,-701.193,0.455,-1.061,-0.380
-716.093,-12.094,-700.660,1.287,-0.904,-0.274
-716.824,-12.772,-703.091,2.184,-0.807,-0.066
-720.811,-11.843,-703.612,3.013,-0.768,0.007
-721.948,-9.679,-701.976,3.138,-0.768,0.077
-720.995,-4.359,-702.065,2.953,-0.705,0.078
-722.452,-1.368,-700.966,2.655,-0.686,-0.050
-723.952,-0.005,-701.694,1.874,-0.787,-0.114
-722.850,-1.433,-701.691,0.809,-0.903,-0.184
-718.232,-6.663,-702.245,0.144,-0.884,-0.229
-712.602,-13.028,-701.413,0.187,-0.829,-0.302
-712.257,-18.612,-701.256,0.305,-0.745,-0.261
-714.000,-19.000,-703.000,0.840,-0.490,-0.140
-714.918,-14.800,-704.382,1.669,-0.349,-0.083
-714.890,-9.564,-709.092,1.881,-0.398,-0.002
-717.014,-4.703,-710.451,1.507,-0.484,-0.039
-722.675,-2.134,-711.676,0.809,-0.685,-0.111
-721.621,-4.243,-711.595,0.343,-0.922,-0.305
-720.155,-7.790,-712.124,-0.263,-1.088,-0.532
-722.082,-11.239,-707.296,-1.432,-1.274,-0.718
-721.196,-12.123,-701.799,-2.661,-1.394,-0.965
-717.224,-10.221,-706.922,-3.038,-1.508,-1.098
-712.956,-9.158,-702.458,-3.204,-1.578,-1.155
-713.771,-5.647,-703.076,-4.560,-1.464,-1.015
-713.323,-6.178,-708.119,-5.003,-1.533,-1.044
-715.052,-9.869,-706.607,-4.525,-1.607,-1.214
-716.798,-11.161,-706.919,-4.434,-1.531,-1.096
-714.000,-11.000,-706.000,-3.430,-1.470,-1.050
-714.915,-7.427,-710.505,-2.070,-1.338,-1.055
-713.548,-5.814,-708.786,-1.051,-1.414,-1.009
-713.254,-0.936,-705.478,-0.612,-1.543,-0.866
-713.332,3.046,-708.585,-0.413,-1.524,-0.682
-711.839,-0.371,-708.487,0.160,-1.574,-0.609
-716.151,0.650,-707.860,0.442,-1.713,-0.544
-717.929,0.782,-706.892,0.414,-1.742,-0.487
-716.123,-2.803,-704.299,0.292,-1.553,-0.487
-715.081,-4.546,-701.107,0.157,-1.516,-0.547
-714.828,-7.065,-701.385,0.105,-1.610,-0.603
-715.168,-8.771,-698.516,-0.072,-1.558,-0.659
-716.447,-9.428,-696.747,-0.435,-1.368,-0.566
-714.978,-11.864,-696.360,-0.303,-1.112,-0.486
-711.754,-12.887,-693.864,0.106,-0.872,-0.477
-713.000,-11.000,-695.000,0.070,-0.560,-0.280
-715.603,-10.177,-695.665,0.006,-0.190,-0.200
-717.739,-7.391,-699.140,-0.060,0.047,-0.308
-718.336,-3.626,-700.308,-0.042,0.067,-0.422
-723.464,-2.594,-702.855,-0.285,0.107,-0.357
-729.300,-2.050,-704.738,-1.112,0.112,-0.283
-728.649,-6.559,-702.839,-1.691,-0.133,-0.470
-729.091,-12.226,-704.009,-1.826,-0.284,-0.560
-728.256,-12.106,-702.083,-1.950,-0.343,-0.558
-724.011,-11.775,-704.169,-1.947,-0.418,-0.568
-719.919,-12.062,-704.981,-1.660,-0.410,-0.515
-718.046,-7.748,-703.032,-1.666,-0.460,-0.447
-717.587,-4.267,-704.666,-1.771,-0.496,-0.425
-716.853,-6.778,-705.045,-1.760,-0.489,-0.525
-718.371,-4.169,-706.117,-1.924,-0.492,-0.556
-720.000,-1.000,-705.000,-2.310,-0.560,-0.560
-719.176,-2.126,-704.764,-3.104,-0.687,-0.681
-718.710,-0.652,-705.954,-3.591,-0.746,-0.764
-720.004,-4.344,-705.839,-3.781,-0.856,-0.769
-721.633,-8.747,-705.591,-3.978,-0.933,-0.789
-721.511,-8.695,-704.488,-3.373,-0.885,-0.875
-719.495,-6.103,-703.623,-2.502,-0.826,-0.909
-719.069,-1.723,-700.801,-2.152,-0.766,-0.913
-719.979,0.823,-700.839,-1.847,-0.766,-0.978
-720.508,2.858,-701.568,-1.650,-0.828,-0.893
-723.530,2.422,-698.305,-1.900,-0.849,-0.639
-726.273,1.142,-699.133,-1.812,-0.829,-0.499
-727.078,-4.222,-701.384,-1.150,-0.855,-0.478
-726.707,-10.095,-698.915,-0.766,-0.811,-0.388
-725.896,-9.845,-696.861,-0.402,-0.680,-0.354
-724.000,-9.000,-696.000,0.350,-0.560,-0.420
-719.535,-4.050,-694.944,0.653,-0.436,-0.484
-717.886,1.749,-696.354,0.374,-0.327,-0.461
-718.262,5.647,-698.071,0.069,-0.146,-0.316
-720.402,7.097,-699.887,-0.497,-0.034,-0.278
-724.044,3.175,-701.343,-1.248,-0.117,-0.271
-723.263,-0.827,-703.728,-1.548,-0.227,-0.301
-718.658,-4.211,-706.007,-1.221,-0.204,-0.427
-716.064,-5.046,-704.112,-0.733,-0.141,-0.426
-715.325,-4.852,-705.287,-0.238,-0.146,-0.317
-713.828,-4.873,-706.537,0.609,-0.092,-0.137
-714.649,-1.792,-705.478,1.185,-0.060,0.012
-714.119,0.890,-708.396,1.318,-0.086,0.114
-713.146,0.734,-708.548,1.514,-0.177,0.127
-716.574,-0.065,-708.098,1.252,-0.293,0.065
-718.000,-1.000,-708.000,0.770,-0.350,0.070
-717.943,-4.570,-707.658,0.743,-0.411,0.010
-717.525,-4.267,-710.516,0.877,-0.502,-0.006
-716.173,-1.199,-710.870,0.507,-0.734,-0.026
-718.509,-3.998,-710.943,-0.285,-0.919,-0.112
-719.797,-4.469,-708.311,-0.787,-1.026,-0.168
-717.251,-2.928,-704.231,-1.227,-1.135,-0.316
-714.892,-4.107,-701.822,-1.556,-1.116,-0.344
-714.886,-5.778,-700.076,-1.795,-1.056,-0.220
-717.323,-9.932,-698.578,-2.040,-0.940,-0.099
-719.129,-13.515,-697.016,-1.795,-0.823,-0.001
-717.644,-13.646,-699.528,-1.245,-0.636,-0.039
-716.986,-9.476,-696.965,-0.502,-0.382,-0.064
-718.114,-1.151,-699.015,-0.329,-0.244,0.039
-716.742,6.860,-706.613,-0.669,-0.125,0.155
-717.000,7.000,-706.000,-0.840,-0.140,0.210
-718.835,5.510,-709.303,-1.372,-0.264,0.155
-719.692,9.797,-710.661,-1.867,-0.374,0.077
-720.166,6.488,-709.371,-2.164,-0.547,0.095
-719.488,0.326,-709.672,-2.463,-0.708,0.210
-720.328,-2.005,-706.734,-2.616,-0.797,0.301
-719.371,-5.598,-705.879,-2.219,-0.854,0.267
-716.938,-3.657,-704.978,-1.425,-0.913,0.288
-717.899,-0.124,-706.816,-1.256,-0.912,0.413
-718.172,0.788,-706.125,-1.174,-0.904,0.430
-717.186,1.760,-701.363,-1.078,-0.921,0.409
-716.596,1.954,-701.726,-1.472,-0.890,0.435
-717.360,-0.916,-703.508,-1.761,-0.964,0.390
-718.016,-6.491,-703.981,-1.569,-1.063,0.344
-717.978,-6.613,-704.115,-1.032,-0.951,0.351
-716.000,-5.000,-706.000,-0.490,-0.770,0.350
-711.387,-6.163,-706.969,0.114,-0.758,0.403
-711.819,-2.538,-708.109,0.651,-0.834,0.530
-715.841,0.810,-710.577,0.983,-0.829,0.579
-720.133,1.700,-710.527,0.968,-0.906,0.528
-722.157,5.717,-709.217,0.336,-1.154,0.457
-722.053,8.365,-706.191,-0.471,-1.367,0.309
-723.024,8.947,-703.860,-1.491,-1.478,0.127
-721.242,5.425,-700.396,-2.654,-1.601,0.005
-718.473,1.316,-696.839,-3.358,-1.633,-0.004
-716.360,-0.349,-698.723,-3.418,-1.479,-0.031
-716.295,-4.757,-697.252,-3.037,-1.258,-0.105
-719.238,-3.397,-696.054,-2.749,-1.010,-0.017
-719.706,-0.667,-698.583,-2.091,-0.885,-0.024
-719.089,0.422,-699.103,-0.970,-0.733,-0.062
-722.000,4.000,-701.000,-0.560,-0.490,0.070
-725.012,4.800,-701.858,-0.535,-0.478,0.136
-722.370,7.313,-704.984,-0.009,-0.543,0.149
-718.682,8.408,-711.496,0.636,-0.628,0.093
-716.491,11.036,-715.963,1.035,-0.790,0.072
-712.234,12.512,-718.579,1.403,-1.007,0.038
-711.096,8.453,-717.271,1.640,-1.340,-0.092
-712.057,11.268,-713.789,1.684,-1.629,-0.064
-712.931,8.615,-712.109,1.808,-1.871,-0.064
-712.563,2.330,-709.773,1.897,-2.077,-0.137
-709.995,1.800,-706.908,1.805,-2.108,-0.103
-710.877,-0.660,-708.043,1.700,-2.120,-0.019
-712.218,-0.688,-708.230,1.884,-2.200,-0.015
-713.812,-1.259,-703.149,2.272,-2.132,-0.088
-718.880,1.901,-698.398,2.176,-2.017,-0.061
-723.000,5.000,-695.000,1.610,-1.960,-0.070
-722.333,1.181,-695.384,1.561,-1.901,-0.195
-721.431,3.215,-700.001,1.764,-1.796,-0.226
-722.895,3.156,-701.918,1.275,-1.676,-0.163
-718.838,2.671,-705.439,1.028,-1.718,-0.130
-715.697,7.920,-712.438,1.414,-1.766,-0.156
-720.194,8.945,-715.011,1.413,-1.963,-0.232
-723.069,10.157,-713.934,0.936,-2.336,-0.362
-722.202,10.201,-713.148,0.385,-2.636,-0.543
-718.708,6.770,-708.715,0.013,-2.955,-0.785
-716.908,3.476,-700.990,-0.433,-3.083,-0.964
-716.193,-0.615,-697.487,-0.787,-3.077,-0.955
-713.879,-5.133,-698.511,-0.274,-3.069,-0.865
-714.527,-8.655,-698.968,0.865,-2.968,-0.716
-717.572,-6.261,-700.457,2.068,-2.764,-0.536
-722.000,-2.000,-703.000,3.080,-2.590,-0.420
-724.833,-0.388,-699.697,3.727,-2.588,-0.352
-725.643,3.574,-698.036,3.798,-2.581,-0.392
-726.363,6.887,-701.226,3.480,-2.664,-0.471
-724.245,6.754,-702.293,3.183,-2.794,-0.514
-720.584,7.400,-705.192,2.278,-2.936,-0.600
-718.644,6.231,-705.575,1.009,-3.113,-0.737
-718.039,0.578,-705.215,0.389,-3.233,-0.925
-720.666,-1.160,-710.592,-0.152,-3.538,-1.105
-724.547,1.083,-713.228,-0.952,-3.964,-1.342
-725.042,-1.481,-710.133,-1.599,-4.357,-1.527
-724.877,-4.129,-704.353,-2.161,-4.617,-1.533
-724.240,-4.262,-702.894,-2.417,-4.746,-1.552
-720.627,-8.928,-702.211,-1.827,-4.855,-1.524
-717.893,-13.202,-697.137,-0.750,-4.811,-1.454
-720.000,-11.000,-692.000,0.070,-4.620,-1.190
-722.033,-9.818,-687.547,0.732,-4.380,-0.859
-721.053,-10.561,-684.139,1.426,-4.094,-0.849
-722.425,-7.492,-680.830,1.894,-3.736,-0.722
-728.628,-5.443,-682.294,1.916,-3.394,-0.594
-734.726,-6.355,-684.113,1.603,-3.129,-0.645
-735.907,-5.643,-684.017,1.025,-2.989,-0.634
-736.079,-3.883,-682.713,0.138,-2.853,-0.786
-736.987,-3.020,-677.358,-0.711,-2.545,-0.908
-736.954,-2.426,-674.468,-1.490,-2.288,-0.910
-736.574,-0.180,-672.090,-2.253,-2.034,-0.881
-734.648,-2.218,-673.324,-2.612,-1.624,-0.760
-736.434,-8.810,-674.892,-2.690,-1.237,-0.651
-741.243,-9.696,-674.413,-2.705,-0.978,-0.521
-741.627,-10.402,-681.263,-2.073,-0.729,-0.497
-737.000,-12.000,-686.000,-0.560,-0.490,-0.490
-737.861,-7.012,-687.678,0.611,-0.309,-0.254
-745.873,-1.840,-688.020,0.965,-0.149,-0.032
-745.347,0.278,-683.983,1.245,-0.214,0.020
-740.448,1.704,-682.418,1.071,-0.294,-0.042
-738.391,1.714,-681.409,0.503,-0.133,-0.052
-739.455,-0.684,-682.665,0.351,0.032,0.113
-739.844,-3.141,-684.988,0.344,0.147,0.212
-737.082,-4.852,-682.206,0.160,0.205,0.270
-737.833,-6.684,-682.969,-0.103,0.360,0.409
-736.753,-7.793,-686.182,-0.150,0.595,0.347
-735.230,-7.507,-684.626,-0.260,0.627,0.211
-733.842,-4.552,-686.274,-0.903,0.672,0.224
-731.679,-4.505,-687.803,-1.604,0.804,0.190
-733.248,-6.082,-685.818,-2.371,0.843,0.133
-732.000,-7.000,-686.000,-3.080,0.910,0.070
-729.201,-11.422,-684.250,-3.123,1.083,0.001
-728.355,-12.603,-684.929,-2.712,1.371,0.046
-726.302,-10.331,-687.598,-1.963,1.661,0.116
-723.420,-6.687,-688.251,-1.088,1.837,0.170
-723.008,-0.508,-691.274,-0.525,2.057,0.245
-722.728,5.106,-694.807,-0.232,2.278,0.387
-723.242,6.910,-699.336,-0.222,2.305,0.492
-727.784,3.309,-700.225,-0.531,2.180,0.489
-726.301,1.088,-697.148,-0.777,2.101,0.549
-721.305,0.445,-697.698,-0.592,2.109,0.530
-722.002,-0.004,-697.245,-0.466,2.064,0.458
-725.124,1.940,-697.348,-0.841,2.007,0.537
-723.886,1.483,-699.595,-1.046,1.926,0.543
-719.562,-0.123,-701.282,-0.705,1.804,0.491
-721.000,-0.000,-703.000,-0.490,1.750,0.630
-725.544,-0.699,-703.081,-0.615,1.692,0.825
-726.008,-2.771,-702.303,-0.601,1.624,0.813
-721.883,-1.828,-701.810,-0.507,1.576,0.669
-721.824,2.400,-704.968,-0.757,1.483,0.622
-726.443,6.662,-707.199,-1.571,1.341,0.618
-724.826,10.753,-707.043,-2.834,1.133,0.421
-718.622,10.824,-708.033,-4.236,0.812,0.042
-716.947,7.313,-706.287,-5.397,0.505,-0.202
-717.245,2.997,-701.952,-5.862,0.419,-0.222
-715.893,-0.778,-698.922,-5.780,0.421,-0.132
-716.470,-4.491,-699.510,-4.995,0.460,0.045
-716.806,-8.113,-700.069,-3.267,0.678,0.217
-717.292,-3.945,-703.490,-1.687,0.892,0.416
-717.921,1.564,-705.716,-0.620,0.991,0.575
-716.000,6.000,-701.000,0.140,1.050,0.630
-714.229,12.586,-704.720,0.334,1.058,0.700
-712.954,11.690,-709.760,0.555,0.956,0.604
-714.036,11.751,-705.322,0.533,0.839,0.558
-714.659,12.805,-704.070,-0.259,0.877,0.694
-711.627,8.059,-707.290,-0.519,0.904,0.527
-711.367,5.665,-710.481,0.080,0.814,0.329
-715.389,3.898,-709.825,0.345,0.690,0.354
-718.972,4.838,-708.864,0.204,0.568,0.413
-716.117,4.725,-712.238,0.740,0.458,0.491
-712.750,2.819,-713.524,1.767,0.241,0.435
-713.584,7.224,-711.754,2.236,0.007,0.473
-713.871,9.160,-712.863,2.371,-0.122,0.601
-713.851,9.297,-713.374,2.451,-0.258,0.525
-712.942,9.860,-706.835,2.166,-0.452,0.494
-715.000,7.000,-703.000,1.610,-0.630,0.490
-716.997,3.538,-703.198,1.503,-0.644,0.422
-717.369,0.456,-701.267,1.706,-0.524,0.468
-719.006,-0.063,-701.350,1.493,-0.442,0.502
-718.757,-0.378,-702.070,1.404,-0.390,0.482
-723.193,-1.067,-701.599,1.474,-0.334,0.486
-725.690,0.573,-700.890,1.259,-0.365,0.388
-721.747,3.141,-702.165,0.964,-0.422,0.275
-720.945,3.097,-703.051,0.909,-0.421,0.275
-721.821,3.299,-703.318,0.739,-0.413,0.393
-721.241,6.188,-706.124,0.277,-0.498,0.416
-717.582,4.287,-703.499,0.203,-0.635,0.232
-720.087,5.797,-702.126,-0.212,-0.587,0.263
-722.715,9.094,-704.373,-0.690,-0.585,0.353
-718.526,4.209,-703.945,-0.446,-0.712,0.268
-720.000,4.000,-704.000,-0.420,-0.700,0.280
-721.999,5.301,-702.157,-0.332,-0.700,0.340
-721.435,3.089,-703.215,0.077,-0.652,0.407
-719.365,3.765,-704.049,0.494,-0.645,0.421
-719.798,3.385,-701.216,0.681,-0.743,0.444
-722.348,1.148,-699.275,0.617,-0.640,0.505
-718.752,-0.171,-699.275,0.852,-0.557,0.483
-714.828,0.084,-702.247,1.131,-0.557,0.492
-713.960,2.673,-704.794,1.186,-0.494,0.492
-716.106,7.266,-708.282,1.258,-0.480,0.485
-719.389,8.428,-708.955,1.072,-0.566,0.498
-719.372,7.813,-706.542,0.377,-0.750,0.460
-716.067,7.306,-707.660,-0.019,-0.900,0.369
-713.765,2.298,-707.562,0.115,-1.013,0.253
-716.621,-0.061,-705.734,0.047,-1.044,0.300
-719.000,-1.000,-704.000,0.140,-0.980,0.420
-718.195,-1.360,-703.043,0.749,-0.981,0.423
-716.615,0.926,-702.344,1.104,-0.935,0.418
-715.072,1.495,-702.206,1.188,-0.865,0.417
-718.384,8.762,-706.233,1.520,-0.802,0.445
-723.142,11.074,-705.483,1.381,-0.777,0.508
-720.863,5.184,-699.911,0.691,-0.852,0.475
-716.874,8.381,-699.099,0.504,-0.755,0.416
-717.828,8.362,-700.033,0.826,-0.568,0.355
-720.253,4.858,-698.483,0.546,-0.545,0.336
-723.825,6.326,-696.895,-0.264,-0.619,0.411
-724.666,3.733,-696.989,-0.116,-0.584,0.388
-721.182,2.048,-696.944,0.370,-0.411,0.349
-719.817,4.660,-700.580,0.470,-0.339,0.467
-720.207,3.714,-704.048,1.011,-0.263,0.566
-724.000,5.000,-701.000,1.260,-0.210,0.560
-727.097,8.985,-700.728,0.771,-0.275,0.616
-725.222,5.677,-700.824,0.551,-0.277,0.650
-725.941,1.620,-698.510,0.480,-0.319,0.594
-726.911,0.261,-699.792,-0.016,-0.363,0.731
-725.267,-1.671,-699.271,-0.207,-0.334,0.866
-724.929,-1.881,-697.633,-0.172,-0.256,0.828
-723.894,-0.910,-695.883,-0.681,-0.131,0.761
-723.040,-0.013,-696.741,-1.229,-0.011,0.576
-721.645,-0.152,-699.790,-1.633,0.122,0.435
-718.930,1.793,-699.715,-2.263,0.145,0.374
-720.562,4.108,-700.330,-3.168,0.165,0.336
-724.180,3.586,-698.877,-3.948,0.233,0.350
-723.187,2.617,-700.077,-4.244,0.188,0.230
-720.744,0.781,-704.392,-4.168,0.135,0.139
-720.000,2.000,-704.000,-3.850,0.140,0.210
-720.008,4.837,-703.932,-3.495,0.257,0.277
-718.481,5.435,-703.420,-2.911,0.349,0.277
-712.086,8.425,-702.523,-2.082,0.364,0.338
-706.142,10.681,-703.369,-1.417,0.522,0.529
-705.098,9.382,-704.395,-0.813,0.679,0.686
-709.281,9.125,-708.232,-0.220,0.800,0.897
-714.253,10.083,-715.593,0.319,0.832,1.052
-715.900,11.787,-720.026,0.632,0.584,0.926
-717.685,15.797,-716.881,0.201,0.327,0.692
-717.187,20.390,-714.328,-0.731,0.075,0.399
-713.410,19.997,-712.463,-1.455,-0.318,0.111
-711.349,16.353,-709.897,-1.992,-0.579,-0.058
-712.403,12.546,-708.201,-2.408,-0.628,-0.052
-711.506,6.055,-704.570,-2.415,-0.540,0.003
-707.000,4.000,-706.000,-1.820,-0.420,0.000
-707.384,5.036,-709.810,-0.726,-0.359,0.005
-711.292,6.179,-709.391,0.092,-0.295,-0.055
-712.896,13.902,-708.263,0.355,-0.270,-0.071
-715.382,18.261,-707.079,0.436,-0.305,-0.096
-717.307,18.057,-705.212,0.089,-0.383,-0.150
-716.523,19.137,-705.222,-0.341,-0.416,-0.144
-712.622,17.841,-707.147,-0.345,-0.345,-0.214
-709.050,16.114,-708.013,-0.347,-0.345,-0.151
-711.096,14.415,-707.848,-0.273,-0.410,-0.065
-714.130,12.735,-708.762,0.121,-0.429,-0.089
-716.561,10.421,-707.729,0.771,-0.387,-0.019
-720.598,8.223,-704.817,1.345,-0.332,-0.007
-720.189,8.066,-707.249,1.762,-0.371,0.019
-717.899,7.942,-710.141,2.494,-0.426,0.073
-719.000,8.000,-710.000,2.730,-0.490,0.070
-719.787,9.740,-711.734,2.342,-0.668,0.077
-722.226,9.766,-711.743,2.286,-0.857,-0.026
-722.623,7.918,-709.156,1.864,-1.036,-0.155
-718.290,11.749,-709.643,1.055,-1.198,-0.297
-714.582,13.892,-710.929,0.659,-1.297,-0.488
-711.250,11.756,-708.260,0.207,-1.434,-0.565
-710.025,13.084,-708.158,-0.459,-1.546,-0.560
-710.920,10.441,-709.099,-0.573,-1.607,-0.620
-712.475,5.489,-708.380,-0.471,-1.615,-0.755
-713.968,4.832,-712.191,-0.459,-1.632,-0.738
-713.723,5.297,-711.265,0.197,-1.774,-0.675
-716.727,7.131,-707.639,0.694,-1.823,-0.721
-719.136,9.477,-706.324,0.716,-1.827,-0.682
-717.772,8.724,-702.426,0.948,-1.807,-0.715
-716.000,7.000,-701.000,1.050,-1.680,-0.770
-711.626,5.274,-700.953,1.204,-1.618,-0.702
-709.653,4.549,-702.721,1.667,-1.518,-0.753
-711.399,6.708,-706.783,2.086,-1.373,-0.742
-714.946,9.739,-707.681,2.162,-1.296,-0.694
-717.135,13.036,-704.442,1.893,-1.236,-0.833
-715.714,12.630,-703.048,1.432,-1.181,-0.920
-718.401,11.997,-704.001,1.104,-1.193,-0.987
-722.846,9.424,-702.195,0.925,-1.194,-1.051
-723.108,5.596,-700.865,0.811,-1.127,-0.997
-722.881,9.354,-701.680,1.072,-1.124,-0.930
-722.226,8.388,-701.570,1.305,-1.087,-0.896
-719.257,7.657,-700.147,1.549,-1.026,-0.927
-716.249,10.266,-698.213,1.894,-0.946,-0.880
-716.197,7.520,-695.848,1.884,-0.824,-0.751
-718.000,6.000,-699.000,2.170,-0.700,-0.630
-720.413,3.484,-700.744,2.700,-0.453,-0.505
-724.424,0.390,-694.541,2.591,-0.351,-0.432
-723.257,-5.266,-696.996,2.698,-0.273,-0.434
-719.425,-5.221,-701.105,3.795,0.032,-0.567
-724.827,4.719,-701.538,4.151,0.144,-0.478
-727.322,6.648,-705.616,3.603,0.041,-0.258
-720.609,7.300,-703.803,3.328,-0.077,-0.442
-721.635,10.998,-706.450,2.462,-0.136,-0.625
-723.682,6.680,-711.788,1.742,-0.283,-0.723
-719.753,1.221,-712.385,1.383,-0.599,-0.937
-718.199,2.128,-716.995,0.778,-0.815,-0.985
-714.685,2.914,-716.708,0.895,-1.011,-0.999
-709.487,1.823,-715.146,0.833,-1.270,-1.068
-705.444,3.353,-718.514,0.912,-1.502,-1.137
-704.000,4.000,-719.000,1.400,-1.680,-1.330
-706.635,1.341,-714.095,1.009,-1.862,-1.468
-707.756,0.297,-707.338,0.538,-1.973,-1.422
-709.752,-2.719,-704.062,0.518,-1.877,-1.385
-713.982,-9.454,-700.951,0.787,-1.764,-1.418
-714.688,-11.224,-697.939,0.783,-1.602,-1.360
-713.793,-15.700,-695.067,0.731,-1.328,-1.242
-712.905,-21.003,-690.761,0.995,-0.948,-1.265
-711.145,-13.863,-689.955,1.047,-0.583,-1.267
-710.494,-4.269,-690.661,1.086,-0.245,-1.141
-714.514,-1.581,-693.204,0.682,0.222,-1.107
-720.050,-2.683,-697.349,0.046,0.447,-1.132
-723.040,-0.539,-699.729,-0.395,0.534,-1.096
-725.761,0.944,-701.694,-0.566,0.534,-1.029
-727.088,-0.050,-705.747,-0.486,0.410,-0.972
-728.000,-1.000,-709.000,-0.490,0.420,-0.910
-729.092,-6.376,-708.078,-0.093,0.251,-0.847
-726.939,-5.909,-709.244,0.545,0.036,-0.798
-724.698,0.223,-710.460,1.327,-0.074,-0.684
-725.463,3.445,-708.827,1.683,-0.229,-0.589
-725.869,5.730,-707.343,1.306,-0.441,-0.538
-726.083,5.900,-705.375,1.078,-0.676,-0.481
-725.888,6.036,-701.680,0.653,-0.773,-0.492
-722.371,5.209,-698.991,0.098,-0.774,-0.493
-718.399,1.713,-701.844,-0.073,-0.660,-0.438
-717.402,-0.118,-706.014,-0.020,-0.602,-0.335
-714.654,0.593,-707.783,-0.016,-0.683,-0.195
-709.878,0.960,-710.124,-0.121,-0.697,-0.108
-709.172,-0.735,-712.497,-0.281,-0.710,-0.053
-710.093,-3.370,-714.498,-0.709,-0.788,0.008
-711.000,-6.000,-719.000,-1.190,-0.980,-0.000
-713.530,-11.184,-716.385,-1.867,-1.229,-0.123
-715.942,-14.115,-707.396,-3.125,-1.375,-0.191
-713.708,-14.677,-705.486,-4.029,-1.448,-0.339
-707.794,-20.279,-706.110,-4.167,-1.464,-0.651
-707.756,-19.026,-707.624,-4.537,-1.342,-0.655
-710.174,-11.613,-707.605,-4.958,-1.252,-0.562
-710.101,-8.850,-707.144,-5.049,-1.260,-0.714
-714.540,-5.376,-709.071,-5.356,-1.259,-0.834
-718.716,-0.161,-705.698,-5.794,-1.267,-0.942
-719.285,3.736,-704.752,-6.120,-1.207,-1.123
-721.497,3.060,-703.035,-6.451,-1.213,-1.262
-723.383,1.519,-697.514,-6.957,-1.272,-1.200
-722.459,0.562,-695.663,-6.950,-1.121,-0.983
-720.778,-1.236,-694.955,-5.881,-0.873,-0.817
-720.000,-2.000,-695.000,-4.480,-0.630,-0.630
-721.541,0.972,-692.556,-3.240,-0.329,-0.385
-724.399,7.910,-689.091,-2.441,-0.019,-0.187
-725.911,8.682,-685.061,-2.130,0.273,-0.049
-728.319,8.318,-684.716,-1.878,0.596,0.041
-730.511,8.485,-692.219,-1.381,0.854,0.094
-730.846,5.678,-699.257,-0.687,1.013,0.265
-728.785,9.485,-703.231,-0.261,1.126,0.503
-726.194,13.895,-704.954,-0.085,1.125,0.561
-722.347,14.008,-705.084,0.114,1.015,0.556
-716.784,14.195,-704.210,0.118,0.868,0.564
-715.868,12.521,-703.958,0.043,0.858,0.575
-715.158,7.531,-706.004,0.312,0.938,0.706
-713.756,4.626,-708.833,0.762,0.881,0.901
-714.053,5.090,-711.294,1.092,0.842,1.068
-714.000,5.000,-712.000,1.260,0.840,1.050
-711.715,4.194,-711.211,1.202,0.720,0.865
-706.879,3.055,-709.463,1.214,0.636,0.768
-704.910,3.521,-708.852,1.382,0.626,0.808
-701.855,4.444,-711.704,1.602,0.654,0.860
-702.162,5.395,-715.015,1.771,0.721,0.812
-709.623,6.191,-717.493,1.427,0.677,0.764
-711.923,8.207,-719.056,1.111,0.549,0.687
-710.091,9.127,-718.185,0.942,0.368,0.439
-710.476,7.664,-715.452,0.344,0.118,0.288
-712.227,10.518,-714.541,-0.009,-0.036,0.248
-709.766,9.478,-715.263,0.061,-0.134,0.132
-707.230,8.634,-713.879,0.008,-0.278,0.029
-708.544,12.991,-711.098,-0.332,-0.363,0.008
-711.665,10.172,-708.667,-0.569,-0.346,0.074
-716.000,7.000,-707.000,-0.420,-0.350,-0.070
-716.133,7.919,-706.121,-0.179,-0.357,-0.220
-716.490,7.944,-705.632,0.107,-0.295,-0.054
-717.236,8.586,-708.361,0.482,-0.272,0.058
-716.592,9.123,-713.222,0.962,-0.299,0.079
-716.935,9.134,-713.312,1.270,-0.398,0.049
-715.479,10.130,-711.735,1.336,-0.507,-0.012
-713.936,7.641,-710.910,1.328,-0.567,-0.075
-713.103,3.225,-709.168,1.386,-0.693,-0.077
-711.368,0.746,-706.616,1.592,-0.666,0.049
-710.461,-2.526,-704.696,1.562,-0.518,0.110
-712.020,-2.444,-705.628,1.612,-0.463,0.201
-713.237,-2.397,-705.787,1.849,-0.364,0.161
-714.521,-2.557,-708.237,1.873,-0.252,0.056
-716.056,1.768,-712.365,1.716,-0.210,0.065
-714.000,6.000,-712.000,1.400,-0.280,-0.070
-711.191,8.885,-711.901,0.824,-0.403,-0.139
-710.892,7.260,-711.564,-0.047,-0.520,-0.179
-710.566,3.363,-709.812,-0.611,-0.625,-0.267
-708.994,0.532,-710.680,-0.709,-0.617,-0.284
-709.399,-1.664,-712.212,-0.368,-0.651,-0.257
-711.321,-1.858,-710.148,0.155,-0.595,-0.096
-712.038,0.253,-708.071,0.211,-0.411,-0.002
-712.071,3.782,-711.729,0.575,-0.416,-0.128
-710.382,6.214,-712.352,1.209,-0.428,-0.216
-709.517,10.966,-712.495,1.129,-0.410,-0.159
-710.843,14.565,-715.135,0.737,-0.446,-0.134
-712.601,12.971,-711.975,0.206,-0.560,-0.152
-712.730,11.742,-711.185,-0.464,-0.749,-0.254
-712.017,9.432,-709.259,-0.809,-0.760,-0.353
-713.000,5.000,-704.000,-1.190,-0.700,-0.280
-712.260,1.477,-702.253,-1.542,-0.649,-0.220
-711.475,-1.438,-700.718,-1.200,-0.481,-0.113
-714.439,-1.901,-702.977,-0.465,-0.293,-0.012
-719.686,-0.076,-703.105,-0.088,-0.108,0.021
-722.343,-0.236,-702.403,-0.183,0.048,0.093
-721.809,0.266,-706.752,0.002,0.060,0.051
-722.048,1.046,-705.849,0.048,-0.004,-0.001
-721.230,3.616,-707.625,-0.335,-0.062,-0.000
-716.985,7.887,-710.378,-0.298,-0.189,0.002
-713.993,6.033,-708.384,-0.420,-0.190,-0.039
-714.024,4.481,-710.718,-0.688,-0.075,-0.094
-713.467,2.592,-709.088,-0.492,-0.083,-0.036
-712.746,-0.440,-705.457,-0.053,-0.051,0.019
-711.910,1.326,-707.389,0.597,0.010,0.170
-713.000,1.000,-708.000,1.190,0.140,0.280
-714.965,0.702,-707.805,1.462,0.276,0.271
-714.229,2.759,-710.029,1.417,0.268,0.348
-713.569,3.153,-712.866,1.458,0.340,0.280
-710.943,6.430,-714.785,1.579,0.298,0.139
-706.071,11.484,-716.421,1.325,0.176,0.040
-703.772,10.224,-715.297,0.757,0.121,0.105
-704.002,7.957,-713.057,0.104,-0.009,0.207
-702.220,7.191,-718.423,0.225,-0.067,0.017
-701.862,4.252,-723.032,1.020,-0.168,-0.081
-708.561,5.153,-721.877,1.020,-0.356,-0.016
-712.233,6.318,-722.351,0.699,-0.523,-0.007
-711.374,6.249,-720.254,1.045,-0.737,-0.174
-710.756,8.910,-715.543,0.999,-0.983,-0.402
-709.806,9.911,-711.401,0.329,-1.131,-0.411
-707.000,8.000,-709.000,0.140,-1.120,-0.350
-703.211,5.460,-708.366,0.163,-1.065,-0.290
-703.591,1.524,-705.192,0.025,-0.908,-0.229
-704.360,-2.577,-707.844,0.472,-0.702,-0.162
-706.071,-2.558,-712.353,1.410,-0.544,-0.137
-709.019,-1.693,-709.884,1.807,-0.335,-0.124
-713.020,0.797,-711.562,1.738,-0.194,-0.064
-716.082,3.049,-709.644,1.745,-0.214,-0.150
-715.986,3.833,-708.672,1.378,-0.275,-0.212
-716.783,5.436,-712.348,0.753,-0.383,-0.199
-717.860,1.444,-708.553,0.224,-0.532,-0.267
-720.412,-0.289,-709.309,-0.280,-0.562,-0.272
-717.692,-0.841,-711.221,-0.061,-0.578,-0.325
-715.033,-3.204,-712.909,0.594,-0.650,-0.439
-718.436,0.858,-714.917,0.867,-0.713,-0.320
-718.000,5.000,-713.000,1.120,-0.840,-0.210
-716.271,7.688,-714.766,1.381,-0.962,-0.273
-713.788,8.304,-714.371,1.382,-1.121,-0.282
-711.716,7.466,-713.982,1.161,-1.339,-0.285
-709.036,5.381,-712.331,0.977,-1.420,-0.253
-706.459,-0.187,-709.040,1.005,-1.379,-0.187
-708.415,-3.487,-708.866,1.066,-1.311,-0.122
-706.685,-5.080,-708.066,1.290,-1.177,-0.070
-703.120,-4.213,-712.523,1.844,-0.993,-0.133
-703.503,-0.865,-716.723,2.203,-0.857,-0.199
-705.467,3.331,-717.034,1.699,-0.827,-0.253
-705.722,6.442,-715.974,0.748,-0.875,-0.336
-703.556,5.131,-714.481,0.072,-0.940,-0.528
-699.936,5.467,-717.179,-0.548,-0.996,-0.746
-700.556,5.744,-720.174,-1.026,-1.065,-0.670
-705.000,2.000,-718.000,-1.190,-1.190,-0.490
-705.952,-1.634,-715.805,-1.344,-1.257,-0.481
-707.240,-2.966,-717.904,-0.824,-1.301,-0.544
-709.599,-3.055,-716.196,0.243,-1.387,-0.575
-712.462,-2.016,-714.188,0.771,-1.413,-0.510
-714.316,3.406,-713.314,1.124,-1.526,-0.361
-715.232,7.668,-711.756,1.226,-1.622,-0.270
-716.018,11.386,-710.852,0.800,-1.689,-0.283
-716.822,14.188,-708.138,0.202,-1.813,-0.344
-719.632,7.163,-707.956,-0.843,-1.914,-0.455
-719.497,-0.297,-706.291,-1.857,-2.165,-0.627
-717.706,-4.892,-703.679,-2.006,-2.244,-0.798
-713.498,-10.550,-707.224,-1.443,-2.117,-0.834
-711.094,-13.312,-711.867,-0.799,-2.096,-0.732
-715.816,-10.107,-710.530,-0.269,-2.013,-0.615
-718.000,-4.000,-709.000,0.210,-1.960,-0.560
-717.090,-1.448,-708.494,0.314,-1.962,-0.613
-716.429,3.383,-704.531,-0.099,-1.955,-0.735
-714.201,5.687,-704.847,-0.655,-1.969,-0.825
-711.794,2.302,-705.954,-1.008,-1.934,-0.842
-712.304,4.290,-704.183,-1.297,-1.852,-0.840
-711.297,4.508,-704.362,-1.384,-1.716,-0.840
-707.844,3.068,-709.566,-1.087,-1.605,-0.840
-708.751,4.969,-714.921,-0.656,-1.606,-0.840
-712.927,3.388,-713.393,-0.535,-1.669,-0.839
-715.775,3.852,-712.455,-0.583,-1.686,-0.839
-711.102,5.819,-709.913,-0.244,-1.677,-0.863
-706.812,3.970,-709.317,0.004,-1.670,-0.943
-708.615,2.542,-709.058,0.107,-1.571,-0.859
-708.962,-0.536,-703.297,0.234,-1.454,-0.681
-710.000,-2.000,-703.000,0.700,-1.330,-0.630
-713.361,-2.671,-700.869,1.639,-1.149,-0.516
-717.260,-3.724,-695.696,1.982,-0.933,-0.374
-718.161,-0.663,-694.940,1.937,-0.585,-0.311
-718.062,-0.073,-697.548,2.262,-0.284,-0.226
-721.884,2.873,-701.275,2.721,-0.186,-0.073
-728.324,7.681,-704.751,2.329,-0.132,0.107
-729.835,6.750,-707.091,1.249,-0.226,0.131
-726.224,1.511,-707.878,0.340,-0.472,-0.117
-724.421,-3.667,-710.397,-0.122,-0.660,-0.290
-721.714,-4.053,-712.224,0.481,-0.843,-0.178
-720.962,-8.458,-713.995,0.956,-0.989,-0.132
-721.999,-10.947,-712.191,0.898,-1.121,-0.123
-718.288,-6.845,-708.286,1.134,-1.316,-0.055
-712.158,-7.429,-709.065,1.271,-1.408,-0.077
-710.000,-10.000,-706.000,1.330,-1.470,-0.070
-711.983,-9.390,-705.437,1.207,-1.482,0.050
-709.312,-7.074,-707.771,1.301,-1.367,0.138
-707.174,-7.853,-704.101,1.504,-1.249,0.132
-711.643,-7.069,-705.944,1.176,-1.132,0.156
-714.452,-6.146,-709.712,0.935,-1.142,0.101
-715.198,-6.757,-710.243,0.878,-1.197,-0.023
-717.201,-2.659,-713.219,0.440,-1.272,-0.073
-719.013,-0.962,-713.191,-0.294,-1.459,-0.133
-716.238,-1.143,-711.075,-1.014,-1.530,-0.251
-710.990,-0.799,-711.469,-1.758,-1.623,-0.343
-709.456,-1.434,-712.233,-2.105,-1.739,-0.346
-710.266,-2.934,-710.570,-2.328,-1.750,-0.356
-711.396,-5.898,-705.011,-3.029,-1.736,-0.349
-713.266,-8.408,-699.169,-3.363,-1.577,-0.445
-714.000,-11.000,-694.000,-3.220,-1.330,-0.560
-714.023,-10.323,-691.143,-3.049,-0.975,-0.503
-713.236,-9.041,-690.726,-2.754,-0.549,-0.369
-714.151,-8.262,-693.531,-2.379,-0.120,-0.010
-720.704,-5.417,-700.450,-1.420,0.224,0.216
-725.081,-2.897,-701.602,-0.421,0.285,0.197
-729.070,2.411,-702.539,-0.507,0.383,0.096
-730.823,6.084,-703.987,-0.782,0.412,-0.239
-725.427,5.994,-704.763,-1.138,0.284,-0.542
-722.174,6.176,-706.707,-1.894,0.284,-0.743
-721.786,4.334,-701.598,-2.300,0.228,-0.783
-721.560,0.149,-703.364,-2.425,0.233,-0.788
-717.305,-5.372,-705.510,-1.847,0.313,-0.868
-713.320,-4.927,-703.074,-0.559,0.370,-0.816
-712.804,-0.552,-710.179,0.856,0.424,-0.761
-710.000,2.000,-711.000,2.240,0.420,-0.630
-709.826,12.854,-708.792,2.953,0.366,-0.498
-709.590,23.149,-709.643,3.285,0.276,-0.450
-708.541,23.924,-707.338,3.317,0.337,-0.332
-712.390,24.249,-709.569,2.691,0.298,-0.222
-715.559,20.925,-708.247,2.159,0.186,-0.091
-714.481,13.159,-701.546,1.898,0.220,-0.087
-712.972,6.588,-697.797,1.676,0.293,-0.137
-713.053,1.469,-695.168,2.042,0.602,-0.010
-710.816,-5.627,-695.113,2.888,0.873,0.062
-707.498,-7.707,-700.910,3.740,1.069,0.146
-707.120,-3.359,-707.782,4.779,1.397,0.304
-711.139,-3.063,-710.876,5.285,1.623,0.366
-714.254,2.543,-712.330,4.982,1.671,0.318
-711.391,6.916,-713.143,4.545,1.510,0.101
-709.000,4.000,-716.000,3.920,1.400,-0.070
-708.970,4.293,-722.120,3.357,1.299,-0.129
-709.473,-0.979,-725.856,2.928,0.957,-0.199
-711.726,-5.202,-724.639,2.607,0.615,-0.234
-712.963,-8.564,-720.287,2.657,0.370,-0.373
-708.874,-14.760,-717.224,2.930,0.252,-0.549
-705.617,-13.288,-718.381,3.402,0.190,-0.645
-704.917,-11.925,-718.972,3.640,0.059,-0.622
-703.970,-7.559,-718.112,3.454,-0.062,-0.495
-705.578,-2.217,-715.708,2.942,-0.133,-0.528
-706.534,-2.286,-713.223,1.780,-0.169,-0.691
-708.027,-1.368,-712.118,0.544,-0.321,-0.920
-708.535,-3.484,-709.907,-0.261,-0.459,-1.121
-706.662,-7.183,-710.307,-0.864,-0.382,-1.087
-709.713,-13.056,-709.707,-1.127,-0.263,-0.965
-712.000,-17.000,-709.000,-0.840,-0.140,-0.910
-710.159,-15.938,-711.627,-0.018,-0.071,-0.855
-710.505,-17.233,-713.473,1.030,-0.076,-0.734
-711.678,-13.827,-714.812,1.896,-0.035,-0.651
-711.695,-8.872,-714.440,2.386,0.045,-0.598
-709.966,-7.419,-713.297,2.565,0.049,-0.550
-707.509,-4.183,-710.223,2.576,-0.106,-0.559
-707.053,-3.109,-711.401,2.356,-0.136,-0.481
-708.783,-6.659,-716.808,2.107,-0.132,-0.420
-712.252,-9.820,-716.999,2.154,-0.259,-0.427
-713.627,-9.867,-717.753,2.082,-0.324,-0.401
-711.042,-10.690,-716.874,1.769,-0.398,-0.496
-709.337,-10.684,-715.532,1.635,-0.431,-0.579
-708.852,-9.929,-714.213,1.337,-0.536,-0.551
-709.045,-9.914,-711.868,0.844,-0.633,-0.564
-708.000,-9.000,-713.000,0.560,-0.630,-0.560
-706.057,-9.800,-713.906,0.375,-0.697,-0.555
-706.183,-10.779,-714.175,0.238,-0.652,-0.609
-704.649,-11.348,-713.799,0.203,-0.620,-0.675
-703.512,-9.895,-716.811,0.462,-0.631,-0.716
-704.598,-9.311,-717.627,0.794,-0.643,-0.666
-709.337,-11.247,-718.588,0.719,-0.720,-0.529
-713.044,-9.838,-718.658,0.475,-0.854,-0.495
-711.164,-8.995,-712.251,0.355,-1.042,-0.621
-710.142,-8.900,-714.025,0.334,-1.057,-0.646
-708.628,-10.760,-715.459,0.475,-1.080,-0.576
-707.341,-12.539,-715.449,0.679,-1.170,-0.531
-706.522,-9.244,-717.546,0.876,-1.208,-0.452
-707.785,-7.981,-716.704,1.227,-1.292,-0.415
-708.777,-7.988,-715.781,1.212,-1.423,-0.425
-705.000,-9.000,-714.000,0.770,-1.540,-0.490
-704.660,-10.023,-714.910,0.743,-1.487,-0.500
-707.096,-9.978,-713.623,0.757,-1.407,-0.435
-709.535,-8.798,-712.501,0.123,-1.398,-0.358
-710.063,-5.683,-713.754,-0.684,-1.407,-0.199
-711.851,-8.374,-715.455,-1.108,-1.377,-0.276
-713.107,-5.262,-714.628,-1.650,-1.333,-0.444
-714.135,1.162,-713.982,-2.841,-1.486,-0.496
-714.911,0.057,-710.453,-4.593,-1.668,-0.619
-719.281,-0.167,-706.882,-7.098,-1.844,-0.787
-722.014,-7.833,-705.392,-9.301,-1.980,-1.039
-713.687,-16.824,-700.787,-10.334,-1.857,-1.187
-713.588,-23.763,-704.550,-10.942,-1.668,-1.159
-708.969,-33.526,-698.971,-10.569,-1.472,-0.984
-708.431,-34.635,-706.204,-8.750,-1.221,-0.826
-706.000,-32.000,-710.000,-6.230,-0.980,-0.700
-709.865,-26.509,-709.163,-4.001,-0.790,-0.335
-716.142,-15.258,-717.768,-2.134,-0.674,-0.098
-707.928,-6.517,-711.718,-0.374,-0.523,0.003
-717.609,-1.346,-719.497,0.210,-0.528,0.142
-711.467,4.025,-709.628,0.102,-0.678,0.256
-718.782,5.811,-713.506,-0.089,-0.706,0.370
-710.500,2.736,-705.394,-0.920,-0.857,0.426
-711.257,-1.472,-702.485,-1.725,-0.982,0.551
-719.644,-11.433,-711.151,-1.588,-0.915,0.580
-706.979,-18.994,-698.327,-1.149,-0.927,0.499
-725.254,-17.590,-714.220,-0.872,-0.793,0.491
-703.846,-16.928,-695.179,-0.660,-0.495,0.498
-724.444,-13.010,-718.506,-0.915,-0.305,0.603
-704.160,-6.345,-704.057,-0.824,-0.196,0.708
-711.000,-6.000,-713.000,-1.330,-0.140,0.700
-717.960,-2.960,-722.833,-1.725,-0.193,0.696
-684.660,0.921,-695.780,-1.691,-0.313,0.714
-742.290,-4.839,-748.984,-2.608,-0.436,0.621
-657.438,-10.149,-657.371,-2.579,-0.511,0.516
-785.040,-10.868,-782.261,-3.805,-0.304,0.455
-589.818,-6.379,-587.248,-3.260,-0.028,0.210
