acc_x[mg],acc_y[mg],acc_z[mg],gyro_x[dps],gyro_y[dps],gyro_z[dps]
-51.000,41.000,-981.000,1.540,0.280,0.630
-55.335,57.124,-1032.509,-0.933,0.408,0.897
-46.821,51.300,-946.980,-4.428,0.591,0.999
-49.974,30.984,-1040.854,-6.466,0.940,1.173
-48.379,6.542,-957.074,-6.755,1.149,1.381
-50.339,2.557,-1019.199,-4.418,1.308,1.637
-42.197,9.185,-987.369,-1.330,1.216,1.742
-31.449,25.597,-1018.923,1.273,1.125,1.438
-32.234,45.747,-1017.990,2.000,1.312,1.249
-45.174,55.300,-1007.243,0.928,1.590,1.464
-44.491,47.243,-1031.520,-0.133,2.002,1.296
-40.010,31.315,-1003.594,-0.528,2.075,1.109
-49.577,21.265,-1029.218,-0.475,1.668,0.914
-47.798,17.315,-1010.123,0.180,1.217,0.382
-38.591,17.087,-1013.445,0.635,1.236,-0.249
-29.000,19.000,-1006.000,0.350,1.680,-0.980
-26.196,20.475,-1002.288,0.271,1.828,-1.155
-33.459,15.409,-1010.386,0.486,1.730,-0.885
-34.964,20.750,-1006.708,1.446,1.496,-0.832
-30.054,35.338,-1024.387,2.056,1.146,-0.792
-25.719,42.270,-1019.132,1.582,0.883,-0.492
-27.025,49.245,-1026.003,0.714,0.539,-0.254
-35.805,42.765,-1018.870,-0.982,0.192,-0.285
-42.929,22.535,-1016.343,-2.272,0.134,-0.401
-37.620,6.108,-1019.741,-2.027,0.248,-0.802
-25.823,5.348,-1012.469,-0.390,0.443,-1.152
-18.166,22.766,-1004.997,1.181,0.710,-1.153
-20.441,35.422,-986.965,1.074,0.570,-0.678
-30.054,41.595,-985.665,-0.003,0.146,0.165
-36.633,41.348,-995.797,-0.955,-0.374,0.517
-39.000,37.000,-1010.000,-1.400,-0.980,0.770
-38.556,34.854,-1021.665,-1.528,-1.241,0.818
-33.339,26.771,-1027.697,-1.724,-1.341,0.443
-32.196,17.977,-1020.746,-2.397,-1.131,0.138
-34.456,6.362,-1016.635,-2.337,-0.727,-0.338
-25.730,0.180,-1018.391,-0.664,-0.911,-0.655
-23.091,4.303,-1014.026,0.831,-1.229,-0.884
-32.567,9.276,-1030.843,1.824,-1.181,-0.825
-32.448,10.060,-1045.903,2.673,-1.062,-0.761
-25.703,13.392,-1041.496,3.561,-0.827,-0.846
-17.323,26.434,-1034.343,4.927,-0.763,-0.869
-12.018,31.948,-1021.909,5.878,-1.315,-0.827
-26.848,32.273,-1021.554,6.178,-2.131,-0.382
-53.285,35.796,-1034.065,6.059,-2.849,-0.597
-61.994,46.763,-1031.579,4.888,-3.178,-0.417
-61.000,47.000,-1018.000,1.960,-3.360,-0.280
-67.888,30.553,-994.003,-1.450,-3.394,-0.213
-69.446,14.843,-977.368,-3.615,-3.128,-0.105
-49.734,11.193,-983.367,-3.235,-3.025,-0.844
-15.734,31.356,-983.652,-0.123,-2.787,-0.577
-2.306,29.635,-991.401,2.409,-2.607,-1.060
-25.648,50.341,-1008.935,4.904,-2.158,0.067
-49.338,92.035,-1010.761,7.522,-1.925,-0.675
-29.049,68.719,-1005.651,6.862,-2.827,-2.886
-33.213,48.948,-995.906,5.353,-2.385,2.119
-83.738,30.087,-1000.997,4.949,-1.779,2.014
-55.774,2.550,-1011.235,5.547,-3.032,-2.362
-13.704,-1.029,-1003.727,6.226,-2.987,0.160
-40.294,-15.124,-1008.402,5.178,-2.339,2.022
-47.868,-17.831,-1019.044,4.323,-3.160,0.274
-47.000,-7.000,-1021.000,2.800,-3.430,-1.610
-65.953,-4.460,-1010.999,-1.703,-3.037,-1.847
-81.580,-29.924,-991.410,-7.701,-2.914,-2.045
-74.365,-75.658,-986.375,-12.469,-2.282,-2.436
-37.434,-101.709,-985.166,-13.160,-1.294,-2.124
-16.534,-103.867,-978.094,-10.659,-0.479,-1.975
-26.317,-77.693,-974.672,-8.189,0.105,-1.816
-35.208,-38.039,-976.207,-6.558,0.362,-2.124
-34.878,-1.641,-977.891,-6.184,0.484,-1.996
-42.717,27.492,-984.310,-7.474,0.459,-1.603
-55.253,42.433,-1003.073,-9.372,0.214,-1.212
-55.157,55.188,-1018.722,-10.834,-0.217,-0.683
-44.047,65.908,-1037.233,-11.898,-0.678,-0.484
-34.180,65.764,-1049.135,-13.284,-0.725,-0.331
-35.184,57.525,-1042.800,-14.427,-0.355,-0.630
-26.000,47.000,-1035.000,-13.440,-0.070,-0.980
-15.115,30.703,-1016.747,-10.267,-0.116,-1.063
-31.990,22.348,-1008.198,-5.692,-0.311,-0.819
-50.285,50.581,-1007.497,0.433,-0.893,-0.444
-59.979,86.901,-999.587,4.483,-2.042,0.272
-66.920,87.823,-1018.798,2.640,-2.562,1.491
-69.677,63.746,-1039.687,-0.876,-2.014,1.897
-68.225,38.177,-1023.993,-3.037,-1.677,1.899
-42.814,15.677,-1001.972,-5.387,-1.687,1.913
-8.610,-3.904,-997.917,-5.694,-1.543,1.349
7.106,-10.097,-1005.225,-2.932,-1.731,0.774
-0.905,3.237,-1019.437,0.425,-2.074,0.446
-25.648,24.730,-1038.888,3.451,-2.062,0.354
-34.636,39.928,-1053.198,5.934,-2.041,0.556
-21.635,54.744,-1057.010,7.623,-2.115,0.527
-15.000,72.000,-1053.000,8.260,-2.380,0.210
-32.214,76.193,-1046.547,7.500,-3.095,-0.034
-48.667,76.373,-1044.947,5.860,-3.756,-0.318
-32.943,75.342,-1035.757,4.114,-3.868,-0.578
-19.311,59.833,-1008.050,2.291,-3.643,-0.377
-37.566,34.416,-976.337,0.607,-3.427,0.268
-58.176,5.972,-955.436,-0.105,-3.242,0.781
-58.357,-7.155,-947.688,0.746,-2.991,0.914
-47.629,-1.706,-945.018,2.300,-2.866,0.975
-44.188,11.111,-951.219,2.369,-3.038,0.914
-39.601,37.408,-971.196,0.741,-3.060,0.466
-28.039,58.415,-992.979,-1.933,-2.671,0.100
-27.371,54.698,-1011.468,-5.710,-2.279,0.091
-32.268,38.079,-1016.757,-8.244,-1.770,0.177
-35.441,14.013,-1012.487,-7.807,-1.095,0.491
-35.000,-6.000,-1012.000,-4.760,-0.630,1.050
-27.874,-4.872,-1012.713,0.733,-0.359,1.597
-27.886,11.501,-1016.625,6.397,-0.580,2.150
-42.061,35.059,-1026.430,9.584,-1.255,2.556
-55.831,62.944,-1039.618,9.685,-1.817,2.504
-51.232,80.057,-1044.401,7.058,-2.251,2.172
-43.289,71.630,-1043.567,2.772,-2.355,1.804
-48.707,41.309,-1034.753,-1.859,-1.995,1.443
-55.853,9.834,-1014.462,-4.429,-1.566,1.081
-50.832,-5.102,-999.602,-3.725,-1.379,0.694
-39.970,-3.703,-990.108,-1.696,-1.648,0.546
-41.107,8.411,-995.853,0.326,-2.032,0.593
-43.168,24.375,-1011.199,2.011,-2.092,0.712
-45.807,39.317,-1016.935,2.384,-1.985,1.134
-55.506,45.789,-1019.112,1.429,-1.689,1.502
-65.000,33.000,-1016.000,0.560,-1.260,1.540
-75.283,18.143,-1012.342,0.712,-0.891,1.431
-72.757,14.308,-1008.764,1.988,-0.613,1.187
-65.928,15.215,-1003.141,3.598,-0.458,1.032
-62.806,26.598,-995.983,4.344,-0.146,0.855
-52.800,43.004,-977.879,4.673,0.299,0.501
-47.746,53.705,-960.894,4.571,0.516,0.445
-50.377,54.720,-952.624,3.471,0.564,0.646
-59.080,47.703,-953.435,2.494,0.685,0.886
-69.234,38.578,-964.723,2.224,0.921,1.250
-66.694,35.368,-978.760,2.404,1.173,1.507
-57.764,35.252,-990.022,2.250,1.350,1.516
-56.737,26.639,-994.144,1.198,1.220,1.216
-61.594,26.444,-1003.247,0.259,0.725,0.669
-63.788,29.958,-1024.630,-0.489,-0.068,0.221
-54.000,28.000,-1045.000,-1.610,-0.840,-0.140
-36.702,24.727,-1054.501,-2.557,-0.840,-0.398
-34.472,8.612,-1054.465,-2.970,-0.326,-0.511
-43.125,-0.264,-1046.073,-2.539,-0.085,-0.722
-48.436,0.131,-1029.020,-1.598,-0.094,-0.955
-52.417,1.328,-1013.364,-0.794,-0.358,-1.093
-55.994,12.217,-999.905,0.455,-1.016,-1.106
-61.282,28.354,-993.043,1.106,-1.724,-0.969
-56.974,45.844,-999.466,0.225,-2.028,-0.908
-43.175,56.629,-1001.140,-0.745,-1.888,-0.925
-38.540,60.408,-994.513,-2.095,-1.524,-0.786
-40.713,56.224,-987.899,-3.793,-0.959,-0.560
-48.597,43.164,-981.937,-4.338,-0.406,-0.258
-58.051,27.610,-972.456,-3.539,-0.161,0.231
-57.458,22.223,-963.308,-1.518,-0.064,0.691
-55.000,29.000,-969.000,0.910,-0.210,0.980
-54.102,38.332,-984.788,2.434,-0.530,0.998
-55.496,47.948,-994.408,2.096,-0.586,0.903
-59.696,46.658,-993.474,0.259,-0.485,0.962
-55.626,37.657,-989.622,-1.265,-0.321,0.978
-51.561,22.269,-985.295,-1.871,-0.170,0.974
-54.507,11.137,-985.613,-1.281,-0.253,0.760
-49.166,17.812,-989.248,0.178,-0.509,0.401
-37.663,29.823,-994.271,1.322,-0.631,0.344
-33.635,47.001,-1009.702,2.263,-0.578,0.454
-38.177,51.289,-1034.740,2.123,-0.400,0.629
-49.765,42.388,-1051.877,1.002,0.237,0.823
-58.589,35.973,-1042.826,1.084,0.855,1.157
-53.146,27.581,-1026.595,2.200,0.992,1.457
-46.769,23.580,-1014.014,3.596,0.963,1.363
-51.000,21.000,-1004.000,5.250,0.630,1.050
-54.829,29.523,-1002.151,6.807,0.136,0.844
-55.243,42.792,-1002.245,7.556,-0.250,0.899
-52.441,43.410,-1010.618,6.869,-0.495,0.845
-44.797,42.326,-1012.793,5.381,-0.384,0.727
-44.271,32.736,-1002.505,3.693,-0.114,0.825
-51.594,16.400,-992.989,2.467,0.015,0.913
-52.712,3.106,-990.322,2.338,-0.007,0.748
-45.622,-3.946,-999.376,3.192,-0.191,0.498
-40.117,0.171,-1002.719,4.520,-0.405,0.579
-42.327,7.936,-1007.299,5.113,-0.297,0.756
-45.387,10.295,-1014.183,4.692,0.172,0.724
-44.350,3.054,-1012.631,3.931,0.564,0.531
-46.013,0.366,-1011.799,3.766,0.601,0.398
-47.816,3.252,-1012.552,4.167,0.282,0.330
-43.000,4.000,-1022.000,3.780,-0.210,0.140
-43.139,5.252,-1027.492,2.759,-0.534,0.128
-47.115,1.820,-1020.756,1.585,-0.626,0.154
-39.939,0.474,-1011.162,0.346,-0.626,0.133
-38.336,-5.508,-1003.418,-0.644,-0.668,0.091
-49.204,-11.944,-1003.149,-1.290,-0.858,-0.181
-51.199,-4.724,-1001.212,-0.949,-1.105,-0.278
-42.050,4.798,-1002.484,-0.256,-1.265,-0.284
-29.591,17.162,-1010.527,-0.628,-1.202,-0.287
-34.092,20.426,-1013.215,-1.745,-1.066,-0.161
-57.192,14.736,-1010.228,-2.963,-1.010,-0.095
-59.633,17.232,-1003.494,-3.764,-0.945,-0.040
-47.161,14.001,-999.689,-3.799,-1.063,-0.143
-50.424,8.562,-998.665,-3.696,-1.216,-0.338
-53.478,16.847,-999.304,-3.612,-1.179,-0.512
-44.000,25.000,-1002.000,-3.360,-1.120,-0.490
-38.031,23.406,-1008.389,-3.336,-1.062,-0.297
-40.019,22.188,-1017.545,-3.489,-0.960,-0.238
-42.633,20.057,-1013.417,-3.456,-0.755,-0.112
-42.559,16.538,-1004.204,-3.427,-0.497,-0.082
-42.692,17.609,-997.272,-3.210,-0.440,-0.185
-50.109,16.489,-997.302,-2.472,-0.704,-0.425
-53.778,18.557,-1008.892,-1.768,-0.918,-0.712
-45.723,30.007,-1015.734,-0.971,-0.975,-0.706
-38.803,41.749,-1018.200,-0.645,-1.000,-0.647
-37.485,48.351,-1012.670,-1.576,-0.872,-0.540
-44.207,38.119,-1005.680,-2.625,-0.862,-0.419
-53.772,16.544,-1011.302,-2.954,-0.929,-0.291
-53.908,10.063,-1013.213,-1.790,-0.895,-0.318
-48.254,13.333,-1005.617,-0.066,-0.825,-0.420
-47.000,16.000,-1000.000,0.910,-0.700,-0.350
-44.422,30.027,-1006.469,2.014,-0.582,-0.474
-33.469,46.570,-1011.466,2.472,-0.437,-0.384
-37.846,49.025,-1005.240,1.579,-0.479,-0.069
-56.870,41.131,-1007.411,0.364,-0.628,0.032
-59.433,33.700,-1008.959,0.024,-0.599,0.109
-49.672,28.498,-1002.815,0.666,-0.444,0.238
-42.683,19.331,-1003.177,1.393,-0.188,0.277
-41.063,16.753,-1001.524,2.609,0.113,0.270
-39.270,19.357,-992.852,4.098,0.526,0.549
-42.110,16.476,-987.031,4.758,0.912,0.807
-51.508,16.856,-989.143,4.992,0.965,0.878
-49.453,19.234,-999.124,5.693,0.682,0.900
-45.733,27.605,-1011.734,5.938,0.307,0.683
-45.698,39.230,-1022.417,4.624,-0.056,0.473
-43.000,37.000,-1028.000,2.730,-0.350,0.490
-47.094,16.924,-1025.956,1.040,-0.367,0.558
-50.848,-4.710,-1016.404,0.462,-0.240,0.554
-49.890,-10.460,-1001.459,1.854,-0.186,0.607
-40.357,-11.115,-996.095,4.051,-0.260,0.599
-26.901,-1.200,-1004.604,5.668,-0.242,0.417
-28.733,14.663,-1007.313,5.712,-0.010,0.352
-36.389,16.810,-999.281,3.866,0.228,0.429
-38.856,10.873,-991.438,1.052,0.474,0.611
-42.511,-5.135,-988.628,-1.093,0.569,0.822
-49.641,-16.019,-991.615,-1.440,0.540,0.776
-54.196,-14.025,-993.838,-0.917,0.611,0.579
-55.165,-9.615,-1000.295,-0.375,0.631,0.401
-50.425,-1.182,-1017.406,-0.052,0.782,0.115
-39.821,5.819,-1026.246,-0.826,1.181,-0.085
-42.000,10.000,-1022.000,-2.380,1.400,-0.140
-44.135,11.954,-1015.843,-3.923,1.298,-0.312
-35.627,11.403,-1011.974,-4.923,0.969,-0.593
-38.630,11.000,-1013.338,-5.093,0.542,-0.966
-44.709,17.832,-1012.446,-5.182,0.134,-1.216
-50.888,26.241,-1009.022,-5.241,-0.137,-1.117
-52.888,25.453,-1010.085,-5.179,-0.007,-0.841
-40.045,25.009,-1004.202,-5.253,0.300,-0.537
-38.387,21.536,-993.642,-5.131,0.482,-0.292
-45.724,16.101,-987.710,-4.714,0.506,-0.254
-43.088,18.308,-986.261,-3.786,0.435,-0.393
-38.632,23.131,-987.773,-2.816,0.375,-0.377
-38.474,30.826,-991.522,-2.304,0.191,-0.198
-40.343,35.727,-1008.478,-1.698,0.309,-0.144
-38.621,36.170,-1025.524,-1.493,0.862,-0.222
-40.000,40.000,-1023.000,-1.890,1.400,-0.140
-49.289,43.275,-1005.153,-2.262,1.789,0.284
-58.964,36.508,-990.200,-2.415,1.782,0.519
-54.381,27.925,-996.817,-1.642,1.327,0.351
-29.402,33.947,-1010.801,0.050,0.767,0.254
-19.000,42.293,-1020.134,1.331,0.475,0.322
-33.936,44.130,-1027.268,1.171,0.207,0.561
-43.242,40.277,-1031.269,0.298,-0.004,0.857
-43.136,24.445,-1032.296,0.121,0.064,0.977
-41.168,9.036,-1023.207,0.547,0.118,0.989
-41.913,4.330,-1008.469,1.427,0.250,0.903
-38.269,7.924,-994.858,2.575,0.248,0.725
-24.889,12.866,-990.064,3.038,0.248,0.562
-25.586,14.333,-990.711,2.846,0.496,0.466
-38.798,17.838,-987.727,2.353,0.550,0.417
-44.000,24.000,-992.000,1.680,0.420,0.490
-42.309,27.595,-1002.284,1.405,0.246,0.675
-42.547,31.404,-1014.132,1.299,-0.073,0.807
-48.286,34.692,-1026.196,0.885,-0.507,0.900
-49.374,29.244,-1038.601,0.805,-0.682,0.883
-43.452,28.097,-1046.094,1.075,-0.725,0.830
-37.786,33.922,-1038.078,1.106,-0.769,0.839
-31.402,31.572,-1027.480,1.049,-0.778,0.760
-23.435,26.328,-1023.349,1.109,-0.968,0.577
-23.859,22.619,-1015.627,1.292,-0.988,0.373
-35.712,20.730,-1004.400,1.366,-1.106,0.378
-43.588,17.656,-1001.328,1.248,-1.505,0.429
-39.971,13.457,-1006.460,1.137,-1.611,0.262
-30.245,12.874,-1009.050,0.862,-1.493,0.225
-29.853,9.038,-1004.896,0.223,-1.196,0.280
-37.000,1.000,-994.000,-0.840,-0.700,0.210
-41.144,-9.435,-982.334,-1.706,-0.373,0.150
-46.893,-15.675,-975.479,-1.527,-0.292,0.048
-40.695,-9.695,-972.464,-0.907,-0.244,-0.123
-24.439,0.210,-981.763,-0.509,-0.155,-0.302
-18.641,9.992,-999.063,-0.334,-0.016,-0.328
-28.420,21.702,-1008.516,-0.928,0.096,-0.181
-42.661,30.414,-1016.738,-2.281,0.301,-0.221
-39.844,31.237,-1021.333,-3.559,0.549,-0.346
-32.285,26.926,-1010.795,-4.380,0.582,-0.352
-41.138,24.566,-1003.695,-4.452,0.378,-0.349
-44.877,27.132,-1008.757,-3.488,-0.116,-0.372
-30.484,32.752,-1016.728,-1.926,-0.457,-0.454
-23.803,38.998,-1027.126,-0.820,-0.478,-0.369
-27.539,46.021,-1031.948,-0.838,-0.305,-0.188
-30.000,48.000,-1024.000,-1.540,0.070,-0.070
-32.841,38.886,-1006.828,-2.186,0.270,0.004
-32.697,27.700,-991.001,-2.128,0.295,-0.065
-35.775,19.965,-984.557,-1.025,0.178,0.000
-39.019,18.774,-987.491,0.669,-0.063,0.118
-36.953,31.120,-999.083,2.328,-0.306,0.168
-34.305,47.133,-1012.634,2.804,-0.530,0.316
-30.790,52.922,-1018.038,1.302,-0.554,0.428
-31.640,43.332,-1014.431,-0.970,-0.371,0.551
-37.210,22.882,-1010.291,-2.208,-0.065,0.579
-36.581,4.381,-1009.419,-1.665,0.154,0.497
-30.611,-2.304,-1007.205,0.243,0.315,0.500
-33.115,7.256,-1004.622,2.617,0.484,0.450
-32.481,25.958,-1000.286,4.012,0.465,0.301
-26.646,41.891,-997.010,3.548,0.320,0.206
-30.000,48.000,-1003.000,2.240,0.000,0.280
-30.517,47.405,-1014.328,0.892,-0.331,0.403
-27.336,41.225,-1022.307,-0.114,-0.276,0.556
-28.968,24.132,-1021.564,-0.423,-0.096,0.814
-44.240,5.914,-1018.043,-0.023,-0.068,0.960
-61.305,-2.939,-1016.356,1.462,-0.077,0.812
-49.891,2.513,-1015.821,3.321,-0.171,0.381
-26.642,15.945,-1013.755,4.219,-0.285,0.057
-20.625,25.395,-1011.076,3.783,-0.282,0.003
-30.443,32.246,-1011.613,2.712,-0.276,-0.059
-36.998,31.131,-1012.854,1.469,-0.261,-0.047
-33.140,21.701,-1010.817,0.103,-0.063,0.104
-35.465,11.367,-1003.226,-0.335,0.114,0.286
-40.763,4.603,-1005.656,-0.147,-0.098,0.206
-37.254,2.750,-1020.184,0.333,-0.386,-0.200
-37.000,1.000,-1030.000,1.330,-0.630,-0.350
-40.991,6.431,-1036.358,1.633,-0.887,-0.280
-37.594,15.113,-1035.773,1.430,-0.963,-0.329
-34.478,15.181,-1022.928,0.822,-1.034,-0.388
-35.788,12.658,-1005.241,-0.639,-1.039,-0.464
-36.003,7.157,-991.279,-1.807,-1.095,-0.486
-35.553,-1.887,-985.385,-1.998,-1.191,-0.511
-26.951,-4.926,-989.773,-1.485,-1.035,-0.719
-13.631,-2.193,-1004.664,-0.748,-0.917,-0.903
-13.121,-0.494,-1020.420,-0.318,-0.720,-0.919
-23.432,2.791,-1026.004,-0.328,-0.260,-0.871
-35.187,3.370,-1015.341,-1.015,0.193,-0.751
-45.000,-3.503,-995.566,-2.221,0.400,-0.518
-47.828,-7.732,-984.567,-2.519,0.151,-0.429
-40.167,-6.042,-993.218,-1.562,-0.444,-0.686
-27.000,12.000,-1005.000,-0.560,-0.840,-1.050
-24.873,39.156,-1008.486,-1.169,-0.746,-1.195
-33.646,47.870,-1010.475,-3.706,-0.360,-1.058
-33.104,41.881,-1000.747,-6.116,0.123,-0.797
-28.021,26.717,-991.003,-7.415,0.347,-0.639
-32.734,11.422,-991.441,-7.164,0.194,-0.636
-37.246,11.459,-993.867,-5.309,-0.055,-0.625
-32.372,25.443,-1001.712,-3.215,-0.216,-0.632
-24.373,45.633,-1007.842,-1.866,-0.214,-0.574
-26.319,56.680,-1008.609,-2.066,-0.156,-0.290
-40.140,53.833,-1011.563,-3.226,-0.060,0.036
-44.291,46.378,-1011.884,-3.794,0.113,0.273
-36.125,40.621,-1000.333,-3.310,0.270,0.391
-34.204,37.560,-989.802,-2.356,0.247,0.419
-33.657,42.384,-987.978,-1.191,0.031,0.331
-33.000,52.000,-990.000,0.280,-0.210,0.280
-37.570,55.632,-999.947,1.077,-0.347,0.454
-35.610,59.561,-1011.897,1.306,-0.271,0.689
-26.599,61.607,-1013.970,1.523,-0.044,0.981
-24.259,53.334,-1005.641,1.054,0.201,1.245
-33.297,39.459,-998.859,0.678,0.448,1.360
-40.636,26.348,-993.342,1.564,0.670,1.412
-35.242,21.083,-987.920,3.136,0.695,1.474
-24.697,29.922,-993.291,4.720,0.631,1.475
-19.589,41.780,-1002.106,5.748,0.634,1.405
-25.761,43.072,-1010.502,5.464,0.615,1.433
-35.495,39.394,-1017.941,4.208,0.697,1.560
-35.506,29.179,-1020.025,3.012,0.826,1.792
-27.062,14.869,-1016.020,2.521,0.948,1.886
-20.588,4.740,-1007.701,2.630,0.965,1.712
-24.000,0.000,-1001.000,3.080,0.700,1.400
-28.275,1.534,-1001.730,3.708,0.277,1.083
-22.424,5.677,-1013.879,3.914,-0.052,0.939
-17.248,14.683,-1024.034,3.502,0.037,0.874
-20.459,18.371,-1026.279,2.369,0.194,1.015
-26.487,12.481,-1022.853,0.846,0.057,1.124
-33.351,8.207,-1020.242,0.038,-0.318,0.914
-32.513,4.789,-1026.460,-0.064,-0.800,0.606
-26.918,4.790,-1025.516,0.181,-0.979,0.361
-35.391,8.766,-1020.191,0.517,-0.981,0.291
-39.244,15.115,-1019.510,0.677,-0.944,0.226
-27.041,22.159,-1012.680,0.915,-0.884,0.218
-27.750,27.103,-1004.648,0.515,-0.946,0.158
-33.386,30.952,-1001.219,-0.631,-0.992,0.070
-26.831,30.522,-999.815,-1.322,-1.058,0.238
-27.000,25.000,-998.000,-1.470,-0.980,0.280
-37.687,21.054,-997.644,-1.033,-0.836,0.270
-40.971,22.433,-1000.438,-0.208,-0.986,0.337
-37.967,23.505,-1001.817,0.424,-1.143,0.389
-38.637,25.923,-1008.652,1.258,-1.286,0.420
-36.559,32.912,-1022.415,1.921,-1.600,0.299
-31.954,39.175,-1035.594,1.808,-1.871,0.296
-26.546,40.855,-1040.991,1.285,-2.041,0.352
-23.832,34.657,-1035.651,0.733,-2.162,0.411
-27.599,27.865,-1026.421,0.532,-2.278,0.497
-27.417,23.793,-1014.854,0.832,-2.437,0.428
-32.559,15.654,-1007.355,1.489,-2.679,0.460
-40.385,13.843,-1009.433,2.433,-2.837,0.475
-35.739,21.386,-1010.793,3.543,-2.638,0.408
-30.443,25.337,-1008.568,3.971,-2.340,0.422
-26.000,28.000,-1003.000,3.220,-2.030,0.420
-22.107,25.540,-989.417,2.227,-1.544,0.533
-22.257,12.695,-975.743,1.498,-1.176,0.676
-21.356,3.253,-968.898,1.177,-1.063,0.762
-28.662,-4.812,-968.544,1.764,-1.032,0.971
-42.731,-11.083,-977.086,2.883,-0.923,1.171
-42.161,-3.266,-989.787,3.704,-0.722,1.073
-30.156,6.470,-1000.815,3.748,-0.549,0.905
-24.146,9.825,-1011.231,2.828,-0.430,0.912
-22.099,11.258,-1020.354,1.568,-0.258,0.763
-15.769,7.702,-1024.113,0.747,-0.062,0.552
-15.781,0.347,-1018.148,0.408,0.105,0.670
-27.817,-4.572,-1011.344,0.765,0.280,0.789
-29.818,-2.832,-1009.766,1.825,0.237,0.648
-24.709,1.632,-1011.684,2.668,0.040,0.547
-28.000,7.000,-1019.000,2.660,-0.210,0.350
-31.015,17.419,-1025.239,2.029,-0.584,0.093
-27.734,23.477,-1030.089,0.881,-0.727,-0.060
-17.721,19.269,-1028.524,-0.674,-0.578,-0.350
-16.393,11.973,-1013.358,-1.923,-0.421,-0.382
-25.126,3.862,-997.983,-2.357,-0.459,-0.250
-26.844,-1.847,-994.034,-1.608,-0.582,-0.291
-28.298,-1.755,-997.261,-0.102,-0.634,-0.278
-31.918,6.871,-998.937,0.694,-0.695,-0.280
-29.432,23.706,-1001.099,0.199,-0.753,-0.272
-23.605,31.746,-1004.193,-1.237,-0.831,-0.395
-25.206,29.318,-1006.327,-2.868,-0.806,-0.630
-32.065,31.531,-1010.445,-4.044,-0.773,-0.713
-38.023,28.902,-1006.928,-4.679,-0.877,-0.550
-44.599,19.920,-1004.467,-4.431,-1.004,-0.240
-40.000,18.000,-1011.000,-3.010,-1.190,-0.140
-32.936,18.829,-1013.535,-1.426,-1.159,-0.085
-36.319,21.572,-1018.755,-0.801,-0.821,-0.046
-35.995,24.865,-1016.852,-0.816,-0.438,-0.130
-34.699,21.293,-1003.138,-1.090,-0.126,-0.132
-32.662,16.366,-993.912,-1.429,0.059,-0.146
-31.682,11.706,-988.000,-1.209,0.152,-0.017
-38.377,6.823,-990.535,-0.344,0.138,0.222
-36.421,8.696,-996.715,0.513,0.197,0.278
-35.093,10.419,-1001.710,0.959,0.469,0.340
-36.480,8.661,-1012.162,1.456,0.929,0.288
-29.943,10.681,-1010.740,1.889,1.344,0.101
-34.957,12.560,-1003.749,1.617,1.362,0.066
-36.336,13.084,-1007.453,1.277,1.220,-0.060
-27.211,11.608,-1007.593,1.348,1.101,-0.222
-32.000,11.000,-1006.000,1.400,0.980,-0.210
-35.702,17.607,-1008.279,1.470,0.705,-0.207
-27.353,26.547,-1016.197,1.204,0.149,-0.246
-17.677,33.093,-1027.406,0.331,-0.225,-0.407
-17.807,32.994,-1029.771,-0.741,-0.539,-0.513
-25.492,27.422,-1026.120,-2.046,-0.866,-0.332
-22.035,17.146,-1020.664,-2.664,-0.907,-0.195
-13.599,5.291,-1016.793,-1.705,-0.907,-0.131
-13.667,0.171,-1013.314,-0.056,-0.723,0.055
-19.048,0.008,-1011.550,1.493,-0.504,0.192
-20.220,7.808,-1011.991,2.738,-0.489,0.264
-17.506,17.136,-1005.024,3.037,-0.526,0.248
-19.105,22.570,-1006.002,2.175,-0.753,0.011
-20.239,28.179,-1010.189,1.193,-0.963,-0.160
-23.808,25.084,-1007.820,0.166,-1.151,-0.044
-26.000,23.000,-1008.000,-1.050,-1.260,-0.000
-20.772,25.316,-1001.822,-1.807,-1.407,-0.237
-17.930,20.863,-1004.365,-2.225,-1.945,-0.452
-20.002,21.909,-1021.411,-1.919,-2.303,-0.574
-27.064,28.428,-1035.390,-0.882,-2.510,-0.651
-30.665,34.712,-1043.386,-0.166,-2.865,-0.447
-34.642,40.541,-1047.361,-0.327,-3.012,-0.155
-44.774,31.738,-1040.906,-1.111,-2.853,0.012
-52.585,13.299,-1020.649,-1.545,-2.727,0.136
-53.696,-0.121,-1003.094,-0.939,-2.847,0.055
-40.913,-3.773,-989.472,0.786,-2.847,-0.230
-24.414,2.798,-981.425,2.824,-2.726,-0.521
-16.986,10.391,-987.902,3.901,-2.573,-0.685
-21.536,20.641,-991.888,3.783,-2.282,-0.678
-31.445,28.217,-987.222,2.805,-1.990,-0.435
-41.000,20.000,-986.000,1.190,-1.820,-0.070
-48.852,8.120,-991.874,0.270,-1.815,-0.044
-44.387,5.039,-998.712,0.848,-1.860,-0.195
-38.783,11.113,-1007.671,1.558,-2.007,-0.208
-37.386,21.106,-1016.897,1.659,-2.185,-0.217
-39.722,21.384,-1017.688,1.149,-2.256,-0.201
-42.630,13.426,-1022.887,0.890,-2.220,-0.219
-31.944,12.100,-1027.934,1.842,-2.090,-0.204
-24.022,12.091,-1019.983,2.696,-1.970,-0.079
-27.616,13.025,-1005.541,3.013,-1.838,-0.005
-33.419,16.309,-991.472,3.226,-1.819,-0.002
-35.735,15.296,-983.431,3.172,-1.750,0.045
-34.560,19.694,-977.400,3.353,-1.468,0.241
-37.425,19.792,-982.006,3.621,-1.167,0.372
-44.294,15.939,-993.248,3.538,-0.872,0.437
-54.000,19.000,-998.000,3.150,-0.770,0.560
-54.674,17.683,-1007.574,2.278,-0.722,0.511
-38.304,12.273,-1010.609,1.112,-0.544,0.381
-26.364,4.156,-1005.457,0.589,-0.373,0.295
-26.918,-0.974,-1004.042,1.009,-0.153,0.300
-26.904,-2.687,-997.837,1.805,0.102,0.374
-31.900,-4.306,-992.019,2.832,0.436,0.451
-38.080,-7.379,-989.980,3.611,0.795,0.724
-32.661,-9.399,-992.649,4.087,1.098,0.849
-26.369,1.925,-995.738,4.512,1.316,0.617
-27.484,10.630,-998.816,3.771,1.261,0.418
-30.290,10.677,-1011.420,2.083,1.092,0.207
-27.058,8.153,-1020.929,0.671,1.044,-0.010
-31.038,0.639,-1023.304,-0.187,1.051,0.050
-44.631,-3.212,-1021.341,-0.133,1.050,0.225
-45.000,-3.000,-1019.000,0.840,0.980,0.140
-36.537,0.179,-1030.406,2.141,0.626,-0.051
-24.647,7.090,-1042.988,2.849,0.379,-0.129
-18.259,16.889,-1034.217,2.659,0.617,-0.126
-28.792,20.205,-1011.100,1.951,0.676,0.017
-32.324,11.883,-997.372,1.095,0.493,0.064
-29.038,-1.230,-991.107,0.763,0.414,0.103
-35.557,-12.487,-980.249,1.174,0.504,0.370
-34.776,-11.413,-976.793,2.036,0.633,0.490
-21.589,-8.078,-983.218,2.531,0.464,0.447
-15.764,-6.007,-999.216,2.222,0.389,0.222
-20.666,2.832,-1015.318,1.314,0.447,-0.144
-26.734,6.334,-1015.369,-0.561,0.377,-0.174
-32.611,2.249,-1016.320,-2.702,0.210,-0.036
-32.214,-6.625,-1022.929,-3.958,-0.124,0.000
-23.000,-15.000,-1029.000,-3.640,-0.420,-0.070
-16.225,-12.331,-1034.162,-2.094,-0.673,-0.255
-18.848,-3.003,-1027.774,-1.387,-0.694,-0.347
-24.855,-0.242,-1021.622,-1.408,-0.454,-0.352
-23.068,-4.191,-1017.419,-0.997,-0.226,-0.329
-23.701,-4.892,-1002.919,-0.689,0.005,-0.254
-32.925,-4.908,-996.819,-0.386,-0.039,-0.312
-33.694,0.780,-996.843,0.175,-0.221,-0.503
-30.118,11.368,-995.720,0.119,-0.340,-0.563
-28.122,17.723,-1004.321,-0.851,-0.423,-0.543
-22.628,21.733,-1013.777,-2.004,-0.396,-0.689
-25.461,17.154,-1017.816,-3.158,-0.508,-0.872
-37.822,12.885,-1019.137,-3.831,-0.545,-0.904
-43.434,11.042,-1018.573,-3.560,-0.495,-0.798
-38.904,9.301,-1016.676,-2.986,-0.662,-0.691
-31.000,16.000,-1014.000,-2.310,-0.840,-0.700
-27.706,19.745,-1008.059,-1.953,-1.079,-0.757
-31.348,23.280,-1002.820,-2.095,-1.259,-0.842
-30.344,26.952,-999.303,-1.934,-1.214,-0.715
-26.456,23.674,-995.015,-1.551,-1.173,-0.389
-27.321,19.396,-999.123,-1.151,-1.047,-0.244
-23.917,15.050,-1000.550,-0.442,-0.783,-0.094
-25.675,11.743,-1002.626,0.331,-0.705,0.079
-38.160,7.353,-1012.536,0.813,-0.832,0.138
-42.806,4.821,-1015.055,1.201,-0.894,0.103
-36.720,6.794,-1022.717,1.862,-1.035,-0.050
-31.845,10.205,-1025.514,2.254,-1.208,-0.031
-35.110,12.624,-1016.399,1.824,-1.108,-0.030
-34.710,9.508,-1007.898,1.267,-0.802,-0.174
-28.271,4.218,-993.851,1.124,-0.439,-0.120
-28.000,-1.000,-987.000,1.400,-0.210,-0.000
-28.154,-3.368,-987.089,2.268,-0.027,0.062
-28.835,1.889,-987.621,3.386,0.039,0.115
-32.266,7.832,-993.803,3.441,-0.087,0.226
-29.616,12.541,-1003.100,2.419,0.006,0.292
-24.250,12.974,-1016.550,1.633,-0.107,0.121
-23.244,5.090,-1030.672,0.842,-0.484,-0.119
-28.701,0.815,-1034.842,0.103,-0.480,-0.208
-38.551,-4.369,-1026.925,-0.190,-0.419,-0.080
-35.264,-11.217,-1013.941,-0.386,-0.379,-0.092
-21.303,-14.742,-1002.163,0.158,-0.275,-0.335
-20.211,-19.056,-995.214,1.154,-0.328,-0.556
-24.304,-6.625,-993.564,1.546,-0.335,-0.810
-23.604,12.921,-993.871,0.940,-0.251,-0.794
-24.454,19.145,-991.533,-1.011,-0.113,-0.612
-30.000,14.000,-991.000,-3.710,0.070,-0.560
-32.476,1.613,-994.627,-5.542,0.194,-0.487
-28.295,-4.198,-994.777,-5.800,0.311,-0.632
-31.302,-2.103,-990.846,-5.694,0.413,-0.754
-43.135,-1.334,-984.412,-5.723,0.392,-0.611
-55.788,-5.263,-988.817,-4.964,0.334,-0.557
-45.567,4.058,-1005.638,-3.287,0.234,-0.558
-12.590,25.470,-1016.859,-1.816,-0.177,-0.561
6.477,40.079,-1034.355,-1.579,-0.427,-0.504
4.390,47.262,-1048.854,-2.333,-0.148,-0.180
-17.422,31.759,-1043.305,-3.427,0.075,0.317
-40.502,9.072,-1035.227,-3.360,-0.033,0.707
-45.608,-5.422,-1030.080,-1.348,-0.412,0.912
-42.088,-13.356,-1036.166,1.318,-0.946,0.847
-28.369,2.450,-1043.055,3.732,-1.562,0.411
-16.000,18.000,-1037.000,4.270,-1.960,-0.000
-18.071,19.850,-1032.059,2.558,-2.022,-0.189
-23.221,19.666,-1019.988,0.723,-2.125,-0.284
-23.717,11.086,-1006.421,-0.533,-2.280,-0.230
-20.015,1.443,-997.204,-1.197,-2.520,-0.233
-26.919,-3.506,-982.958,-1.653,-2.717,-0.290
-42.291,-3.083,-986.981,-1.753,-2.825,-0.288
-32.334,5.797,-1000.691,-1.077,-2.865,-0.433
-16.994,12.798,-1005.585,-1.265,-2.681,-0.494
-27.220,13.735,-1013.385,-2.073,-2.343,-0.468
-32.658,15.577,-1014.570,-2.308,-1.856,-0.605
-33.849,15.261,-1002.069,-2.521,-1.460,-0.577
-42.883,13.525,-990.908,-2.337,-1.281,-0.449
-41.302,14.214,-993.029,-1.558,-1.529,-0.533
-37.994,15.571,-1003.633,-0.810,-1.923,-0.638
-37.000,26.000,-1009.000,-0.350,-1.820,-0.630
-25.803,36.824,-1003.222,-0.516,-1.525,-0.573
-21.858,29.810,-997.739,-1.659,-1.007,-0.462
-35.851,13.659,-992.220,-2.786,-0.177,-0.315
-45.202,0.626,-973.493,-2.345,0.613,-0.016
-41.619,-7.872,-962.007,-0.656,1.154,0.455
-34.717,-12.499,-969.712,1.831,1.449,0.630
-35.404,-7.091,-986.661,4.513,1.456,0.474
-39.183,10.401,-1010.394,5.788,1.144,0.231
-31.285,29.803,-1024.870,5.353,0.934,0.018
-24.447,36.942,-1035.226,3.507,0.821,0.004
-18.576,28.619,-1044.156,1.276,0.714,-0.042
-9.789,16.358,-1042.388,0.373,0.690,-0.063
-13.013,7.075,-1041.912,1.309,0.579,-0.113
-17.324,11.794,-1036.742,3.520,0.294,-0.396
-21.000,27.000,-1031.000,5.600,-0.140,-0.630
-25.851,44.166,-1028.039,6.615,-0.621,-0.878
-26.500,58.819,-1021.226,6.132,-1.162,-0.913
-33.413,57.200,-1024.865,4.410,-1.659,-0.646
-32.023,50.102,-1027.148,2.928,-1.933,-0.489
-24.427,33.604,-1012.901,1.812,-1.931,-0.215
-30.965,9.156,-993.601,1.035,-1.781,0.138
-30.405,-2.598,-975.675,1.719,-1.596,0.368
-24.817,-12.128,-961.577,3.441,-1.533,0.617
-32.960,-20.741,-964.929,4.924,-1.711,0.608
-36.328,-14.783,-985.156,6.451,-1.810,0.424
-28.671,4.747,-998.932,7.327,-1.838,0.494
-20.130,18.759,-1007.650,5.567,-1.740,0.574
-13.671,17.957,-1008.945,2.234,-1.463,0.572
-17.336,-3.772,-1006.443,-1.030,-1.406,0.728
-27.000,-35.000,-1016.000,-3.080,-1.400,0.770
-30.025,-48.822,-1017.680,-2.486,-1.221,0.534
-28.998,-56.131,-1015.410,-0.998,-1.035,0.278
-23.898,-52.465,-1015.009,-0.279,-0.827,0.052
-19.977,-39.574,-1003.774,-0.199,-0.548,-0.242
-25.860,-34.319,-996.543,-1.222,-0.378,-0.664
-28.980,-25.521,-998.729,-2.680,-0.346,-1.048
-28.014,-16.405,-1002.326,-3.632,-0.355,-1.197
-28.972,-6.923,-1007.560,-4.541,-0.480,-1.319
-28.851,4.848,-1012.930,-5.577,-0.518,-1.405
-30.383,12.241,-1016.068,-6.629,-0.347,-1.351
-30.926,15.421,-1012.919,-7.663,-0.199,-1.301
-29.126,13.765,-1005.543,-7.637,-0.081,-1.218
-29.918,11.773,-1002.483,-6.418,0.014,-1.199
-38.861,16.430,-1002.090,-4.758,-0.103,-1.272
-49.000,32.000,-1006.000,-2.730,-0.350,-1.330
-47.984,49.033,-1012.294,-1.276,-0.539,-1.229
-39.027,59.446,-1016.954,-1.402,-0.629,-0.958
-25.193,65.844,-1022.964,-2.390,-0.598,-0.881
-21.658,59.030,-1018.084,-3.176,-0.492,-0.687
-34.449,38.448,-1002.599,-3.408,-0.222,-0.270
-39.727,19.131,-987.596,-2.106,0.149,-0.015
-32.290,7.472,-976.551,0.889,0.358,0.305
-26.088,8.345,-979.226,4.235,0.356,0.427
-29.478,20.607,-992.957,7.035,0.283,0.294
-34.144,35.456,-1010.554,8.192,0.318,0.305
-32.641,47.847,-1019.250,7.239,0.409,0.492
-32.192,44.724,-1015.547,4.909,0.586,0.894
-33.393,21.567,-1013.910,2.522,0.705,1.042
-33.782,-4.405,-1013.963,1.881,0.524,0.892
-27.000,-18.000,-1013.000,3.360,0.420,0.910
-21.265,-18.601,-1007.232,5.237,0.489,0.980
-31.947,-12.717,-1001.672,6.358,0.410,0.899
-33.894,-3.025,-1005.735,6.876,0.165,0.698
-21.129,3.445,-1015.702,6.581,-0.216,0.576
-17.994,1.848,-1028.717,5.417,-0.488,0.411
-16.085,-0.467,-1033.798,3.710,-0.473,0.270
-15.377,-6.915,-1026.188,1.894,-0.417,0.359
-26.061,-24.462,-1015.704,0.302,-0.355,0.360
-32.193,-40.922,-1008.920,-0.152,-0.379,0.137
-21.637,-44.351,-1004.717,0.893,-0.608,-0.135
-15.312,-34.718,-1000.762,1.770,-0.819,-0.311
-24.836,-18.159,-1004.518,1.810,-0.981,-0.539
-23.955,-4.389,-1008.091,0.827,-1.061,-0.747
-19.093,3.966,-1004.255,-1.089,-1.044,-0.862
-26.000,7.000,-1000.000,-3.150,-0.980,-1.050
-32.540,6.129,-1000.015,-4.702,-1.015,-1.120
-31.362,6.354,-1010.786,-4.958,-1.356,-1.123
-23.921,9.809,-1022.455,-4.353,-1.656,-1.059
-27.938,18.092,-1028.095,-3.398,-1.878,-0.894
-31.809,29.171,-1025.742,-3.138,-2.090,-0.814
-27.494,33.813,-1018.752,-3.791,-2.092,-0.645
-30.171,22.692,-1019.231,-4.060,-2.100,-0.406
-26.479,6.013,-1017.726,-3.709,-1.921,-0.289
-27.241,-3.626,-1001.153,-2.180,-1.393,-0.075
-39.753,-6.939,-980.588,-0.019,-0.887,0.223
-35.732,-2.999,-972.759,1.682,-0.712,0.297
-23.478,-0.025,-977.256,2.822,-0.844,0.253
-23.937,7.845,-994.493,3.181,-0.917,0.057
-23.663,22.773,-1014.308,2.832,-0.904,-0.150
-27.000,24.000,-1021.000,1.400,-0.770,-0.000
-39.725,17.910,-1021.954,-0.927,-0.682,0.086
-40.589,9.732,-1021.781,-2.467,-0.904,-0.080
-30.261,-1.610,-1023.369,-2.336,-1.088,-0.270
-20.738,-3.893,-1021.539,-1.202,-1.134,-0.413
-23.762,-0.505,-1012.528,0.313,-1.105,-0.397
-29.278,5.805,-1011.562,1.564,-1.139,-0.347
-27.007,12.257,-1012.866,2.197,-1.189,-0.432
-34.984,12.100,-1008.420,2.023,-1.185,-0.617
-44.818,11.990,-1003.183,0.762,-1.267,-0.705
-38.467,9.590,-997.456,-0.515,-1.101,-0.628
-20.726,2.781,-989.315,-1.253,-0.781,-0.411
-12.607,-2.696,-976.220,-1.679,-0.296,-0.206
-20.019,-14.397,-963.999,-1.311,0.288,-0.095
-26.350,-24.610,-964.060,0.150,0.516,0.186
-24.000,-18.000,-977.000,2.310,0.840,0.280
-26.325,-1.604,-991.687,3.792,1.172,0.206
-39.238,13.550,-1009.339,3.241,1.165,0.235
-43.271,22.279,-1029.901,1.395,0.924,0.130
-40.079,24.052,-1042.529,-0.604,0.387,0.225
-31.485,17.408,-1053.313,-2.586,-0.074,0.237
-18.844,5.069,-1060.049,-3.312,-0.331,0.036
-19.500,-5.661,-1047.497,-3.061,-0.500,-0.003
-26.590,-10.854,-1028.242,-2.655,-0.680,-0.128
-29.219,-11.193,-1013.593,-1.470,-0.906,-0.209
-27.308,-9.117,-995.611,-0.604,-0.717,-0.213
-28.413,-2.674,-976.353,-0.453,-0.378,-0.162
-33.549,0.487,-964.916,-1.020,-0.401,0.025
-39.978,0.391,-967.588,-2.277,-0.665,0.162
-38.464,4.689,-986.669,-3.411,-1.118,0.030
-20.000,6.000,-1008.000,-5.180,-1.260,-0.210
-11.491,2.935,-1014.163,-7.174,-0.848,-0.160
-16.833,-6.795,-1012.258,-8.424,-0.424,-0.077
-20.206,-18.789,-1012.309,-8.415,-0.322,-0.056
-27.576,-20.594,-1017.562,-6.412,-0.614,-0.148
-33.111,-12.725,-1030.048,-4.004,-0.942,-0.336
-29.565,7.648,-1038.943,-2.781,-1.064,-0.350
-24.989,29.168,-1035.380,-3.184,-1.044,-0.512
-32.154,35.105,-1025.719,-5.456,-1.037,-0.817
-36.899,30.668,-1018.244,-8.010,-1.375,-1.161
-23.300,22.852,-1011.783,-9.662,-1.636,-1.577
-14.483,16.341,-999.456,-10.405,-1.477,-1.728
-14.953,12.567,-986.362,-9.706,-1.184,-1.598
-8.523,12.511,-979.366,-7.783,-0.784,-1.279
-8.133,16.915,-978.438,-5.082,-0.546,-0.852
-23.000,26.000,-988.000,-2.450,-0.560,-0.630
-36.524,40.718,-1004.540,-1.077,-0.561,-0.458
-44.137,52.419,-1016.734,-0.952,-0.530,-0.239
-42.260,53.132,-1015.940,-2.179,-0.324,-0.205
-34.472,41.521,-1010.083,-3.521,-0.164,-0.218
-36.108,29.841,-1010.526,-3.169,-0.417,-0.354
-30.538,32.916,-1012.633,-1.829,-0.768,-0.507
-21.658,43.875,-1022.141,-0.141,-0.996,-0.489
-19.197,55.187,-1035.517,1.397,-1.181,-0.494
-21.604,61.566,-1033.864,1.610,-1.206,-0.296
-41.197,53.029,-1025.369,0.879,-1.136,0.060
-47.395,37.448,-1014.833,0.796,-1.110,0.190
-37.461,24.078,-1005.565,1.824,-1.157,0.242
-28.916,15.483,-1003.117,3.118,-1.309,0.263
-19.302,19.133,-997.120,4.192,-1.410,0.024
-26.000,25.000,-999.000,4.480,-1.470,-0.140
-32.863,26.919,-1004.338,4.008,-1.373,-0.080
-34.563,23.944,-998.102,3.384,-1.056,0.011
-38.190,13.152,-992.997,2.678,-0.884,0.248
-38.074,5.464,-990.932,2.829,-0.787,0.413
-40.154,0.904,-996.042,3.655,-0.805,0.391
-26.105,9.403,-1003.805,3.787,-0.924,0.127
-11.864,20.091,-999.465,2.826,-0.828,-0.147
-21.983,11.794,-997.605,1.043,-0.706,-0.076
-27.917,6.406,-1006.557,-0.176,-0.642,-0.114
-21.598,2.451,-1015.054,-0.274,-0.592,-0.130
-16.244,-1.318,-1018.713,0.181,-0.475,0.010
-17.619,3.837,-1023.524,0.693,-0.458,-0.062
-24.090,8.281,-1031.391,0.877,-0.845,-0.299
-31.242,15.364,-1036.235,0.979,-1.241,-0.697
-39.000,24.000,-1032.000,0.420,-1.610,-1.050
-35.764,30.396,-1025.437,-0.977,-2.046,-1.234
-23.078,31.106,-1022.969,-2.092,-2.318,-1.417
-16.561,27.254,-1012.815,-2.638,-2.490,-1.522
-19.789,24.908,-1001.571,-2.686,-2.502,-1.307
-25.612,24.124,-995.618,-2.239,-2.420,-0.907
-24.481,28.256,-989.860,-1.725,-2.373,-0.768
-27.578,32.196,-989.183,-1.620,-2.383,-0.847
-33.876,35.620,-994.392,-1.927,-2.384,-0.910
-32.464,39.204,-1003.263,-2.483,-2.359,-0.818
-31.026,35.797,-1007.589,-3.330,-2.522,-0.584
-27.575,31.372,-1009.027,-3.973,-2.627,-0.322
-28.830,20.072,-1014.410,-3.977,-2.528,0.016
-33.958,2.549,-1015.240,-3.113,-2.283,0.132
-32.710,2.172,-1008.764,-1.216,-1.907,-0.023
-33.000,11.000,-1002.000,0.490,-1.750,-0.070
-30.812,15.354,-1003.139,1.084,-1.815,-0.120
-27.234,19.920,-1008.320,1.289,-1.747,-0.254
-33.058,21.782,-1008.820,1.242,-1.502,-0.292
-39.583,18.642,-1009.387,0.508,-1.306,-0.271
-37.760,10.463,-1009.031,-0.350,-1.089,-0.288
-39.235,2.446,-1001.688,-0.525,-0.767,-0.272
-45.140,-2.204,-992.494,0.066,-0.463,-0.286
-37.210,-0.480,-989.177,1.047,0.023,-0.411
-23.168,6.657,-984.631,1.794,0.598,-0.484
-26.478,11.754,-978.163,2.008,0.951,-0.499
-40.659,17.674,-975.384,1.730,1.190,-0.435
-45.855,18.351,-976.285,1.092,1.250,-0.274
-42.535,19.397,-990.858,0.710,1.041,-0.215
-37.338,28.350,-1009.366,0.590,0.806,-0.390
-37.000,33.000,-1023.000,-0.210,0.560,-0.630
-38.474,33.393,-1039.684,-1.581,0.414,-0.642
-32.314,27.099,-1049.574,-2.060,0.531,-0.609
-26.234,18.838,-1046.142,-1.164,0.539,-0.668
-25.454,18.481,-1029.142,-0.109,0.450,-0.510
-34.605,16.561,-1011.538,0.817,0.378,-0.285
-40.681,14.190,-1007.795,2.253,0.149,-0.303
-28.907,21.846,-1005.779,3.488,-0.087,-0.429
-21.092,31.482,-1004.913,3.485,-0.333,-0.491
-21.123,36.346,-1004.207,2.325,-0.435,-0.436
-20.774,36.514,-997.064,0.649,-0.353,-0.408
-20.299,27.378,-994.083,-0.944,-0.371,-0.430
-12.566,16.213,-997.274,-2.018,-0.269,-0.415
-8.574,7.361,-993.418,-2.325,0.030,-0.404
-22.995,0.107,-982.738,-2.023,0.314,-0.157
-37.000,-3.000,-985.000,-1.120,0.350,0.070
-34.006,2.135,-1001.152,0.617,0.054,-0.048
-30.036,17.198,-1020.010,2.162,-0.234,-0.127
-30.645,30.752,-1038.400,2.406,-0.308,-0.190
-35.398,38.117,-1049.183,1.765,-0.220,-0.172
-41.102,35.676,-1047.741,0.997,-0.096,-0.010
-35.081,25.438,-1033.915,0.793,-0.093,0.093
-33.294,14.159,-1018.166,1.326,-0.379,0.217
-35.318,7.912,-1014.036,2.604,-0.685,0.156
-28.712,14.124,-1012.025,4.166,-0.857,-0.045
-30.439,20.227,-1007.686,4.681,-1.088,-0.082
-30.028,26.154,-1005.873,4.133,-1.045,-0.062
-18.859,31.507,-1003.700,3.144,-0.803,-0.080
-18.959,28.576,-1000.798,1.928,-0.674,-0.046
-32.313,21.425,-995.122,0.848,-0.725,0.091
-42.000,7.000,-994.000,0.630,-0.980,0.140
-36.377,-0.199,-1000.735,1.514,-1.224,0.132
-32.020,2.528,-1009.249,2.416,-1.435,0.205
-34.953,4.050,-1016.696,2.836,-1.474,0.148
-31.740,9.192,-1017.026,2.709,-1.519,-0.026
-31.487,12.825,-1015.983,1.840,-1.631,-0.225
-28.500,12.645,-1018.271,0.729,-1.498,-0.472
-24.088,7.412,-1013.196,-0.281,-1.397,-0.558
-29.690,1.201,-1000.751,-0.900,-1.336,-0.492
-26.444,1.421,-998.457,-0.459,-1.316,-0.576
-17.490,5.570,-1005.450,0.668,-1.355,-0.839
-19.913,16.516,-1007.315,1.186,-1.272,-0.918
-26.908,26.815,-1008.347,0.921,-1.286,-0.764
-29.311,28.959,-1007.321,-0.009,-1.341,-0.684
-31.651,26.464,-1007.216,-1.201,-1.424,-0.620
-37.000,23.000,-1007.000,-1.680,-1.680,-0.630
-38.331,20.350,-1008.668,-1.850,-1.992,-0.696
-35.005,19.432,-1017.630,-2.077,-2.088,-0.740
-33.282,21.436,-1012.422,-2.113,-1.789,-0.812
-34.628,18.576,-1004.939,-2.304,-1.421,-0.662
-30.894,13.048,-999.733,-2.275,-1.013,-0.527
-29.900,7.558,-985.350,-1.324,-0.528,-0.355
-38.640,4.097,-970.910,-0.049,-0.187,-0.056
-41.198,10.418,-958.516,0.983,0.061,-0.005
-37.198,14.737,-962.013,1.625,-0.015,0.212
-30.828,17.055,-985.093,1.615,-0.169,0.345
-25.279,21.591,-1015.528,1.104,-0.065,0.186
-28.246,21.046,-1036.524,0.132,-0.124,0.274
-31.025,15.919,-1046.526,-0.923,-0.078,0.232
-25.928,6.466,-1047.935,-1.518,0.356,0.051
-22.000,-1.000,-1027.000,-1.260,0.700,0.000
-29.943,-5.421,-1002.216,-0.030,0.609,0.052
-41.722,-6.592,-996.504,1.691,0.244,0.112
-39.879,2.555,-1003.243,3.742,-0.043,-0.111
-30.333,19.945,-1009.990,4.804,-0.229,-0.238
-32.272,36.512,-1014.395,3.685,-0.276,-0.212
-37.434,42.107,-1015.603,1.274,-0.183,-0.297
-34.695,35.029,-1010.549,-1.454,-0.061,-0.275
-30.492,17.500,-1005.416,-3.167,0.058,-0.275
-21.168,1.943,-998.091,-3.034,0.281,-0.345
-17.307,-3.739,-989.752,-1.680,0.555,-0.320
-25.578,-5.378,-986.444,0.231,0.755,-0.182
-27.543,3.683,-988.040,2.000,1.056,0.028
-23.833,16.118,-992.532,2.730,1.204,0.166
-20.652,21.537,-1000.604,2.071,1.188,0.119
-23.000,23.000,-1011.000,0.840,1.120,-0.070
-31.917,21.889,-1013.964,-0.155,0.877,-0.198
-34.871,24.363,-1016.128,-0.805,0.681,-0.301
-29.949,23.906,-1022.674,-0.953,0.506,-0.455
-20.723,20.581,-1029.828,-0.567,0.305,-0.493
-11.904,21.921,-1039.853,0.294,0.044,-0.507
-6.159,24.598,-1044.929,0.901,0.032,-0.566
-10.936,24.736,-1035.952,0.754,0.136,-0.480
-26.037,15.950,-1021.998,0.819,-0.057,-0.417
-33.739,4.223,-1008.062,1.023,-0.050,-0.481
-41.682,-3.739,-987.490,1.364,0.245,-0.517
-44.492,-3.156,-966.389,2.595,0.780,-0.680
-25.243,6.857,-952.271,3.684,1.385,-0.772
-6.737,11.621,-947.765,3.782,1.920,-0.538
0.679,14.872,-953.225,3.177,2.451,-0.229
-1.000,20.000,-962.000,2.520,2.800,0.280
-13.861,15.350,-974.422,2.016,3.012,1.022
-24.862,7.937,-993.914,2.055,2.686,1.441
-31.265,7.922,-1018.996,3.077,1.802,1.426
-36.381,16.907,-1053.938,3.484,0.750,1.142
-35.998,29.360,-1090.973,2.999,-0.335,0.638
-28.866,34.291,-1113.785,2.091,-1.240,0.183
-19.415,30.372,-1120.879,0.265,-1.935,-0.242
-16.830,17.232,-1105.226,-1.327,-2.415,-0.545
-20.352,3.813,-1071.730,-1.693,-2.982,-0.767
-21.503,-1.702,-1041.486,-0.921,-3.733,-1.068
-19.770,-3.632,-1023.331,0.821,-4.288,-1.121
-19.357,3.681,-1015.066,2.821,-4.419,-1.143
-25.764,15.350,-998.846,3.501,-4.294,-1.059
-35.217,24.046,-983.560,2.613,-4.086,-0.814
-41.000,23.000,-978.000,1.260,-3.710,-0.770
-49.480,7.311,-972.263,-0.179,-3.505,-0.652
-55.692,-1.079,-973.613,-0.725,-3.471,-0.604
-50.204,-0.470,-972.081,-0.175,-3.279,-0.684
-44.712,-1.501,-971.473,0.712,-2.959,-0.722
-38.583,2.268,-974.620,1.691,-2.444,-0.794
-25.039,11.377,-975.348,2.357,-1.916,-0.743
-23.653,20.466,-978.055,2.585,-1.347,-0.540
-36.228,20.404,-972.778,2.034,-0.495,-0.235
-39.061,14.313,-961.593,1.106,0.490,0.112
-34.906,7.802,-952.792,0.999,1.217,0.594
-36.870,-2.948,-964.713,1.956,1.315,0.904
-37.215,-6.822,-997.618,3.378,1.067,0.712
-30.401,4.341,-1023.425,4.182,0.855,0.535
-21.843,13.375,-1038.866,3.580,0.766,0.571
-19.000,5.000,-1045.000,1.540,0.770,0.630
-25.759,-13.324,-1043.553,-0.297,0.768,0.525
-29.990,-26.976,-1037.711,-0.249,0.751,0.278
-24.026,-29.218,-1029.124,1.004,0.449,0.056
-15.781,-19.413,-1025.296,2.381,-0.071,-0.223
-13.158,-4.274,-1023.051,2.733,-0.511,-0.397
-19.939,7.220,-1024.895,1.391,-0.935,-0.530
-23.988,14.358,-1026.799,-0.894,-1.199,-0.710
-23.763,13.534,-1017.983,-3.630,-1.193,-0.769
-29.081,3.044,-1004.948,-6.301,-1.231,-0.769
-29.097,-10.683,-992.805,-7.779,-1.305,-0.803
-23.533,-22.597,-988.700,-7.362,-1.113,-0.883
-18.949,-21.225,-989.460,-5.615,-0.903,-0.735
-17.284,-9.173,-982.801,-3.761,-0.824,-0.513
-23.066,1.688,-986.903,-2.896,-0.853,-0.494
-27.000,15.000,-1002.000,-3.150,-0.910,-0.560
-29.326,26.856,-1010.950,-3.679,-0.790,-0.744
-33.440,31.564,-1016.023,-4.591,-0.715,-0.804
-34.663,30.618,-1012.775,-5.738,-0.641,-0.672
-38.579,20.341,-1010.937,-6.025,-0.717,-0.617
-38.268,10.792,-1015.640,-5.113,-1.000,-0.638
-24.003,16.366,-1016.680,-3.359,-0.945,-0.621
-12.780,26.621,-1013.786,-2.125,-1.003,-0.554
-19.153,30.973,-1014.554,-2.204,-1.378,-0.489
-26.748,28.121,-1023.623,-2.576,-1.482,-0.632
-25.991,25.777,-1030.872,-2.455,-1.424,-0.864
-28.085,28.524,-1026.407,-2.449,-1.320,-0.642
-36.522,20.720,-1011.221,-2.984,-1.048,-0.284
-44.313,9.136,-998.967,-2.659,-0.760,-0.208
-36.926,3.229,-989.230,-0.860,-0.523,-0.205
-26.000,1.000,-979.000,1.330,-0.280,-0.070
-25.990,9.098,-983.046,3.413,-0.152,0.181
-23.275,21.543,-997.609,5.040,-0.012,0.311
-21.409,31.089,-1009.585,5.363,0.264,0.482
-26.032,32.526,-1015.206,3.970,0.394,0.574
-32.035,25.451,-1019.405,2.043,0.445,0.426
-32.527,11.125,-1017.219,0.963,0.492,0.339
-33.482,-3.789,-1006.365,0.871,0.408,0.272
-42.580,-5.498,-1006.505,2.024,0.166,0.091
-38.918,6.716,-1012.892,4.095,-0.202,-0.223
-27.745,26.384,-1016.912,4.896,-0.432,-0.324
-25.301,39.968,-1016.703,3.467,-0.273,-0.218
-24.995,40.390,-1008.379,1.319,0.088,-0.197
-28.662,24.336,-999.109,-0.598,0.232,0.021
-33.475,0.793,-989.650,-1.309,0.390,0.221
-34.000,-13.000,-983.000,-0.140,0.700,0.210
-32.384,-16.530,-975.937,1.801,0.946,0.323
-28.297,-8.018,-976.200,3.546,1.113,0.436
-19.298,4.624,-991.572,4.307,1.095,0.304
-12.170,16.125,-1005.404,3.726,1.235,0.142
-15.172,21.399,-1015.220,1.885,1.471,0.164
-20.993,13.529,-1017.455,-0.509,1.559,0.221
-21.945,2.028,-1013.894,-1.790,1.605,0.285
-22.681,-12.050,-1015.768,-1.657,1.358,0.287
-30.035,-16.593,-1018.290,-0.845,1.040,0.166
-34.049,-6.275,-1022.164,-0.025,0.757,0.057
-21.292,3.158,-1025.413,0.141,0.469,-0.116
-7.053,7.131,-1025.459,-0.576,0.437,-0.270
-11.094,6.846,-1020.756,-1.894,0.504,-0.391
-22.200,8.299,-1011.627,-2.893,0.479,-0.500
-22.000,7.000,-1004.000,-2.940,0.350,-0.490
-17.080,4.570,-999.117,-2.522,0.170,-0.429
-20.748,11.096,-1001.517,-1.998,-0.053,-0.405
-26.678,20.543,-1005.606,-1.510,-0.357,-0.473
-25.288,29.808,-1011.949,-1.633,-0.580,-0.471
-20.225,33.212,-1020.510,-2.335,-0.501,-0.384
-21.008,30.092,-1019.849,-3.096,-0.425,-0.233
-26.127,25.597,-1011.188,-3.516,-0.489,0.019
-19.050,19.526,-1000.639,-3.461,-0.360,0.201
-7.821,11.280,-997.227,-2.632,-0.424,0.275
-8.098,3.544,-1002.786,-1.056,-0.679,0.280
-9.671,9.885,-1010.720,0.518,-0.658,0.298
-13.528,21.373,-1018.006,1.532,-0.644,0.437
-19.396,22.384,-1025.462,1.103,-0.723,0.710
-22.723,18.145,-1034.123,-0.085,-0.775,0.753
-32.000,10.000,-1035.000,-0.700,-0.770,0.630
-40.040,-0.518,-1026.339,-1.041,-0.869,0.694
-32.103,-7.597,-1020.927,-0.601,-1.183,0.623
-16.112,-4.909,-1022.317,0.992,-1.353,0.400
-11.112,7.970,-1021.742,2.794,-1.492,0.130
-14.337,25.983,-1016.501,3.204,-1.642,-0.030
-16.285,37.161,-1006.987,1.951,-1.476,0.014
-17.044,30.983,-989.661,0.454,-1.167,0.077
-17.902,14.331,-979.224,-0.655,-0.865,0.204
-19.399,-0.041,-977.798,-0.352,-0.507,0.169
-25.055,-3.794,-972.821,1.534,-0.159,0.108
-39.210,3.968,-974.451,2.959,-0.021,0.201
-42.781,16.805,-991.182,3.084,-0.145,0.186
-27.769,24.838,-1012.698,2.471,-0.191,0.122
-20.107,29.572,-1018.666,1.058,0.041,0.062
-27.000,27.000,-1013.000,-0.770,0.140,0.070
-25.583,13.808,-1010.911,-1.571,-0.039,0.140
-15.235,6.595,-1013.358,-0.739,-0.221,0.054
-16.297,5.758,-1018.134,0.785,-0.422,-0.084
-24.379,10.637,-1018.577,1.979,-0.511,0.017
-28.790,18.356,-1021.752,2.598,-0.481,0.190
-24.504,18.412,-1023.232,2.173,-0.492,0.208
-22.176,13.456,-1015.416,0.961,-0.492,0.208
-24.184,4.633,-1011.197,0.231,-0.555,0.028
-19.972,0.038,-1007.257,0.227,-0.568,-0.358
-25.999,0.542,-1001.409,0.512,-0.556,-0.464
-32.375,3.000,-993.635,0.751,-0.521,-0.339
-27.282,8.103,-985.492,0.476,-0.306,-0.216
-26.389,6.803,-982.742,-0.452,-0.069,-0.003
-26.813,2.479,-987.296,-1.094,0.177,0.061
-24.000,1.000,-999.000,-0.980,0.350,-0.070
-19.828,4.878,-1010.405,-0.502,0.472,-0.189
-13.632,12.248,-1019.428,-0.126,0.518,-0.329
-12.066,17.136,-1021.157,-0.430,0.403,-0.325
-22.809,20.105,-1018.112,-1.264,0.248,-0.241
-30.781,14.713,-1016.252,-2.219,-0.210,-0.176
-32.340,5.232,-1016.151,-2.267,-0.626,-0.044
-30.464,3.148,-1018.224,-1.323,-0.948,-0.081
-19.715,8.423,-1023.376,-0.592,-1.569,-0.265
-16.441,15.679,-1031.882,-0.559,-1.785,-0.493
-18.488,20.182,-1030.447,-1.507,-1.592,-0.747
-20.951,20.282,-1015.811,-2.518,-1.495,-0.682
-22.780,12.995,-1000.284,-2.915,-1.459,-0.508
-15.596,6.704,-992.317,-2.594,-1.478,-0.597
-15.907,4.898,-989.835,-1.406,-1.463,-0.524
-22.000,8.000,-992.000,-0.350,-1.400,-0.210
-23.496,14.631,-999.660,0.058,-1.391,0.038
-29.721,14.029,-1008.800,-0.048,-1.495,0.200
-33.300,17.146,-1018.385,-0.396,-1.655,0.123
-23.372,21.022,-1021.415,-1.000,-1.883,-0.154
-15.917,17.579,-1023.010,-1.695,-2.096,-0.314
-23.437,17.117,-1026.284,-1.640,-2.195,-0.248
-28.914,17.068,-1026.106,-0.511,-2.485,-0.055
-20.900,23.966,-1030.647,1.146,-3.039,0.068
-12.186,38.464,-1030.976,2.155,-3.437,0.019
-17.342,44.581,-1027.238,2.233,-3.751,-0.018
-28.562,41.284,-1025.671,1.716,-4.186,0.021
-34.070,34.797,-1019.251,0.903,-4.427,-0.038
-39.931,28.257,-1011.790,0.776,-4.761,-0.068
-41.607,25.979,-1006.541,1.343,-5.338,-0.080
-36.000,27.000,-1010.000,1.540,-5.810,-0.210
-29.360,27.993,-1020.755,1.280,-5.921,-0.339
-19.406,25.018,-1022.173,0.207,-5.407,-0.330
-15.308,11.539,-1006.323,-1.643,-4.655,-0.110
-16.161,-7.464,-983.561,-2.493,-3.742,0.086
-14.905,-27.798,-963.466,-1.828,-2.689,0.167
-20.879,-40.143,-948.260,0.132,-1.854,0.216
-23.733,-31.780,-945.236,2.537,-1.138,0.208
-16.463,-14.255,-951.419,3.693,-0.534,0.149
-17.481,-0.975,-960.352,3.144,0.067,0.014
-30.503,4.892,-972.316,1.347,0.622,0.067
-33.653,7.564,-983.984,-0.272,0.941,0.218
-25.575,6.600,-1000.455,-1.244,1.122,0.173
-27.557,0.197,-1022.936,-1.745,1.208,0.138
-27.140,0.611,-1041.048,-1.277,1.274,0.141
-23.000,4.000,-1045.000,-0.490,1.400,0.210
-30.196,6.177,-1039.452,-0.153,1.370,0.290
-26.210,13.148,-1040.149,-0.073,1.009,0.061
-8.888,16.836,-1039.640,0.255,0.848,-0.364
-7.458,17.199,-1029.280,0.192,0.997,-0.519
-26.105,15.890,-1015.284,-0.743,1.071,-0.330
-39.729,9.224,-1000.671,-1.194,1.125,-0.201
-42.130,3.801,-990.596,-0.804,0.957,-0.292
-43.187,5.525,-991.579,-0.558,0.648,-0.478
-36.204,14.530,-996.571,-0.791,0.500,-0.562
-29.827,23.850,-995.933,-1.522,0.546,-0.553
-31.470,27.603,-992.806,-2.766,0.813,-0.551
-31.234,24.571,-989.239,-3.836,1.132,-0.416
-25.938,14.864,-989.730,-3.854,1.524,-0.344
-20.656,11.411,-992.073,-2.620,1.765,-0.247
-24.000,20.000,-992.000,-0.980,1.750,0.070
-27.214,29.006,-1000.861,-0.013,1.642,0.266
-24.970,33.190,-1014.279,0.301,1.397,0.333
-27.517,29.210,-1026.970,0.022,1.231,0.389
-32.005,20.422,-1040.200,-0.347,1.177,0.461
-30.770,15.333,-1039.400,-0.013,1.361,0.493
-25.953,9.504,-1028.495,0.550,1.432,0.491
-23.976,5.993,-1021.713,1.254,0.934,0.403
-22.376,8.664,-1020.080,2.049,0.507,0.031
-14.830,14.859,-1016.235,2.542,0.452,-0.211
-10.542,24.177,-1002.805,2.390,0.724,-0.096
-16.919,24.527,-990.287,1.230,0.903,0.171
-25.748,15.694,-993.123,0.401,0.790,0.288
-29.250,9.781,-1003.772,0.738,0.900,0.051
-26.458,9.238,-1004.164,1.242,1.070,-0.065
-25.000,12.000,-996.000,1.260,1.190,0.070
-22.865,12.263,-994.202,0.994,1.102,0.145
-16.942,10.835,-1004.058,1.210,0.652,0.007
-16.216,13.465,-1021.792,1.826,0.114,-0.204
-17.366,22.653,-1040.241,1.878,-0.392,-0.132
-16.497,31.481,-1050.145,1.265,-0.617,0.079
-14.533,29.540,-1047.247,0.393,-0.837,0.237
-14.056,19.029,-1034.804,-0.949,-1.057,0.196
-14.107,5.920,-1016.506,-1.816,-1.107,-0.052
-12.902,-2.410,-1000.629,-1.284,-1.439,-0.242
-13.439,-1.843,-999.210,-0.155,-1.805,-0.394
-12.665,3.805,-1001.781,1.111,-1.988,-0.382
-22.329,8.624,-1000.238,1.411,-2.012,-0.169
-33.696,6.700,-1003.107,0.521,-1.815,0.064
-26.159,1.140,-1003.786,-0.413,-1.578,0.131
-19.000,-4.000,-1004.000,-1.190,-1.470,-0.070
-19.945,-5.496,-1009.130,-1.530,-1.632,-0.369
-18.287,1.447,-1015.714,-1.506,-2.021,-0.730
-13.978,14.333,-1028.863,-1.361,-2.522,-1.017
-14.063,28.162,-1041.387,-1.455,-2.908,-0.994
-20.821,36.036,-1041.181,-2.281,-3.025,-0.728
-24.127,36.523,-1031.236,-3.268,-3.017,-0.532
-24.129,27.892,-1022.782,-3.557,-3.248,-0.490
-27.755,11.039,-1027.382,-2.772,-3.560,-0.609
-28.227,7.658,-1029.344,-0.848,-3.527,-0.974
-30.603,20.777,-1013.248,0.862,-3.424,-1.150
-37.862,27.920,-996.100,0.886,-3.166,-1.056
-28.134,27.857,-981.595,0.510,-2.770,-1.072
-18.034,27.695,-963.812,0.189,-2.516,-0.991
-23.945,22.956,-957.068,-0.597,-2.179,-0.641
-24.000,16.000,-962.000,-0.700,-1.750,-0.350
-24.477,9.930,-964.900,-0.256,-1.219,-0.117
-25.785,4.357,-965.382,-0.133,-0.507,0.171
-24.261,0.391,-969.409,-0.065,0.155,0.160
-29.182,-1.595,-980.054,0.539,0.495,-0.019
-33.364,2.073,-990.526,1.306,0.721,-0.086
-38.033,8.525,-1002.145,1.665,0.834,-0.044
-35.273,16.760,-1017.005,1.740,0.610,0.155
-24.515,26.431,-1024.744,1.193,0.488,0.215
-22.853,29.702,-1027.883,0.068,0.549,0.103
-20.917,22.305,-1033.220,-1.016,0.595,-0.040
-17.820,8.564,-1034.628,-1.280,0.725,-0.031
-23.111,2.739,-1025.065,-0.396,0.945,0.140
-25.796,3.151,-1010.880,0.886,1.053,0.121
-21.306,4.408,-1003.523,2.153,0.870,0.154
-22.000,9.000,-1005.000,3.290,0.630,0.140
-29.933,17.951,-1007.251,3.854,0.445,0.055
-33.527,31.533,-1003.604,3.282,0.311,0.242
-29.265,33.458,-1005.952,1.761,0.199,0.230
-19.297,25.813,-1015.599,0.381,0.105,0.054
-15.056,19.538,-1012.943,-0.351,0.189,-0.020
-23.254,12.553,-1002.937,-0.565,0.304,0.031
-26.784,8.775,-998.956,-0.149,0.431,0.222
-19.607,5.230,-999.967,0.958,0.552,0.279
-16.053,5.746,-997.345,1.862,0.717,0.329
-23.698,11.987,-993.246,2.068,0.849,0.404
-28.134,16.543,-1001.663,1.789,0.512,0.439
-18.590,21.393,-1016.781,0.793,0.135,0.343
-12.508,24.204,-1031.298,-0.451,-0.187,0.051
-15.490,19.874,-1040.606,-1.951,-0.515,-0.072
-16.000,9.000,-1036.000,-3.780,-0.350,0.000
-14.410,-6.641,-1023.957,-4.633,-0.034,0.128
-9.831,-18.443,-1011.403,-3.876,0.120,0.111
-7.334,-20.279,-1001.797,-1.915,0.143,0.004
-22.212,-11.767,-995.473,0.120,0.180,-0.005
-37.458,10.894,-990.237,1.305,0.351,-0.125
-26.375,31.220,-990.361,1.161,0.546,-0.109
-5.805,34.867,-990.907,-0.188,0.948,0.083
-1.455,30.513,-988.234,-1.472,1.378,0.261
-15.096,21.581,-987.118,-1.853,1.492,0.563
-27.823,11.172,-995.284,-0.805,1.304,0.758
-28.841,9.676,-1009.038,1.160,1.020,0.765
-32.689,18.423,-1016.855,2.514,0.840,0.792
-38.105,21.867,-1026.290,2.625,0.765,0.857
-37.477,16.999,-1031.791,1.627,0.962,0.825
-28.000,9.000,-1020.000,0.490,1.330,0.700
-11.053,1.029,-1000.628,-0.150,1.417,0.638
-4.364,-6.350,-988.683,-0.307,1.252,0.543
-8.004,-12.561,-990.777,0.291,1.035,0.355
-11.625,-5.915,-1000.539,1.316,0.745,0.228
-11.462,2.643,-1014.951,1.667,0.458,0.201
-11.594,9.978,-1029.801,0.747,0.221,0.111
-17.469,14.965,-1038.661,-0.828,-0.182,-0.009
-20.052,11.197,-1049.190,-2.474,-0.856,-0.188
-19.598,11.084,-1055.218,-3.556,-1.487,-0.499
-22.659,9.492,-1051.381,-3.556,-2.023,-0.705
-24.871,15.006,-1043.124,-3.297,-2.550,-0.892
-22.202,23.994,-1028.434,-3.337,-2.823,-1.015
-15.472,23.601,-1015.991,-3.458,-2.997,-1.089
-5.589,23.972,-1008.822,-3.407,-3.073,-1.284
-4.000,20.000,-1000.000,-3.150,-2.940,-1.260
-15.301,19.114,-996.824,-2.474,-2.984,-1.134
-22.283,27.324,-997.889,-1.362,-3.162,-1.023
-24.203,34.727,-999.819,-0.955,-3.383,-0.937
-20.553,39.274,-1010.118,-1.188,-3.587,-1.065
-6.022,43.580,-1017.192,-1.474,-3.508,-1.115
-0.591,42.965,-1013.198,-2.249,-3.322,-1.021
-12.061,34.262,-1002.124,-3.048,-3.217,-0.820
-20.014,25.665,-997.601,-2.932,-3.337,-0.575
-15.277,16.549,-1008.801,-1.643,-3.705,-0.395
-14.137,15.485,-1020.072,-0.112,-3.909,-0.226
-23.297,25.469,-1025.639,0.544,-3.921,-0.248
-30.206,26.636,-1023.668,-0.128,-3.892,-0.274
-28.714,18.364,-1015.077,-1.510,-3.718,-0.326
-21.868,12.234,-1005.424,-1.949,-3.541,-0.598
-16.000,8.000,-995.000,-1.680,-3.150,-0.630
-11.707,9.954,-986.394,-1.296,-2.421,-0.400
-7.969,15.491,-975.192,-0.480,-1.817,0.036
-12.408,9.434,-962.517,-0.117,-1.416,0.556
-28.596,1.928,-961.211,-0.109,-1.079,0.792
-38.358,0.684,-975.394,0.396,-0.664,0.835
-29.154,0.155,-989.177,1.131,-0.165,0.636
-25.442,3.266,-993.125,1.306,0.316,0.410
-38.746,4.938,-993.982,0.503,0.684,0.351
-51.786,7.145,-995.036,-0.464,0.726,0.352
-48.964,10.222,-1001.468,-1.097,0.624,0.252
-26.657,12.853,-1009.049,-1.735,0.733,-0.054
-7.579,16.016,-1010.644,-2.420,1.092,-0.132
-13.407,14.077,-1006.182,-3.183,1.404,-0.054
-31.217,11.548,-1001.397,-3.752,1.561,-0.079
-36.000,7.000,-996.000,-3.430,1.610,-0.140
-37.462,12.516,-992.230,-2.613,1.274,-0.186
-35.841,29.036,-1004.424,-2.359,0.713,-0.506
-22.754,34.568,-1020.861,-2.927,0.276,-0.676
-23.807,38.111,-1032.758,-4.129,0.069,-0.252
-26.944,33.056,-1036.565,-5.266,0.254,-0.264
-28.284,21.085,-1027.165,-5.460,0.530,-0.034
-33.929,20.083,-1016.303,-4.356,0.477,-0.051
-22.241,19.931,-1009.341,-2.521,0.293,-0.944
-13.210,25.502,-1007.129,-0.952,0.073,-0.718
-23.099,36.681,-1005.675,-0.264,-0.253,-0.252
-40.414,48.822,-1004.399,-0.520,-0.443,-0.108
-40.693,60.399,-1007.954,-1.184,-0.514,-0.023
-24.144,58.990,-1011.431,-2.426,-0.451,-0.391
-17.761,46.717,-1008.108,-4.079,-0.347,-0.392
-18.000,30.000,-1003.000,-4.830,-0.420,-0.210
-20.845,15.538,-1002.023,-3.966,-0.315,0.134
-16.360,9.264,-1001.790,-2.006,-0.143,0.560
-7.712,10.940,-1002.995,0.249,-0.183,0.700
-10.699,19.001,-1004.577,2.494,-0.230,0.649
-13.258,30.429,-1009.909,3.739,-0.336,0.539
-13.146,38.001,-1023.415,3.927,-0.541,0.666
-16.452,39.071,-1036.893,3.918,-0.791,0.612
-25.244,43.424,-1044.788,3.975,-1.035,0.303
-32.284,50.239,-1041.958,4.144,-1.208,0.049
-35.713,50.806,-1033.840,3.977,-1.543,-0.143
-40.928,49.398,-1034.263,4.306,-2.112,-0.344
-36.668,50.811,-1034.498,4.839,-2.526,-0.596
-31.186,50.291,-1022.698,4.460,-2.572,-0.592
-29.295,43.474,-1014.375,4.384,-2.424,-0.390
-21.000,31.000,-1009.000,4.970,-2.240,-0.210
-20.041,21.027,-994.469,6.026,-1.951,0.031
-26.823,14.922,-979.800,7.312,-1.518,0.239
-28.429,9.335,-969.603,8.222,-1.233,0.362
-27.289,7.373,-971.453,9.082,-1.162,0.464
-21.846,10.094,-977.460,9.640,-1.098,0.336
-9.058,23.688,-979.785,9.035,-1.145,0.102
-6.598,30.780,-988.993,6.936,-1.268,0.071
-20.947,22.547,-1003.792,4.125,-1.330,0.010
-25.694,18.327,-1017.924,1.860,-1.238,-0.077
-15.826,7.470,-1021.090,0.459,-1.028,0.045
-13.137,-8.037,-1012.946,-0.432,-0.946,0.290
-24.063,-18.644,-1001.422,-0.720,-0.855,0.300
-31.372,-24.501,-993.171,-0.091,-0.747,-0.051
-19.324,-16.105,-992.265,0.537,-0.687,-0.302
-8.000,-7.000,-998.000,0.350,-0.560,-0.420
-13.919,-3.628,-1009.578,-0.463,-0.389,-0.497
-15.002,0.510,-1012.617,-1.681,-0.085,-0.386
-9.826,-0.839,-1006.524,-3.096,0.085,-0.303
-15.012,-8.374,-1003.753,-4.486,0.021,-0.254
-22.459,-12.454,-1002.611,-5.054,-0.172,-0.349
-26.593,-5.490,-1006.392,-4.962,-0.596,-0.623
-24.632,6.845,-1013.515,-5.377,-0.926,-0.859
-22.699,12.915,-1019.552,-6.238,-1.044,-1.106
-28.600,12.705,-1024.997,-6.777,-1.106,-1.148
-23.696,16.138,-1028.113,-6.515,-1.176,-1.013
-14.151,19.498,-1029.594,-5.626,-1.145,-0.962
-18.421,21.775,-1029.172,-4.357,-0.992,-1.025
-25.823,33.405,-1023.429,-3.350,-1.124,-1.149
-29.407,45.304,-1013.681,-3.248,-1.359,-1.102
-30.000,50.000,-1011.000,-3.430,-1.610,-1.050
-23.440,51.879,-1014.707,-3.375,-1.991,-1.121
-17.257,52.113,-1013.523,-3.376,-2.066,-0.994
-23.146,50.950,-1006.825,-3.583,-1.921,-0.703
-26.305,44.907,-993.966,-3.614,-1.658,-0.387
-25.518,32.944,-981.244,-3.186,-1.396,-0.142
-31.028,22.356,-985.352,-1.704,-1.299,-0.159
-27.388,23.493,-995.489,0.746,-0.943,-0.126
-22.940,31.417,-997.874,2.511,-0.515,0.182
-23.132,38.013,-1001.174,3.063,-0.210,0.503
-16.685,37.899,-1001.969,2.891,0.038,0.684
-20.248,24.716,-999.507,2.197,0.086,0.670
-31.916,12.329,-1000.017,1.840,0.229,0.617
-34.798,6.680,-996.199,2.402,0.380,0.631
-28.445,6.507,-993.009,3.002,0.530,0.536
-16.000,12.000,-996.000,3.220,0.910,0.350
-12.949,14.710,-999.405,3.142,1.063,0.219
-23.050,18.193,-1004.142,2.502,0.900,0.206
-29.231,24.096,-1010.755,1.628,0.716,0.190
-27.464,26.576,-1019.714,0.630,0.514,0.051
-23.120,23.502,-1024.953,-0.337,0.232,-0.146
-18.087,21.990,-1024.742,-0.954,-0.057,-0.313
-20.647,19.551,-1023.939,-1.271,-0.219,-0.427
-31.379,13.220,-1022.254,-1.151,-0.341,-0.489
-32.543,14.917,-1016.221,-0.496,-0.375,-0.441
-24.781,19.079,-1006.313,0.468,-0.207,-0.394
-18.094,26.034,-1002.007,1.057,-0.082,-0.485
-16.891,33.455,-998.852,1.066,-0.056,-0.415
-27.930,32.120,-995.561,0.707,0.034,-0.129
-29.720,30.956,-997.104,0.392,0.164,-0.081
-15.000,29.000,-992.000,0.140,0.420,-0.070
-11.892,23.978,-983.683,-0.806,0.735,0.238
-20.525,16.051,-983.185,-1.564,0.884,0.327
-20.743,6.440,-992.184,-1.089,0.963,0.192
-16.555,0.502,-1006.594,-0.049,0.966,0.292
-23.740,3.841,-1020.209,1.048,0.866,0.324
-25.977,17.150,-1036.793,1.758,0.743,0.069
-18.736,24.125,-1046.163,1.162,0.704,-0.232
-23.339,23.988,-1041.661,-0.441,0.772,-0.536
-28.274,23.597,-1032.166,-1.556,0.574,-0.799
-25.062,20.470,-1023.582,-1.845,0.260,-0.937
-19.020,20.878,-1015.326,-1.627,0.184,-1.041
-15.326,22.228,-1003.221,-1.056,0.064,-0.997
-19.356,22.271,-998.842,-0.703,-0.114,-0.772
-16.919,25.660,-998.430,-0.525,-0.128,-0.705
-11.000,29.000,-990.000,-0.350,0.070,-0.770
-14.261,29.235,-981.864,-0.744,0.375,-0.827
-16.028,27.367,-978.490,-1.123,0.672,-0.909
-11.904,26.883,-983.192,-0.598,0.974,-0.820
-12.438,27.289,-993.853,0.227,1.052,-0.532
-20.290,31.212,-1007.770,0.966,0.937,-0.258
-23.841,36.627,-1024.538,1.254,0.917,-0.119
-17.316,32.397,-1033.210,0.873,0.987,-0.067
-11.085,25.394,-1029.654,0.510,1.051,-0.067
-14.537,20.355,-1020.519,0.299,0.908,-0.124
-18.221,14.687,-1016.864,0.449,0.594,-0.192
-13.263,10.422,-1015.710,1.274,0.382,-0.201
-11.122,6.899,-1009.245,2.208,0.356,-0.067
-15.510,13.241,-1002.260,2.541,0.311,-0.001
-18.081,22.789,-1004.124,2.234,0.019,-0.087
-16.000,21.000,-1013.000,1.470,-0.140,-0.210
-13.800,18.142,-1008.832,0.101,-0.016,-0.288
-17.579,15.833,-997.807,-1.311,-0.017,-0.135
-19.734,8.847,-994.898,-1.969,-0.262,0.009
-14.753,4.359,-1002.273,-1.684,-0.585,-0.039
-8.895,6.628,-1017.763,-0.561,-0.741,-0.066
-3.908,13.939,-1029.534,0.437,-0.881,0.030
-0.948,21.397,-1044.154,0.541,-0.977,0.146
-5.210,20.585,-1047.837,-0.007,-0.846,0.146
-19.956,9.580,-1032.513,-0.936,-1.008,-0.007
-34.547,2.112,-1027.440,-1.361,-1.561,-0.315
-37.813,4.123,-1021.998,-1.015,-1.957,-0.518
-39.130,12.877,-1009.202,-1.201,-2.271,-0.612
-40.551,23.663,-1004.544,-2.429,-2.847,-0.869
-29.526,26.076,-1006.356,-4.189,-3.157,-1.252
-15.000,31.000,-1005.000,-5.600,-3.010,-1.610
-11.837,39.412,-996.365,-6.676,-2.945,-1.750
-13.176,39.382,-988.369,-7.834,-2.852,-1.704
-18.687,33.035,-981.242,-7.988,-2.701,-1.611
-30.044,26.235,-983.995,-6.523,-2.624,-1.425
-32.050,33.628,-992.919,-4.190,-2.581,-1.145
-25.630,46.672,-1001.525,-2.211,-2.592,-0.843
-24.140,57.882,-1016.074,-1.141,-2.593,-0.619
-28.534,64.180,-1026.283,-1.025,-2.775,-0.620
-33.648,56.882,-1038.850,-1.340,-3.065,-0.761
-32.311,49.850,-1045.007,-0.949,-2.900,-0.666
-30.510,36.786,-1029.402,-0.044,-2.511,-0.405
-29.540,28.943,-1013.496,1.163,-2.452,-0.367
-15.668,36.030,-1000.428,2.475,-2.296,-0.420
-5.830,32.766,-983.416,3.403,-1.995,-0.238
-13.000,27.000,-971.000,3.780,-1.890,-0.000
-15.610,26.928,-970.063,3.755,-1.828,0.064
-11.274,27.174,-979.748,4.108,-1.779,0.124
-13.337,25.793,-994.478,4.097,-1.635,0.120
-18.337,25.123,-1009.279,3.568,-1.437,0.018
-18.846,25.521,-1016.289,3.037,-1.274,0.004
-20.936,17.573,-1015.514,1.993,-1.297,-0.007
-23.961,9.673,-1017.578,1.632,-1.643,-0.080
-17.722,8.866,-1031.662,2.260,-2.129,-0.326
-12.239,13.123,-1045.484,2.734,-2.649,-0.592
-19.860,22.575,-1047.246,2.861,-2.767,-0.753
-22.593,29.358,-1036.341,2.230,-2.422,-0.985
-8.304,29.435,-1014.406,1.098,-2.132,-1.052
1.183,27.281,-999.315,0.415,-1.995,-1.065
-4.713,23.045,-985.492,0.200,-1.869,-1.020
-21.000,15.000,-975.000,0.490,-1.750,-0.630
-34.546,10.136,-984.817,1.446,-1.693,-0.252
-29.580,11.130,-995.828,2.255,-1.544,-0.036
-19.390,14.474,-1002.232,1.998,-1.276,-0.006
-16.033,16.110,-1002.088,0.601,-0.889,-0.158
-18.332,7.001,-991.145,-1.255,-0.331,-0.204
-19.794,-8.101,-980.572,-2.254,0.277,-0.120
-18.027,-13.995,-969.185,-1.585,0.720,-0.067
-22.528,-8.718,-965.546,-0.295,0.716,-0.005
-25.484,3.342,-980.216,0.528,0.470,-0.029
-21.747,21.677,-1008.844,0.626,0.276,-0.261
-18.364,42.346,-1037.288,-0.544,0.136,-0.444
-24.983,49.622,-1050.460,-3.008,0.211,-0.521
-42.019,36.596,-1043.850,-5.724,0.537,-0.572
-44.846,19.856,-1022.294,-6.890,0.878,-0.548
-30.000,10.000,-1002.000,-5.950,0.910,-0.420
-20.238,5.839,-992.797,-3.861,0.725,-0.460
-22.724,12.895,-988.097,-1.583,0.629,-0.627
-23.695,32.774,-986.109,0.081,0.693,-0.578
-18.587,52.495,-987.108,0.540,0.846,-0.556
-27.633,58.670,-985.478,-0.744,0.781,-0.405
-36.854,56.284,-995.986,-2.620,0.598,-0.277
-20.477,50.180,-1013.996,-3.611,0.561,-0.270
-15.942,33.482,-1018.963,-3.787,0.620,-0.018
-34.791,18.646,-1019.762,-3.554,0.799,0.072
-40.203,14.428,-1019.794,-2.513,0.914,0.109
-33.520,15.348,-1021.069,-0.067,0.859,0.133
-27.715,26.059,-1023.687,1.690,0.654,0.012
-27.976,37.961,-1024.145,1.852,0.300,-0.126
-32.399,43.578,-1026.424,1.334,-0.144,-0.388
-29.000,45.000,-1029.000,0.070,-0.630,-0.490
-18.608,44.082,-1031.852,-0.765,-1.003,-0.539
-10.819,42.552,-1029.226,-1.399,-1.274,-0.675
-10.135,35.726,-1021.065,-2.216,-1.364,-0.715
-13.077,27.822,-1010.531,-2.433,-1.284,-0.651
-21.815,17.582,-996.486,-2.419,-1.241,-0.503
-23.825,8.739,-985.763,-1.810,-1.067,-0.397
-13.341,8.112,-978.840,-0.521,-0.990,-0.271
-12.692,12.304,-988.444,0.883,-1.305,-0.269
-13.210,26.132,-1008.256,1.765,-1.396,-0.456
-8.203,40.209,-1013.763,1.617,-0.964,-0.522
-9.799,44.226,-1014.507,0.634,-0.536,-0.388
-13.917,37.767,-1013.728,-0.739,-0.367,-0.213
-18.135,27.321,-1010.076,-0.884,-0.372,-0.243
-18.933,25.249,-1010.233,0.442,-0.614,-0.365
-21.000,30.000,-1014.000,1.820,-1.050,-0.420
-25.043,41.728,-1024.336,3.017,-1.431,-0.425
-21.964,54.765,-1030.097,3.234,-1.558,-0.372
-21.239,57.524,-1023.196,1.777,-1.432,-0.281
-21.030,45.526,-1013.651,-0.112,-1.185,-0.109
-14.271,20.896,-1001.792,-0.712,-0.840,0.058
-14.156,0.604,-989.624,0.353,-0.603,0.149
-24.963,-3.770,-984.907,2.260,-0.634,0.057
-32.153,6.711,-984.970,4.221,-0.572,-0.066
-21.753,25.119,-986.765,4.947,-0.438,-0.116
-9.817,37.968,-993.818,3.791,-0.342,-0.216
-14.632,40.348,-1000.298,1.580,-0.183,-0.135
-20.447,33.947,-1005.385,-0.733,-0.112,-0.044
-15.884,20.491,-1009.399,-2.091,0.081,0.046
-12.146,7.237,-1006.518,-2.192,0.301,0.231
-20.000,0.000,-1007.000,-1.400,0.350,0.210
-26.802,3.586,-1006.337,0.104,0.304,-0.028
-27.865,13.756,-1009.131,1.475,0.143,-0.215
-30.921,25.666,-1021.762,2.080,0.257,-0.121
-23.630,41.066,-1021.694,1.618,0.382,-0.060
-19.268,43.464,-1015.979,-0.006,0.358,-0.067
-24.896,32.245,-1008.436,-1.647,0.537,-0.080
-22.737,22.295,-996.243,-2.397,0.634,-0.060
-23.713,14.357,-989.480,-1.905,0.756,0.130
-23.036,14.672,-983.421,-0.591,0.812,0.146
-12.273,21.621,-986.820,0.682,0.591,0.207
-6.770,31.916,-996.522,1.686,0.630,0.394
-8.189,43.866,-1002.370,2.018,0.673,0.595
-14.492,42.689,-1013.471,1.773,0.413,0.829
-21.581,30.246,-1033.047,1.361,0.457,0.921
-17.000,27.000,-1042.000,1.750,0.770,1.050
-8.054,30.380,-1026.951,2.448,0.966,1.177
-16.795,21.008,-1013.155,2.124,0.928,1.219
-29.674,6.508,-1013.035,2.718,0.546,1.005
-24.094,6.017,-1019.863,4.669,0.198,0.724
-17.887,20.794,-1022.303,6.035,0.149,0.859
-17.659,35.099,-1013.361,5.689,0.228,0.981
-13.765,32.182,-1003.377,3.584,0.200,0.906
-15.593,18.962,-998.150,1.140,0.013,0.910
-18.543,8.794,-997.502,-0.425,-0.071,0.821
-15.089,1.505,-991.594,-1.100,-0.063,0.573
-18.294,-4.071,-983.676,-1.731,-0.096,0.401
-26.298,-4.230,-986.213,-1.952,-0.201,0.303
-27.528,0.933,-995.115,-1.556,-0.437,0.162
-21.675,9.685,-1009.693,-1.498,-0.743,-0.038
-11.000,23.000,-1029.000,-1.890,-0.910,-0.350
-5.802,33.845,-1045.294,-2.435,-0.965,-0.611
-9.540,40.363,-1050.805,-3.087,-1.085,-0.645
-14.175,43.560,-1045.653,-3.962,-1.210,-0.591
-21.440,37.974,-1040.892,-3.918,-1.576,-0.515
-29.904,30.965,-1041.226,-2.851,-2.205,-0.519
-33.040,32.106,-1038.493,-1.768,-2.668,-0.770
-27.193,40.760,-1026.946,-0.462,-2.799,-0.990
-13.989,48.613,-1013.092,0.274,-2.675,-1.107
-5.937,51.805,-997.752,-0.059,-2.443,-1.298
-11.323,49.944,-981.733,-0.764,-2.150,-1.329
-24.023,40.625,-965.729,-1.463,-1.824,-1.051
-33.669,30.560,-950.728,-1.660,-1.405,-0.480
-35.457,21.330,-947.059,-0.851,-1.024,0.063
-25.868,18.236,-950.884,0.193,-0.809,0.206
-12.000,23.000,-963.000,0.630,-0.560,0.070
-6.156,28.040,-986.246,0.838,-0.313,-0.063
-7.517,34.747,-1008.360,0.549,-0.085,-0.035
-13.686,34.772,-1024.147,-0.055,0.212,0.108
-20.021,24.807,-1031.993,-0.272,0.481,0.364
-22.593,12.702,-1034.397,0.147,0.557,0.665
-23.084,9.633,-1033.358,1.923,0.347,0.768
-24.068,18.881,-1032.189,4.124,-0.112,0.612
-20.741,30.129,-1040.101,4.971,-0.662,0.368
-8.196,40.610,-1048.694,4.406,-1.055,0.171
-7.419,40.339,-1043.930,2.904,-1.310,0.109
-22.914,26.578,-1029.815,1.005,-1.529,0.205
-22.154,11.155,-1018.510,-0.143,-1.653,0.158
-5.401,-1.586,-1009.857,0.270,-1.684,0.059
-6.884,-9.723,-995.874,1.338,-1.676,0.059
-22.000,-6.000,-986.000,2.030,-1.610,-0.210
-24.546,9.016,-976.409,2.282,-1.540,-0.422
-21.929,16.380,-975.407,1.413,-1.590,-0.351
-22.123,20.392,-992.460,-0.306,-1.600,-0.426
-18.378,30.781,-1000.819,-1.894,-1.426,-0.521
-13.450,35.832,-1003.427,-3.826,-1.146,-0.448
-13.627,30.693,-998.518,-5.993,-0.843,-0.323
-18.352,13.495,-999.487,-7.247,-0.618,-0.282
-20.092,0.305,-1002.033,-6.519,-0.558,-0.348
-18.212,2.339,-1009.892,-3.994,-0.656,-0.302
-19.215,12.554,-1030.360,-1.593,-0.913,-0.284
-24.654,30.468,-1038.890,-0.402,-1.265,-0.506
-27.098,41.163,-1051.249,-0.656,-1.457,-0.702
-22.299,43.820,-1034.179,-1.992,-1.465,-0.794
-21.445,43.079,-1021.222,-3.340,-1.474,-0.846
-25.000,31.000,-1003.000,-4.200,-1.470,-0.910
-19.629,27.348,-985.991,-3.577,-1.246,-0.986
-11.494,29.976,-975.714,-2.230,-0.871,-0.803
-18.972,26.660,-955.368,-1.503,-0.565,-0.496
-24.763,32.820,-983.313,-0.548,-0.240,-0.369
-15.808,41.557,-976.400,0.331,-0.002,-0.183
-25.469,42.666,-999.892,0.315,0.088,0.143
-41.411,38.611,-1001.053,-0.638,0.224,0.360
-33.215,34.292,-1005.796,-0.947,0.409,0.421
-19.628,28.801,-1020.405,-0.347,0.482,0.368
-18.201,22.722,-993.521,-0.183,0.566,0.302
-25.852,26.180,-1031.300,0.615,0.685,0.235
-25.002,30.329,-991.273,1.703,0.540,0.233
-17.861,33.142,-1038.159,2.179,0.530,0.408
-9.444,36.171,-1002.265,2.056,0.821,0.497
-2.000,34.000,-1009.000,1.890,1.120,0.630
-6.783,27.276,-1026.289,1.676,1.200,0.774
-12.976,21.210,-936.780,1.619,1.168,0.668
-14.397,20.597,-1144.832,2.511,1.146,0.540
-6.344,8.803,-543.040,1.280,0.451,0.209
