acc_x[mg],acc_y[mg],acc_z[mg],gyro_x[dps],gyro_y[dps],gyro_z[dps]
-1021.000,104.000,-1.000,33.950,12.250,-10.570
-1066.503,78.571,-10.160,36.217,12.840,-18.803
-982.913,58.451,-29.694,26.527,10.521,-25.863
-1085.328,81.253,-30.927,21.743,12.206,-32.543
-993.257,80.555,-23.674,12.709,12.709,-35.803
-1057.304,88.126,-31.221,7.320,13.808,-37.384
-1004.227,81.452,-24.149,-0.186,13.637,-37.633
-1010.721,87.797,-6.071,-5.677,14.038,-38.527
-999.667,86.013,-6.186,-11.691,13.129,-39.610
-982.342,72.909,-20.599,-15.169,10.719,-41.262
-1009.997,54.179,-30.825,-14.278,8.341,-44.061
-987.281,20.092,-28.375,-13.366,5.560,-46.985
-1008.891,-18.290,-21.536,-8.919,4.313,-50.718
-981.309,-49.521,-9.950,-3.519,4.240,-55.449
-985.865,-45.598,2.871,2.074,6.008,-60.390
-976.000,-29.000,16.000,5.740,9.240,-63.000
-969.209,-16.304,22.587,7.392,12.920,-61.765
-974.772,-13.799,14.974,8.117,16.717,-57.344
-957.775,-15.445,10.904,9.446,20.299,-52.439
-962.537,-4.619,-0.606,12.038,22.840,-49.473
-942.833,12.409,-29.255,14.303,23.595,-47.385
-948.616,20.337,-62.334,16.697,23.599,-44.736
-952.682,16.756,-82.597,18.777,22.559,-42.823
-960.458,16.894,-77.863,20.521,20.958,-42.127
-974.728,17.133,-68.459,20.075,20.192,-41.047
-978.778,15.813,-63.137,18.950,20.332,-39.779
-998.787,10.152,-61.645,18.643,20.824,-38.712
-1003.383,10.815,-62.605,17.709,21.495,-38.265
-995.346,14.004,-73.568,15.900,22.522,-38.444
-972.820,13.663,-100.028,14.411,23.418,-39.281
-952.000,27.000,-119.000,13.230,23.660,-41.440
-938.981,39.276,-137.746,9.426,22.705,-43.187
-932.749,37.238,-154.333,5.007,21.202,-43.717
-943.083,18.881,-164.567,1.641,20.398,-43.669
-950.037,5.197,-187.719,-1.441,20.441,-43.409
-960.191,15.164,-207.047,-3.788,21.752,-43.014
-958.651,35.654,-223.145,-8.388,24.224,-40.563
-953.456,48.345,-235.163,-16.462,27.443,-34.497
-963.134,41.323,-225.288,-23.845,31.476,-26.283
-945.192,22.201,-208.240,-30.633,34.540,-17.494
-926.942,15.662,-187.179,-35.876,34.661,-9.353
-920.915,6.441,-164.923,-38.176,32.608,-4.536
-920.046,-16.694,-145.241,-38.004,32.044,-2.770
-932.637,-5.019,-114.957,-32.461,30.673,-0.006
-933.009,-19.950,-96.434,-30.208,23.205,5.397
-966.000,-71.000,-103.000,-27.860,19.110,8.330
-975.286,-79.487,-72.949,-18.581,22.284,6.342
-927.769,-75.639,-6.002,-12.695,22.375,4.772
-940.244,-42.567,9.391,-2.545,20.288,3.939
-966.581,-4.749,-25.038,13.521,23.831,1.933
-963.312,-1.439,-31.034,24.236,34.126,2.992
-974.316,-27.343,24.102,22.408,43.145,9.603
-972.771,-97.758,114.690,9.695,44.794,16.293
-986.714,-150.698,218.547,3.412,38.429,16.697
-1020.917,-174.769,285.463,4.743,25.417,11.814
-1080.337,-192.268,272.712,10.728,14.849,5.935
-1154.450,-181.530,221.567,23.173,11.621,0.948
-1184.156,-150.572,160.804,35.155,13.686,-1.522
-1196.256,-110.183,112.887,43.671,17.362,-0.907
-1171.586,-60.737,82.811,49.805,18.129,-0.155
-1158.000,-27.000,57.000,59.920,15.470,-0.000
-1159.994,-3.370,22.360,75.226,11.755,-0.813
-1150.607,23.550,-31.061,90.803,9.254,-2.062
-1148.941,35.786,-84.581,102.461,7.950,-2.115
-1119.587,31.800,-126.051,106.689,7.650,-1.640
-1110.569,-6.093,-128.558,106.115,7.703,0.119
-1065.967,-47.442,-118.720,103.909,7.309,-1.018
-1046.487,-64.299,-115.919,103.153,5.485,-6.203
-1024.541,-43.470,-127.915,100.723,3.347,-12.727
-985.651,6.316,-153.826,93.304,1.331,-16.975
-981.367,54.942,-165.192,82.910,-1.828,-13.914
-902.822,104.506,-179.250,71.745,-3.458,-8.972
-918.845,106.559,-154.320,63.733,-5.702,-4.359
-773.089,156.019,-154.916,54.505,-8.105,-1.675
-683.010,205.516,-146.062,47.701,-10.769,0.248
-945.000,135.000,-56.000,40.110,-17.640,6.930
-930.405,115.965,-64.808,19.265,-22.752,12.745
-861.892,115.865,-99.454,3.806,-23.336,17.614
-898.834,77.967,-75.452,0.678,-19.595,21.664
-868.825,69.701,-61.766,-3.451,-13.470,22.092
-888.324,69.695,-30.898,-9.138,-8.395,21.615
-872.565,81.158,-13.686,-15.844,-3.564,21.662
-875.839,89.512,18.543,-21.966,-1.485,22.705
-859.418,100.231,98.557,-30.830,-0.554,24.245
-860.164,95.996,158.016,-44.847,1.185,27.965
-920.789,62.636,124.760,-57.226,1.707,32.766
-988.194,19.042,15.542,-65.354,4.317,36.084
-1064.624,-30.102,-91.823,-71.263,12.277,37.788
-1110.422,-69.398,-180.026,-74.514,23.042,37.554
-1158.321,-109.166,-239.711,-71.844,31.929,35.486
-1191.000,-140.000,-262.000,-62.230,36.890,30.310
-1225.765,-160.058,-247.673,-48.239,38.110,23.889
-1271.872,-194.032,-217.169,-32.831,37.537,19.240
-1304.945,-241.657,-196.742,-16.855,36.236,16.138
-1296.083,-278.746,-175.115,-3.139,34.300,11.967
-1244.973,-284.595,-170.571,5.079,31.843,4.456
-1209.754,-261.860,-201.339,10.337,25.622,-4.712
-1165.824,-195.991,-243.951,15.497,17.589,-13.172
-1106.806,-84.298,-267.548,18.885,11.650,-18.129
-1042.624,27.187,-260.664,17.756,4.848,-17.177
-995.462,101.083,-232.473,13.656,-2.449,-12.031
-975.725,136.991,-181.585,8.669,-8.288,-5.001
-970.256,138.718,-139.970,1.392,-13.565,3.712
-975.419,114.914,-125.082,-7.886,-17.501,12.901
-979.015,76.030,-108.815,-18.117,-19.469,20.622
-992.000,29.000,-110.000,-26.810,-21.000,24.780
-1000.875,1.457,-119.874,-29.146,-23.139,23.594
-1013.598,-17.349,-119.307,-27.241,-24.689,19.213
-1023.593,-45.778,-128.330,-24.035,-25.014,14.147
-1004.383,-55.956,-132.464,-18.164,-23.599,7.943
-973.742,-40.418,-131.021,-12.886,-20.310,0.475
-943.812,-8.067,-137.026,-10.531,-16.919,-6.701
-928.393,19.703,-147.785,-10.415,-14.231,-11.782
-920.804,42.060,-151.337,-11.812,-11.931,-14.330
-908.825,68.036,-143.805,-14.834,-9.883,-14.273
-895.841,96.054,-136.138,-20.380,-8.900,-12.134
-887.018,120.958,-130.570,-28.080,-9.433,-8.082
-901.676,107.397,-142.561,-36.147,-10.607,-1.711
-922.695,74.585,-144.248,-39.949,-10.741,4.218
-924.315,55.626,-111.255,-42.752,-9.184,7.705
-922.000,66.000,-86.000,-49.070,-8.190,10.430
-935.669,81.701,-82.425,-54.710,-8.019,13.940
-953.905,66.020,-87.945,-57.844,-7.791,18.008
-957.633,36.210,-86.029,-57.602,-7.631,20.733
-982.325,-36.573,-72.127,-58.040,-7.005,19.016
-1038.878,-95.648,-70.304,-59.943,-7.655,11.080
-1090.234,-102.881,-90.253,-53.982,-9.430,1.898
-1121.491,-108.816,-98.402,-40.452,-9.358,-4.494
-1124.773,-87.283,-80.330,-26.344,-7.393,-9.678
-1113.215,-70.616,-73.771,-14.352,-5.114,-12.773
-1115.939,-74.623,-80.346,-4.408,-3.789,-14.962
-1132.717,-79.851,-88.247,3.874,-3.750,-17.639
-1145.855,-88.188,-94.589,11.366,-4.385,-19.041
-1154.835,-94.015,-88.465,18.340,-5.214,-19.794
-1167.178,-118.658,-84.830,22.895,-7.418,-19.745
-1179.000,-139.000,-76.000,27.650,-11.690,-19.740
-1177.299,-138.031,-49.999,37.599,-16.865,-21.109
-1168.691,-126.794,-27.680,52.048,-22.573,-22.357
-1153.954,-95.526,-1.123,66.739,-28.230,-22.418
-1116.002,-40.102,26.562,77.023,-33.365,-20.333
-1077.512,9.972,20.202,82.301,-37.743,-15.910
-1043.506,31.153,-6.400,87.833,-40.840,-10.265
-1006.392,42.832,-37.824,95.017,-42.238,-6.164
-974.579,50.576,-77.925,99.644,-41.539,-4.737
-942.017,59.097,-118.175,100.371,-40.395,-4.756
-933.374,85.834,-174.244,101.013,-39.152,-6.818
-940.977,147.524,-243.540,105.516,-36.420,-8.634
-932.052,229.052,-294.083,107.410,-32.571,-4.799
-900.278,294.038,-300.281,97.415,-28.382,7.336
-847.818,344.176,-261.222,79.436,-26.278,24.395
-810.000,347.000,-207.000,62.580,-29.050,41.020
-803.092,273.776,-151.452,51.689,-35.894,54.699
-813.579,185.907,-99.516,46.888,-43.347,62.483
-818.743,151.978,-52.667,45.391,-48.286,64.567
-807.576,179.186,-8.059,44.306,-50.290,65.067
-798.459,225.093,15.731,39.321,-50.892,67.476
-798.912,257.350,15.749,29.499,-50.415,73.105
-811.483,258.661,7.313,19.059,-47.808,79.565
-837.506,222.005,1.163,10.494,-43.189,84.683
-876.791,160.739,2.193,4.795,-37.120,86.896
-928.459,83.547,5.432,1.820,-30.171,85.668
-978.236,8.837,6.052,0.120,-23.002,82.475
-1007.365,-33.460,6.494,0.045,-15.723,77.437
-1001.651,-15.379,6.241,2.604,-9.708,70.941
-972.939,54.187,-1.440,6.878,-5.434,64.766
-939.000,127.000,-9.000,9.870,-2.170,61.460
-912.662,165.287,-13.887,10.426,-0.249,61.387
-900.686,159.556,-7.605,9.460,0.513,62.647
-898.914,131.211,6.470,7.439,0.329,64.036
-910.092,97.915,17.235,6.121,-0.762,63.488
-923.077,69.376,32.465,5.783,-2.587,60.905
-926.212,55.297,39.625,6.080,-4.561,57.512
-908.975,61.209,57.807,7.928,-6.289,53.035
-880.983,79.942,70.103,8.815,-7.584,48.227
-856.546,82.963,69.916,6.432,-7.377,44.079
-834.470,73.985,79.274,1.374,-6.146,39.977
-822.420,71.575,81.812,-4.828,-4.239,34.197
-815.127,78.091,99.044,-10.850,-1.471,26.814
-817.186,86.681,103.602,-18.252,1.362,19.592
-813.584,81.225,115.305,-28.363,4.296,13.541
-805.000,69.000,135.000,-40.180,6.720,7.490
-784.930,67.870,219.870,-54.958,7.631,0.923
-752.400,99.767,389.841,-73.468,6.156,-4.604
-793.774,162.732,355.564,-83.899,5.481,-10.376
-878.972,183.163,200.028,-79.149,10.773,-13.774
-959.713,113.470,131.285,-75.821,16.938,-11.304
-1053.160,44.465,44.564,-74.169,19.104,-12.008
-1108.520,73.116,-49.397,-55.403,24.157,-21.369
-1130.747,146.900,-116.047,-26.914,34.389,-30.503
-1140.952,200.200,-114.417,-6.005,40.440,-33.019
-1150.806,213.878,-66.795,6.596,37.635,-31.207
-1188.930,163.514,-28.329,17.300,32.085,-28.638
-1246.768,76.155,14.201,26.601,28.454,-27.469
-1308.448,-4.965,19.191,33.091,27.576,-29.113
-1355.089,-37.262,-10.722,42.338,29.448,-33.057
-1358.000,-1.000,-53.000,52.010,32.340,-36.260
-1306.595,78.547,-77.337,56.406,34.885,-35.827
-1239.107,172.789,-79.211,56.479,34.073,-30.882
-1185.537,239.541,-89.958,50.643,29.033,-22.252
-1147.705,261.896,-83.078,41.545,23.009,-10.964
-1131.049,251.260,-76.773,36.470,16.593,0.453
-1130.247,233.751,-79.853,40.152,10.970,7.864
-1127.530,220.654,-34.069,48.143,7.857,11.716
-1125.346,194.420,12.854,53.121,5.067,13.681
-1145.958,164.919,5.815,56.798,2.629,12.934
-1172.517,140.606,-16.745,59.097,3.164,11.062
-1179.902,119.891,-54.453,60.330,5.780,8.402
-1171.530,107.751,-88.954,61.902,8.982,4.494
-1158.148,106.754,-111.044,61.327,12.819,0.514
-1149.832,114.976,-149.000,61.469,16.313,-3.924
-1138.000,135.000,-172.000,63.560,19.250,-7.910
-1123.571,147.183,-169.836,64.189,20.476,-9.976
-1115.406,126.515,-146.960,63.475,18.760,-10.935
-1108.150,96.761,-111.360,62.458,16.856,-12.444
-1110.196,75.191,-125.747,60.811,15.407,-15.171
-1103.367,85.080,-179.094,60.357,13.663,-18.197
-1062.793,123.846,-191.041,62.334,12.542,-20.040
-1021.533,148.083,-172.669,63.235,9.907,-19.482
-995.772,154.165,-160.587,60.805,4.589,-17.588
-975.948,144.688,-157.554,55.363,-1.267,-15.350
-966.671,129.756,-156.631,49.519,-6.256,-13.069
-957.990,123.328,-141.433,44.765,-10.077,-11.945
-949.359,128.777,-133.418,36.677,-13.655,-9.881
-942.809,134.573,-127.286,26.390,-17.009,-6.421
-939.201,131.564,-106.960,20.766,-18.895,-4.825
-949.000,131.000,-102.000,20.230,-20.160,-5.250
-962.539,126.511,-127.020,19.567,-21.634,-6.303
-967.499,130.264,-149.901,15.571,-22.619,-6.673
-963.813,139.023,-142.610,9.061,-22.356,-5.867
-959.545,131.732,-138.917,3.899,-21.785,-5.202
-946.738,130.844,-128.223,3.402,-22.476,-5.606
-919.276,145.168,-95.584,2.363,-22.538,-6.936
-894.243,170.409,-70.038,-0.220,-21.651,-8.602
-869.088,203.752,-38.435,1.377,-21.547,-10.193
-845.548,222.100,-20.959,3.432,-21.867,-10.725
-832.262,222.961,-31.205,3.288,-23.286,-9.313
-809.617,236.022,-31.311,3.524,-25.853,-6.812
-773.902,273.484,-14.246,3.009,-27.846,-4.264
-743.977,316.401,0.615,-1.826,-28.360,-0.696
-724.660,346.332,7.685,-11.511,-27.686,5.441
-717.000,352.000,8.000,-21.770,-25.970,13.160
-725.667,322.555,15.712,-30.448,-23.792,20.685
-741.510,264.340,58.604,-37.420,-21.307,26.949
-764.691,198.990,94.457,-41.859,-18.155,29.635
-813.352,145.501,74.281,-41.125,-14.987,27.545
-875.727,109.384,16.647,-34.832,-10.549,22.634
-936.068,74.057,-39.305,-28.948,-5.475,16.470
-1003.576,32.941,-55.748,-27.824,-0.982,9.116
-1076.603,-0.932,-38.169,-31.128,3.413,0.198
-1143.044,-19.736,-7.768,-33.498,6.621,-10.012
-1209.391,-15.483,-10.383,-31.673,8.775,-19.277
-1267.763,7.305,-73.642,-27.484,9.225,-26.270
-1280.766,34.802,-125.947,-21.513,9.346,-29.612
-1249.887,62.153,-130.824,-18.484,9.022,-27.934
-1209.022,85.130,-111.078,-19.038,5.038,-24.859
-1173.000,101.000,-85.000,-18.130,0.490,-22.120
-1130.026,104.013,-62.894,-15.216,-3.716,-17.867
-1075.495,92.900,-33.428,-8.436,-8.885,-13.787
-1031.359,84.937,-7.221,1.645,-13.254,-11.887
-1002.866,97.281,5.187,9.498,-16.912,-11.635
-985.509,121.436,3.315,11.932,-20.140,-10.728
-975.713,145.986,-4.469,12.744,-22.320,-8.931
-964.050,174.028,10.917,14.537,-22.336,-7.582
-951.957,189.728,32.063,11.886,-21.586,-5.199
-939.443,186.302,38.973,6.927,-20.984,-2.772
-931.491,171.157,42.589,5.137,-18.376,-2.484
-926.353,141.778,38.000,4.607,-15.614,-3.321
-917.345,118.696,32.490,4.836,-13.721,-5.361
-908.222,114.229,32.893,4.756,-11.149,-8.992
-901.310,123.098,25.160,3.155,-9.053,-12.979
-901.000,139.000,15.000,1.610,-7.490,-16.310
-900.582,154.325,13.894,-0.480,-5.991,-18.256
-895.959,173.538,14.288,-3.401,-5.054,-18.703
-895.401,185.310,19.745,-6.277,-4.288,-18.042
-906.629,172.885,26.485,-9.808,-3.589,-16.086
-929.039,138.014,17.829,-11.809,-3.609,-14.126
-950.273,105.207,1.226,-10.397,-3.949,-14.425
-964.854,94.931,-11.697,-9.539,-3.432,-16.241
-970.074,101.073,-15.037,-10.183,-2.454,-17.583
-966.278,114.566,-17.139,-10.472,-1.507,-17.727
-959.653,118.694,-25.972,-11.170,-1.115,-16.559
-947.756,108.981,-21.864,-12.152,-1.601,-14.422
-933.341,95.764,1.501,-12.777,-1.437,-11.972
-921.852,83.760,30.101,-11.490,-0.173,-9.949
-916.820,75.789,40.695,-8.127,1.324,-8.473
-920.000,63.000,27.000,-4.760,2.100,-7.350
-926.798,42.868,10.350,-1.780,2.364,-7.125
-933.453,30.211,-3.659,0.112,3.262,-8.223
-930.882,36.591,-4.193,1.389,4.561,-10.007
-922.055,61.409,6.520,2.986,6.083,-11.602
-915.351,99.537,10.152,4.584,6.951,-12.901
-908.452,132.755,25.749,4.916,6.616,-12.867
-907.357,140.848,58.545,1.845,6.775,-10.475
-917.860,137.075,81.365,-1.956,7.710,-7.718
-935.044,139.881,75.145,-3.782,8.027,-6.288
-959.626,141.356,49.307,-3.366,7.928,-5.423
-987.823,126.636,23.570,-0.914,9.203,-3.929
-1007.407,97.737,2.340,0.667,11.894,-1.625
-1016.909,66.420,-1.999,1.568,14.494,0.228
-1019.233,35.236,9.061,2.593,15.554,0.567
-1024.000,7.000,24.000,3.500,14.630,-0.700
-1031.978,-13.492,32.994,3.914,13.553,-2.576
-1040.256,-27.178,10.722,4.790,12.834,-4.776
-1059.932,-33.522,-32.517,9.326,12.293,-7.886
-1080.978,-33.947,-69.593,13.838,12.767,-10.151
-1089.725,-33.707,-95.521,16.178,13.626,-11.000
-1085.702,-24.155,-107.252,18.819,14.467,-12.366
-1067.226,3.557,-100.771,20.831,14.915,-13.947
-1044.510,35.026,-77.881,21.794,14.721,-14.133
-1028.837,51.917,-58.831,22.276,14.490,-12.613
-1014.952,51.046,-46.338,22.815,14.097,-10.394
-994.879,48.057,-28.703,22.762,13.739,-8.824
-975.089,55.718,-13.994,22.863,13.575,-8.379
-958.008,69.841,-2.362,23.690,13.225,-8.394
-948.343,87.721,9.913,24.356,12.657,-8.015
-951.000,99.000,22.000,25.970,12.390,-6.720
-965.591,96.391,26.590,27.959,12.400,-4.248
-989.816,81.234,17.569,29.068,12.287,-0.874
-1012.230,49.063,-0.220,28.346,12.168,2.803
-1038.815,14.797,-28.136,27.339,12.095,5.045
-1059.893,-4.494,-57.881,27.535,12.413,5.268
-1065.161,-8.744,-83.689,27.443,12.711,4.797
-1057.837,0.084,-103.057,28.642,12.982,3.104
-1037.514,20.000,-114.017,30.202,13.190,0.412
-1022.232,50.276,-128.847,29.645,12.067,-1.826
-1003.615,82.413,-125.160,26.444,9.839,-2.428
-985.730,107.170,-97.050,20.370,7.143,-0.643
-989.774,123.449,-86.805,15.620,5.081,1.661
-997.939,129.301,-88.502,11.809,3.801,4.590
-1005.490,117.960,-76.470,5.090,2.175,8.923
-1017.000,90.000,-61.000,-0.770,0.210,11.970
-1028.475,56.966,-48.694,-2.288,-2.026,12.266
-1034.517,28.016,-42.754,-1.436,-3.125,10.681
-1028.464,17.136,-58.204,0.628,-3.052,8.344
-1009.956,30.738,-76.013,4.653,-2.586,5.769
-974.765,53.834,-65.428,7.715,-1.137,4.296
-940.622,72.677,-59.273,7.842,-0.144,4.646
-922.907,83.520,-75.135,8.433,0.495,5.291
-907.246,84.399,-80.099,9.684,1.729,5.840
-895.098,76.594,-81.715,9.633,2.609,6.007
-893.384,74.407,-84.063,9.196,2.977,5.048
-894.200,82.962,-72.322,8.579,2.935,3.906
-892.649,91.657,-53.292,7.151,2.680,3.381
-889.058,99.619,-24.723,5.006,2.619,2.912
-893.659,109.667,-8.674,2.527,3.128,2.384
-910.000,119.000,-21.000,1.330,4.200,2.240
-927.376,115.372,-35.397,1.047,6.335,2.641
-946.081,92.701,-45.439,-0.428,9.494,3.117
-970.241,58.017,-60.178,-1.917,12.429,2.931
-997.453,20.192,-90.701,-2.745,15.662,1.748
-1020.940,-4.141,-125.458,-4.036,18.505,0.016
-1035.425,-14.974,-132.906,-6.483,20.232,-0.459
-1041.229,-18.875,-118.639,-9.080,21.313,-0.380
-1042.080,-9.227,-96.362,-8.400,20.575,-1.032
-1039.181,9.217,-54.499,-5.327,18.381,-0.054
-1033.790,30.487,-1.230,-3.465,15.625,3.299
-1034.953,46.360,24.987,-0.530,13.657,7.099
-1051.425,47.872,2.633,6.561,14.305,9.445
-1078.357,35.894,-57.777,16.232,15.451,10.070
-1100.962,13.368,-120.291,24.949,14.890,9.687
-1119.000,-3.000,-161.000,28.000,13.930,8.610
-1134.582,-1.357,-186.456,25.809,13.148,7.169
-1136.561,9.254,-194.769,22.703,12.500,5.779
-1123.768,22.481,-189.742,18.887,12.571,5.377
-1098.501,39.916,-180.578,15.339,12.388,5.592
-1064.708,59.788,-167.706,13.101,11.121,6.058
-1036.037,82.860,-150.141,11.390,8.291,7.169
-1012.158,110.033,-123.900,9.740,4.320,8.914
-987.895,133.335,-100.575,8.551,0.979,11.358
-963.402,155.905,-76.202,9.618,-1.215,13.566
-943.444,171.893,-47.802,12.105,-2.204,15.437
-939.258,165.819,-51.448,14.711,-2.992,17.224
-943.414,151.861,-80.334,16.948,-4.170,18.120
-941.995,140.636,-95.950,16.022,-4.793,18.007
-941.258,130.683,-103.152,11.465,-4.705,16.894
-945.000,124.000,-109.000,6.930,-4.060,14.490
-950.883,116.506,-111.356,2.200,-3.372,11.774
-957.162,105.424,-116.843,-3.377,-2.859,9.596
-957.541,96.772,-117.964,-7.043,-2.114,7.552
-956.015,97.015,-120.815,-9.383,-1.423,5.957
-947.942,100.578,-123.222,-10.895,-1.229,5.233
-925.152,109.867,-88.987,-11.261,-1.042,5.528
-909.731,121.597,-51.730,-8.108,-0.599,5.964
-918.697,122.460,-61.073,-1.188,-0.299,6.290
-937.057,109.016,-88.053,2.768,-0.128,8.366
-962.901,76.178,-122.629,2.342,-0.294,11.539
-996.685,43.778,-153.930,0.862,0.195,13.211
-1022.587,29.002,-164.254,0.308,2.105,12.512
-1042.748,28.961,-170.150,0.045,4.186,10.407
-1053.834,49.063,-163.156,-1.150,6.170,7.971
-1055.000,74.000,-156.000,-3.150,7.350,6.160
-1049.958,90.721,-148.650,-5.387,7.155,5.223
-1032.756,106.386,-132.431,-7.081,6.411,4.625
-1014.070,127.968,-129.743,-8.928,4.736,4.642
-984.431,161.066,-92.608,-10.230,2.573,5.411
-946.344,197.435,-23.343,-9.960,1.080,6.715
-929.524,221.492,19.912,-4.573,0.728,6.991
-938.540,216.459,24.447,3.149,0.975,6.660
-970.769,184.122,-27.314,3.782,0.224,7.124
-1016.987,139.689,-97.333,-2.479,-0.221,6.679
-1061.905,96.963,-129.506,-12.759,1.694,5.485
-1098.322,72.800,-121.440,-20.682,5.084,2.967
-1135.820,63.219,-104.596,-24.241,7.914,-0.353
-1175.795,49.417,-99.357,-28.933,9.237,-2.281
-1212.873,23.566,-77.884,-31.427,9.573,-4.893
-1258.000,-6.000,-43.000,-32.620,8.260,-7.840
-1312.786,-36.786,-27.344,-34.944,4.692,-10.341
-1362.258,-56.201,-19.438,-31.335,-0.570,-13.335
-1414.466,-67.543,-36.342,-22.788,-7.172,-15.398
-1469.074,-92.128,-85.527,-16.086,-12.967,-15.999
-1493.703,-105.544,-126.462,-10.777,-17.589,-16.327
-1494.791,-101.803,-158.618,-3.766,-22.217,-18.094
-1456.504,-72.425,-161.593,4.616,-25.616,-19.890
-1390.320,-19.612,-174.372,13.085,-27.453,-20.638
-1313.405,14.961,-206.429,25.075,-27.426,-21.769
-1225.374,31.240,-216.004,34.472,-29.055,-20.135
-1140.721,24.838,-224.013,36.882,-34.208,-16.873
-1043.046,13.805,-207.775,39.949,-38.111,-17.237
-966.253,37.586,-192.675,41.206,-40.534,-19.798
-886.117,69.923,-182.113,45.407,-41.066,-23.966
-818.000,98.000,-200.000,55.510,-39.270,-30.310
-738.630,170.408,-204.395,67.320,-34.016,-37.985
-636.462,257.557,-189.012,78.450,-24.773,-43.853
-556.366,323.337,-219.621,80.808,-14.839,-45.561
-441.345,401.240,-196.935,77.517,-4.280,-44.958
-385.252,422.486,-225.916,63.486,1.935,-38.790
-319.337,419.206,-220.718,44.125,5.725,-28.538
-261.938,430.447,-163.171,28.419,11.202,-19.057
-250.649,363.479,-213.850,11.788,14.421,-8.527
-243.615,301.344,-178.226,13.811,20.249,-2.533
-358.327,259.149,-155.566,22.336,25.745,-5.243
-365.205,264.022,-179.074,18.471,24.199,-7.594
-357.207,335.622,-101.230,11.088,24.045,-7.156
-412.697,362.904,14.009,-22.128,24.686,-2.325
-435.235,385.750,50.691,-70.473,10.267,10.056
-597.000,312.000,65.000,-83.650,-9.030,13.440
-804.506,194.199,216.113,-69.009,-14.285,9.764
-1080.645,37.905,256.327,-69.440,-17.759,13.074
-1378.317,-230.182,128.056,-89.808,-18.873,18.754
-1638.288,-444.776,62.884,-103.237,-12.004,19.235
-1878.515,-742.554,-17.195,-99.161,-1.582,6.352
-2008.221,-773.903,-201.577,-78.683,18.473,0.655
-1987.665,-423.198,-252.239,-32.468,30.782,-4.371
-1779.259,-299.449,-120.662,20.998,21.963,-36.121
-1630.023,-267.913,-104.768,42.428,4.903,-61.185
-1578.181,-223.636,-140.946,38.167,-13.622,-68.467
-1501.177,-201.435,-131.256,35.755,-24.577,-73.036
-1422.667,-100.780,-104.722,35.626,-26.664,-70.712
-1317.025,-50.850,-56.664,31.721,-26.953,-62.260
-1241.652,-10.615,-60.728,28.546,-24.129,-49.663
-1147.000,27.000,-63.000,28.420,-21.770,-39.900
-1037.150,77.855,-58.703,25.216,-23.167,-31.607
-948.277,127.804,-51.469,17.637,-27.621,-23.893
-876.590,150.248,-26.472,10.698,-33.015,-18.686
-846.994,183.219,-10.325,6.207,-36.070,-11.524
-803.619,178.794,-5.630,3.768,-36.944,-4.509
-752.418,201.039,-10.720,3.291,-34.657,1.904
-684.749,218.261,-0.879,3.447,-32.425,7.181
-643.367,232.949,-29.366,1.720,-30.593,13.329
-612.896,244.151,-63.164,1.764,-30.199,19.405
-550.717,239.250,-79.114,0.488,-32.690,24.487
-509.004,262.402,-112.576,-6.283,-35.629,29.416
-442.736,254.549,-125.804,-12.976,-40.163,29.375
-407.556,272.514,-134.817,-24.917,-44.496,29.082
-398.315,253.903,-146.039,-40.749,-49.207,29.288
-433.000,256.000,-177.000,-56.490,-44.660,30.170
-552.230,213.396,-161.696,-66.956,-33.935,24.458
-518.803,112.432,-44.373,-62.401,-18.573,12.296
-260.940,160.816,308.650,-67.599,-1.130,13.499
-237.703,182.423,559.354,-88.010,-14.696,8.865
-731.920,269.740,44.792,-86.398,-52.039,-18.240
-1112.721,348.835,-667.986,-77.323,-74.544,-35.189
-1185.669,388.862,-820.887,-92.064,-29.721,-10.892
-1206.613,246.993,-163.686,-113.868,64.541,39.532
-1156.732,-280.224,699.453,-142.281,120.651,82.665
-1398.586,-758.954,752.104,-144.024,102.364,88.646
-1837.334,-1192.738,223.770,-99.533,26.293,49.388
-2040.146,-1030.599,-439.077,-58.257,13.983,3.507
-1855.645,-406.845,-421.494,13.857,75.590,-46.138
-1508.897,-180.293,108.355,79.287,75.963,-82.132
-1385.000,-13.000,15.000,58.660,33.320,-75.880
-1357.050,-22.319,-170.239,31.144,1.185,-72.474
-1338.955,-101.267,-160.752,23.971,-17.598,-70.374
-1345.910,-102.888,-147.215,19.996,-23.673,-57.122
-1344.721,-194.966,-76.812,27.783,-26.787,-47.632
-1314.389,-156.230,-89.595,35.672,-20.739,-37.405
-1237.460,-86.392,-120.368,51.175,-10.746,-30.506
-1074.317,85.960,-114.519,63.654,0.718,-17.631
-853.454,207.390,-36.557,67.482,3.280,-2.941
-741.744,221.813,-55.389,62.864,-6.822,5.795
-691.497,250.741,-147.281,57.962,-18.596,8.382
-638.433,240.882,-168.316,54.780,-25.803,7.850
-551.348,354.251,-138.258,33.751,-23.921,16.905
-438.796,378.664,20.060,9.172,-25.605,24.446
-337.255,355.263,202.312,-21.175,-31.325,34.966
-380.000,295.000,218.000,-55.020,-38.710,49.770
-433.783,158.065,255.722,-91.634,-41.485,58.481
-461.145,172.665,416.100,-132.238,-38.441,56.234
-807.236,121.128,155.806,-139.299,-45.313,25.142
-1034.141,152.731,-360.651,-136.996,-60.614,2.854
-1019.379,306.971,-646.509,-137.043,-43.862,22.345
-980.349,333.066,-583.467,-116.669,35.854,52.327
-955.377,155.911,54.955,-128.941,99.842,81.191
-1190.326,-280.372,563.573,-190.089,125.177,102.671
-1518.006,-729.127,710.810,-197.585,116.092,92.933
-1856.167,-969.167,558.930,-108.065,39.146,54.555
-1854.574,-757.488,-67.719,-3.051,4.979,4.678
-1517.557,-373.736,-202.436,69.595,16.974,-51.493
-1369.901,-137.357,-85.267,78.494,1.728,-84.527
-1317.965,83.887,-208.154,44.460,-8.366,-79.951
-1301.000,120.000,-103.000,36.190,-17.640,-63.910
-1269.267,56.867,-28.818,33.221,-16.662,-38.908
-1243.989,-32.446,-87.365,31.483,-6.986,-13.185
-1186.625,-93.595,-223.403,41.654,2.802,1.443
-1011.227,-21.889,-363.800,52.854,13.199,8.365
-897.192,32.251,-456.283,63.786,11.938,4.613
-808.519,107.210,-486.061,62.512,13.228,-0.468
-716.190,189.472,-365.877,60.427,17.192,-0.827
-610.613,265.864,-208.977,53.215,20.982,4.621
-486.674,326.336,-40.398,40.975,13.185,12.118
-389.845,347.808,183.410,26.990,-5.680,17.399
-400.149,328.843,296.350,-4.428,-27.783,23.820
-527.776,248.779,166.563,-35.606,-54.341,28.157
-572.385,267.172,310.129,-66.132,-59.503,35.696
-666.766,325.850,312.858,-102.106,-49.120,42.319
-855.000,333.000,-137.000,-126.630,-46.200,46.970
-947.867,317.768,-244.786,-135.486,-27.623,59.496
-1018.835,234.264,-226.267,-134.231,18.611,75.548
-1132.399,54.726,-115.755,-143.370,53.712,95.272
-1274.609,-238.148,70.782,-156.127,69.613,102.883
-1426.889,-482.801,224.534,-136.745,75.251,88.190
-1676.696,-633.762,317.000,-89.867,45.701,64.937
-1744.504,-619.329,40.591,-26.987,14.492,30.460
-1437.152,-357.236,-53.583,48.372,14.544,-15.836
-1271.389,-128.761,-3.563,89.770,8.291,-54.074
-1306.416,21.726,-69.883,83.011,-7.939,-67.125
-1326.877,120.573,-30.396,73.262,-13.585,-61.587
-1330.618,124.787,-35.109,67.430,-10.387,-43.140
-1216.976,135.658,-111.158,61.742,-4.568,-16.381
-1041.228,146.097,-211.414,67.757,-0.394,-1.968
-920.000,173.000,-262.000,78.470,2.870,-4.340
-827.230,236.662,-274.694,84.975,6.505,-10.100
-723.922,299.111,-251.038,79.550,8.739,-9.006
-590.054,360.637,-109.630,62.679,8.915,-1.071
-412.504,419.168,123.509,34.629,2.987,9.700
-386.156,389.198,286.727,-6.308,-20.508,19.668
-535.425,299.913,197.455,-42.022,-45.813,23.962
-693.109,271.100,-18.167,-53.308,-50.139,24.245
-829.834,243.551,-171.868,-45.267,-34.907,26.842
-841.781,191.991,-141.445,-40.572,-2.562,36.257
-862.393,98.491,-43.550,-60.299,20.561,48.678
-1039.686,-69.163,-97.891,-88.382,25.266,49.006
-1201.909,-193.442,-92.171,-85.440,42.565,32.084
-1288.640,-224.065,87.354,-73.340,59.636,18.039
-1412.393,-289.833,171.183,-75.399,48.593,14.874
-1511.000,-385.000,63.000,-54.670,33.670,7.420
-1441.558,-345.212,-53.184,-6.181,33.713,-8.386
-1348.888,-232.727,-98.463,40.444,25.043,-25.121
-1341.994,-157.481,-152.338,70.216,3.856,-33.884
-1332.805,-82.364,-167.334,87.149,-8.487,-32.539
-1233.203,2.301,-114.960,96.679,-10.983,-24.857
-1081.579,70.677,-72.508,96.837,-13.928,-15.711
-983.210,108.880,-72.753,94.385,-19.056,-13.565
-911.581,171.849,-107.008,97.733,-21.805,-19.998
-837.922,278.058,-99.372,105.630,-20.466,-27.159
-743.022,390.374,-15.916,106.241,-15.154,-27.050
-634.275,492.182,109.436,92.689,-9.195,-19.877
-559.008,531.987,200.174,69.253,-11.815,-10.750
-549.928,503.411,166.296,46.237,-23.327,-4.140
-631.926,442.445,21.818,32.234,-36.092,-1.791
-747.000,374.000,-166.000,20.720,-42.420,0.840
-848.553,313.111,-269.747,4.393,-30.273,5.867
-934.772,236.143,-219.816,-20.949,-0.070,12.518
-999.685,134.951,-108.014,-53.075,30.817,19.112
-1059.004,19.577,0.968,-75.968,47.009,21.244
-1148.320,-101.016,63.890,-82.572,41.840,18.529
-1267.599,-208.098,30.049,-75.751,27.237,10.741
-1368.336,-276.704,-41.781,-59.614,20.509,-0.141
-1423.261,-310.183,-84.103,-43.410,21.783,-6.763
-1413.262,-322.538,-96.429,-28.098,22.786,-8.036
-1350.891,-291.691,-91.456,-8.422,16.639,-9.193
-1272.865,-216.001,-88.946,14.847,5.173,-13.687
-1188.932,-111.508,-80.483,37.283,-5.908,-20.145
-1113.539,-4.182,-65.309,52.063,-14.790,-25.532
-1051.883,95.169,-44.969,60.040,-18.754,-28.846
-991.000,184.000,-14.000,65.310,-19.250,-29.470
-930.270,237.077,5.095,67.143,-18.780,-27.451
-886.143,274.799,4.752,66.853,-16.542,-24.710
-861.886,304.730,7.369,63.493,-13.934,-22.052
-854.693,308.817,16.561,54.951,-12.116,-17.868
-874.859,284.984,-0.395,42.724,-10.141,-12.695
-911.779,226.825,-8.968,30.711,-5.921,-8.925
-952.479,147.717,18.202,18.015,-0.232,-7.789
-1004.645,67.108,31.326,2.986,3.063,-9.508
-1061.507,-12.023,13.349,-8.661,2.516,-13.100
-1122.740,-85.105,-30.161,-14.516,0.433,-18.196
-1176.966,-137.209,-62.584,-14.923,-0.178,-23.940
-1185.332,-170.136,-47.947,-10.931,-0.953,-28.597
-1170.349,-181.622,-22.187,-4.199,-4.054,-33.082
-1170.796,-170.517,-37.858,4.973,-9.166,-38.960
-1176.000,-150.000,-69.000,14.280,-15.400,-43.960
-1182.036,-115.614,-88.828,25.069,-19.483,-45.206
-1166.409,-69.610,-87.771,37.803,-21.064,-43.206
-1120.226,-24.155,-48.312,45.949,-23.670,-38.803
-1075.685,14.031,-27.041,48.856,-27.819,-34.229
-1028.739,59.777,-7.087,52.955,-30.724,-32.329
-978.747,120.326,39.676,56.745,-32.237,-31.155
-933.962,174.417,71.558,56.967,-34.969,-27.725
-910.409,200.549,72.753,58.682,-37.331,-22.893
-911.479,191.917,37.011,64.042,-36.153,-18.910
-903.866,167.103,16.226,66.150,-32.529,-15.435
-902.492,131.635,9.726,59.136,-29.290,-11.472
-914.277,90.231,-8.080,48.449,-26.879,-8.611
-922.166,54.431,-12.256,41.680,-23.762,-7.970
-931.750,17.982,-0.596,38.749,-20.131,-8.207
-948.000,-29.000,10.000,34.930,-17.710,-8.050
-972.716,-86.778,1.237,29.909,-16.598,-8.631
-986.317,-128.476,2.110,28.679,-15.640,-11.059
-992.615,-140.034,-0.363,30.987,-15.251,-14.370
-999.286,-127.641,-20.783,36.747,-15.491,-17.371
-993.825,-104.400,-24.836,45.852,-15.015,-18.227
-991.104,-92.398,-32.392,52.638,-15.130,-16.349
-990.742,-85.149,-47.758,56.149,-15.919,-13.575
-982.897,-66.926,-46.680,58.239,-15.832,-10.732
-968.095,-38.671,-38.025,57.685,-16.143,-7.560
-950.533,-13.789,-35.504,55.334,-16.695,-4.283
-936.465,-2.633,-28.821,53.853,-16.658,-1.521
-921.960,2.038,-19.625,53.066,-16.653,0.472
-909.667,8.345,-19.924,52.358,-16.384,1.321
-899.182,18.853,-22.027,51.006,-15.984,1.450
-885.000,31.000,-18.000,47.880,-15.820,2.520
-870.146,42.234,-9.375,43.336,-15.624,4.346
-858.024,52.838,1.642,38.033,-15.945,6.145
-856.447,55.493,22.911,32.193,-17.672,8.551
-868.583,44.558,44.608,25.139,-20.415,11.730
-888.556,25.080,61.817,18.746,-22.975,15.196
-920.327,6.128,77.753,14.180,-25.344,18.565
-957.818,-8.097,85.844,9.073,-27.999,22.469
-994.948,-27.946,108.584,1.938,-30.669,27.821
-1035.381,-57.481,139.857,-8.169,-33.369,33.559
-1067.389,-80.735,173.595,-17.807,-36.029,37.069
-1089.958,-90.670,194.009,-23.635,-37.255,37.430
-1098.898,-91.863,174.812,-25.330,-36.942,35.862
-1081.312,-95.258,167.021,-23.516,-36.750,32.872
-1055.341,-112.304,153.489,-23.231,-37.152,28.306
-1031.000,-131.000,122.000,-23.940,-39.130,21.910
-991.017,-128.961,133.060,-24.772,-43.337,14.114
-937.499,-100.129,181.421,-31.281,-48.593,6.253
-904.903,-67.035,230.534,-45.343,-54.992,-0.398
-887.237,-45.951,263.477,-61.188,-63.055,-3.702
-858.215,-39.436,294.604,-75.060,-72.222,-3.694
-855.172,-64.376,316.646,-91.095,-80.438,-2.905
-859.597,-105.063,349.148,-105.341,-86.527,-2.628
-863.635,-146.485,379.127,-119.242,-91.767,-4.868
-915.282,-195.297,386.599,-134.086,-95.208,-9.616
-953.212,-248.839,401.374,-141.059,-97.271,-13.874
-974.245,-315.565,395.004,-146.480,-100.408,-17.900
-989.707,-382.717,417.609,-154.698,-103.618,-22.895
-963.298,-433.429,464.253,-167.273,-106.314,-28.244
-963.633,-431.669,494.581,-178.396,-105.030,-35.524
-939.000,-373.000,511.000,-175.840,-98.140,-46.410
-891.639,-348.003,482.676,-162.291,-94.699,-57.394
-939.098,-372.465,467.735,-137.560,-96.202,-65.388
-960.809,-387.234,468.656,-108.112,-97.012,-73.585
-932.609,-368.476,482.377,-86.921,-97.537,-83.169
-933.584,-322.491,497.407,-81.862,-97.897,-90.010
-912.705,-269.712,490.017,-90.972,-98.135,-92.695
-911.692,-217.089,470.967,-101.100,-96.613,-94.182
-931.061,-165.713,410.438,-107.597,-94.726,-98.483
-913.422,-77.108,388.132,-111.593,-95.196,-105.465
-898.993,63.269,412.456,-122.303,-92.491,-107.530
-905.092,144.589,418.189,-139.532,-85.753,-96.720
-914.463,88.708,421.432,-145.506,-77.435,-75.532
-911.343,-46.318,438.791,-136.056,-68.253,-56.604
-902.087,-179.285,472.769,-118.815,-61.395,-47.754
-902.000,-273.000,484.000,-103.040,-57.260,-46.270
-909.901,-325.535,472.431,-91.868,-54.034,-48.836
-925.119,-335.901,452.203,-82.762,-51.037,-53.676
-933.364,-313.273,425.606,-74.572,-48.669,-58.237
-932.499,-288.225,398.971,-65.468,-45.686,-60.240
-923.568,-267.820,369.324,-54.513,-42.270,-59.164
-916.198,-263.296,353.638,-41.162,-40.218,-56.609
-913.551,-279.431,346.685,-27.552,-38.327,-53.348
-905.447,-295.838,348.688,-14.981,-35.472,-49.986
-899.471,-310.520,342.451,-4.203,-31.967,-47.962
-876.628,-315.186,317.601,6.050,-29.878,-47.595
-876.554,-306.167,320.345,17.614,-28.945,-48.467
-907.155,-281.888,336.199,25.078,-27.483,-49.578
-883.394,-237.643,331.345,29.058,-27.610,-48.714
-860.720,-201.720,329.418,30.418,-29.100,-43.973
-861.000,-176.000,330.000,30.310,-29.260,-36.050
-830.788,-155.960,324.990,32.013,-28.350,-24.524
-809.396,-177.135,331.480,27.179,-27.276,-10.650
-792.083,-213.844,339.013,15.169,-24.834,-1.589
-783.768,-222.839,331.195,3.217,-21.217,1.416
-795.259,-225.768,325.971,-3.632,-18.458,2.524
-798.100,-231.264,339.114,-4.535,-16.192,3.875
-803.594,-242.334,354.888,-4.694,-13.917,7.166
-802.973,-265.843,360.884,-3.073,-12.455,10.783
-784.853,-297.114,360.258,1.648,-12.028,12.471
-774.813,-327.796,361.874,7.186,-12.083,11.774
-774.123,-339.935,370.520,10.133,-11.783,9.308
-764.099,-337.030,372.436,9.351,-10.924,7.153
-752.644,-319.103,373.691,8.253,-9.272,5.326
-738.446,-302.769,387.427,6.814,-6.984,4.505
-726.000,-302.000,399.000,3.710,-4.480,6.020
-721.912,-303.551,406.645,-1.126,-1.779,8.420
-717.380,-323.425,414.624,-6.315,1.522,11.547
-727.555,-353.420,416.885,-10.166,5.151,15.379
-726.056,-371.803,417.197,-10.861,8.079,17.028
-708.050,-368.819,418.392,-6.929,10.693,14.943
-707.998,-349.506,419.054,-1.217,12.015,11.315
-707.630,-336.257,420.224,3.830,11.886,9.162
-701.536,-328.402,426.334,6.233,12.252,9.653
-693.508,-328.432,435.677,4.230,13.549,12.613
-692.367,-337.957,446.116,-0.391,15.122,16.515
-701.876,-351.270,454.512,-5.258,16.131,19.241
-705.825,-359.054,462.305,-7.669,18.030,20.292
-709.527,-356.929,476.027,-7.787,20.723,21.155
-717.586,-356.191,479.689,-8.350,22.663,23.190
-731.000,-358.000,477.000,-7.490,24.430,25.480
-742.629,-359.657,473.227,-4.203,26.242,27.343
-752.354,-361.819,464.869,-0.771,28.217,29.683
-763.256,-360.306,458.536,1.318,30.199,32.421
-770.447,-355.198,448.310,1.221,31.784,34.929
-776.849,-351.822,447.289,-0.995,32.569,37.678
-776.356,-351.957,455.015,-5.495,33.216,40.800
-777.367,-367.786,465.815,-9.523,34.012,43.030
-783.462,-390.506,467.644,-11.002,35.213,43.997
-795.381,-409.975,457.687,-12.061,37.336,44.048
-815.261,-428.750,448.442,-16.189,39.745,43.678
-821.641,-427.582,433.957,-25.315,42.162,43.599
-820.197,-413.230,447.704,-37.643,43.242,44.011
-820.670,-382.332,447.812,-53.796,44.214,46.623
-835.941,-346.530,430.988,-70.503,44.999,51.486
-868.000,-320.000,445.000,-82.740,43.610,57.050
-890.809,-281.369,405.480,-88.749,40.004,63.152
-902.379,-260.904,334.123,-82.080,32.701,66.760
-917.303,-265.556,283.197,-63.326,23.903,65.441
-936.331,-276.788,256.232,-38.601,16.538,61.038
-946.088,-291.110,278.394,-14.411,12.393,56.010
-955.024,-303.104,292.337,1.182,11.260,52.213
-933.854,-320.245,323.934,9.246,11.098,50.041
-893.094,-323.904,408.919,16.463,12.633,47.108
-880.422,-304.902,452.471,31.136,15.594,41.376
-894.612,-301.968,426.595,53.706,22.250,35.743
-929.920,-342.674,395.523,66.041,33.663,33.201
-917.920,-403.950,427.980,54.357,45.504,33.477
-911.247,-464.164,501.968,28.206,52.703,33.049
-968.108,-488.306,505.137,2.306,53.166,26.248
-1002.000,-447.000,449.000,-16.660,50.540,16.170
-1016.674,-388.135,423.683,-25.672,46.067,9.560
-1031.412,-354.515,423.584,-27.187,39.631,6.501
-1053.528,-347.230,433.083,-26.995,33.432,6.977
-1070.094,-353.161,455.953,-27.997,26.272,10.660
-1079.300,-370.170,462.737,-27.805,15.853,15.910
-1104.753,-393.999,415.986,-19.548,4.827,20.930
-1118.670,-410.093,327.900,-0.600,-0.053,23.322
-1127.706,-421.714,241.160,21.500,3.594,23.204
-1113.384,-409.156,170.417,37.949,11.677,20.603
-1065.037,-363.502,143.102,47.207,18.844,16.368
-1018.603,-302.513,167.243,50.447,21.873,12.968
-982.565,-246.888,211.511,48.075,20.019,10.743
-961.219,-219.709,260.945,41.130,14.063,10.627
-954.595,-212.636,299.761,32.823,7.404,12.765
-955.000,-216.000,320.000,26.950,2.590,14.560
-963.691,-219.820,317.667,25.834,-0.337,14.580
-978.831,-204.258,293.653,30.154,-1.796,12.895
-985.999,-169.169,266.407,35.895,-3.091,10.733
-993.230,-132.648,243.101,38.283,-4.081,10.253
-997.256,-114.491,231.356,37.639,-4.308,11.963
-997.366,-112.461,233.090,36.294,-4.236,14.140
-998.907,-119.848,240.779,34.883,-3.881,14.995
-996.857,-130.445,252.964,33.477,-3.268,14.746
-1003.891,-130.605,266.764,32.993,-2.824,13.810
-1009.831,-110.263,278.489,34.239,-2.890,12.652
-1013.821,-73.906,277.659,37.299,-2.919,12.892
-1021.269,-43.486,272.653,42.365,-1.952,14.702
-1030.442,-24.914,278.579,48.259,0.579,18.033
-1048.433,-34.387,284.517,50.545,2.450,23.417
-1075.000,-83.000,286.000,48.650,2.380,30.030
-1092.206,-132.708,286.887,44.357,1.639,35.672
-1078.997,-151.918,287.356,37.339,0.535,37.647
-1064.970,-141.133,282.076,33.638,1.110,36.183
-1063.740,-120.346,254.245,38.926,3.851,33.686
-1066.991,-88.561,203.309,49.632,6.893,31.422
-1072.092,-47.363,162.089,57.996,9.955,30.803
-1061.860,-23.802,151.048,60.329,13.125,32.450
-1048.911,-5.041,159.786,61.923,16.052,34.837
-1034.023,27.200,180.865,65.581,18.074,36.681
-1021.009,55.629,206.873,68.185,19.943,38.984
-1024.342,62.108,224.137,69.268,21.786,43.350
-1030.501,49.754,230.698,69.172,23.172,49.531
-1040.983,26.972,222.210,68.680,25.282,55.762
-1050.404,-1.055,199.711,69.705,28.576,60.158
-1040.000,-18.000,189.000,71.610,32.900,62.370
-1016.112,-20.285,183.176,72.438,37.389,63.005
-987.893,-14.688,166.509,72.608,39.756,61.262
-960.746,10.165,161.451,73.746,40.233,56.346
-939.979,64.654,164.004,72.407,41.620,50.410
-918.504,130.560,167.451,64.310,43.898,47.938
-903.627,174.990,185.536,53.839,44.862,51.161
-897.642,179.950,214.333,44.838,43.213,57.893
-895.752,147.797,241.383,36.901,41.239,64.617
-905.096,87.225,257.145,32.816,40.734,67.975
-925.422,20.305,269.952,34.011,40.624,67.241
-947.623,-16.894,274.896,37.504,42.114,64.291
-951.743,-12.198,260.621,41.549,44.348,60.196
-939.191,18.706,241.131,47.662,45.887,56.277
-919.573,50.138,223.591,55.871,47.392,52.793
-899.000,73.000,212.000,64.890,48.510,49.070
-887.658,94.686,201.078,73.092,49.828,45.555
-872.916,116.732,188.560,78.660,51.146,43.000
-854.916,140.567,182.058,82.429,52.367,41.612
-847.167,157.799,178.381,85.680,52.900,40.202
-849.377,168.226,180.034,89.337,52.516,38.799
-854.020,185.759,177.206,91.303,52.842,38.275
-861.872,203.978,165.043,89.279,53.138,39.359
-872.605,209.787,155.491,85.517,53.321,42.236
-869.587,217.978,151.384,80.602,53.017,45.601
-857.205,238.127,150.058,75.248,51.148,49.057
-847.617,258.589,152.068,71.722,48.475,51.086
-850.097,284.403,161.852,69.469,44.837,51.656
-866.708,295.523,166.472,66.588,41.379,53.535
-883.140,271.955,169.999,62.354,39.580,55.959
-893.000,237.000,173.000,57.890,38.710,57.050
-900.292,201.029,161.176,56.030,37.649,56.073
-914.890,177.347,147.964,58.395,36.405,51.850
-929.026,176.596,127.287,62.474,35.578,45.453
-939.886,188.032,106.995,65.108,34.926,39.521
-952.054,204.771,104.066,63.076,35.637,35.320
-956.100,223.382,100.222,55.653,37.059,33.370
-956.080,242.353,89.173,48.282,36.972,31.990
-957.822,255.455,84.720,44.501,35.638,29.781
-962.568,256.079,91.135,41.983,33.276,27.919
-977.147,241.754,90.257,38.897,30.958,26.354
-997.083,221.969,90.959,37.102,28.793,23.799
-1014.551,206.102,99.242,36.704,26.587,20.183
-1030.868,193.455,97.879,35.524,25.523,16.775
-1044.978,182.009,97.137,34.023,24.418,13.381
-1057.000,170.000,95.000,32.900,22.610,9.590
-1067.631,174.156,91.007,33.261,19.820,5.048
-1075.130,182.097,93.412,35.612,15.646,0.145
-1080.808,184.012,100.584,38.283,11.248,-3.482
-1088.584,201.925,112.020,40.307,6.902,-5.862
-1100.479,208.732,117.143,41.375,2.823,-6.238
-1108.102,208.104,122.933,42.845,-1.046,-6.510
-1114.835,217.562,130.307,44.198,-5.151,-7.597
-1128.951,222.386,130.193,42.681,-9.399,-7.028
-1138.699,235.893,126.257,38.125,-13.757,-5.517
-1142.735,242.881,122.573,33.354,-18.224,-3.087
-1140.118,246.988,129.252,31.333,-23.054,-0.790
-1131.948,260.821,133.636,29.806,-28.498,1.823
-1117.700,262.981,138.534,28.680,-34.201,5.090
-1084.345,275.377,164.637,31.088,-39.757,5.525
-1061.000,297.000,182.000,32.550,-46.970,6.510
-1059.815,297.319,175.853,31.090,-54.634,10.934
-1044.973,292.191,176.258,33.785,-59.976,12.777
-1028.011,303.726,169.019,39.795,-66.463,11.318
-1034.312,315.534,131.644,41.555,-73.933,12.165
-1035.449,313.854,103.673,40.127,-79.313,13.143
-1019.002,321.427,95.299,37.132,-84.350,12.071
-1007.216,342.796,86.403,31.091,-88.656,12.018
-990.794,366.244,82.984,23.246,-90.457,13.098
-966.945,385.893,83.962,15.415,-90.726,15.572
-945.952,396.028,79.714,11.243,-90.685,18.560
-926.491,404.219,54.669,12.192,-90.525,20.708
-914.787,411.831,16.037,17.262,-89.539,22.613
-895.789,407.595,-17.310,23.680,-86.974,24.409
-875.710,384.939,-39.366,25.574,-83.111,27.353
-863.000,367.000,-45.000,19.390,-77.700,30.660
-845.458,368.250,-37.200,6.089,-71.393,32.468
-832.397,374.655,-19.842,-6.841,-66.044,32.831
-821.855,396.087,-2.541,-14.828,-61.068,31.716
-821.165,426.863,6.058,-21.159,-55.513,31.001
-826.706,442.696,0.599,-27.216,-48.914,32.536
-832.886,437.779,-1.828,-33.518,-41.715,35.374
-841.465,409.090,13.436,-40.862,-35.644,38.845
-845.577,368.036,33.156,-49.853,-31.282,41.664
-851.717,335.704,64.943,-59.550,-28.231,42.003
-846.548,322.062,101.705,-66.886,-26.276,39.932
-840.774,317.728,122.669,-70.186,-26.713,35.827
-844.548,317.604,127.505,-67.110,-28.538,30.312
-847.429,316.070,123.480,-57.742,-29.754,24.068
-860.529,295.813,117.897,-45.452,-31.254,17.447
-873.000,271.000,109.000,-34.160,-32.130,10.290
-875.460,264.106,109.557,-27.212,-31.522,2.364
-867.383,282.116,119.574,-23.835,-30.314,-4.431
-852.746,338.855,118.098,-20.101,-29.005,-9.261
-839.433,423.455,96.842,-11.116,-28.116,-12.004
-821.594,489.532,58.128,3.092,-26.390,-10.578
-809.500,511.207,25.159,16.581,-22.191,-5.346
-811.471,495.837,12.703,23.858,-15.999,1.936
-817.646,459.931,18.772,23.194,-8.827,9.671
-820.556,427.209,39.258,18.162,-1.773,15.815
-822.947,410.172,55.098,14.508,3.543,19.935
-829.479,398.885,60.171,15.665,7.101,22.223
-843.059,382.858,57.880,20.207,10.108,23.053
-863.855,364.562,51.272,24.778,12.741,22.386
-886.241,350.163,49.953,26.808,15.120,20.566
-904.000,342.000,45.000,25.130,17.150,18.760
-918.794,340.010,35.171,21.837,19.003,16.856
-932.059,339.114,28.869,18.872,21.202,14.415
-946.691,333.023,23.167,16.185,23.079,11.621
-966.328,321.154,22.256,12.530,24.725,8.772
-980.839,310.661,25.505,6.487,26.859,5.874
-995.421,306.286,29.734,-3.202,29.237,2.902
-1006.689,300.262,28.751,-15.151,31.371,0.059
-1018.759,286.273,28.624,-23.903,33.374,-3.444
-1034.099,269.668,36.537,-28.507,35.249,-8.813
-1047.883,253.779,50.264,-32.609,36.303,-15.458
-1063.559,240.497,70.822,-37.360,37.142,-22.227
-1062.549,235.992,86.581,-42.740,37.484,-29.637
-1059.077,235.707,101.501,-48.578,37.480,-37.225
-1050.185,229.283,109.656,-54.414,38.728,-43.198
-1044.000,212.000,119.000,-59.220,39.620,-47.250
-1030.388,197.147,140.525,-61.730,40.001,-50.337
-1004.888,190.911,164.563,-62.007,40.698,-53.853
-999.561,178.152,189.814,-62.538,40.352,-57.815
-992.387,163.531,198.532,-63.480,38.794,-60.490
-1003.398,148.662,200.747,-61.791,36.479,-61.967
-998.900,129.451,199.873,-58.297,34.763,-64.233
-1004.661,109.443,210.365,-54.966,33.407,-66.577
-1003.084,90.265,221.854,-54.013,31.709,-68.379
-966.860,74.517,228.106,-54.455,28.934,-70.229
-1011.043,47.040,251.859,-55.930,22.887,-70.869
-1019.822,3.425,260.337,-58.694,18.347,-72.195
-981.590,-25.046,275.312,-57.837,17.346,-75.122
-977.843,-16.438,268.414,-54.882,15.193,-79.139
-967.815,26.678,231.932,-48.434,12.363,-88.124
-955.000,89.000,208.000,-39.270,8.890,-99.890
-960.611,120.906,196.035,-34.238,5.322,-107.306
-980.176,102.419,197.888,-34.509,2.125,-108.952
-986.958,47.923,195.375,-37.582,0.526,-109.935
-1010.724,-13.931,205.601,-39.788,2.356,-115.967
-1007.177,-46.987,213.394,-44.781,1.989,-127.947
-1027.832,-55.600,238.074,-51.553,-1.342,-143.519
-1027.903,12.174,231.981,-61.355,-5.272,-157.864
-1038.762,116.721,233.991,-75.991,-8.143,-168.457
-1076.755,183.265,245.647,-98.322,-8.939,-168.238
-961.960,226.764,153.004,-120.619,-5.390,-151.688
-1017.927,176.479,197.670,-121.490,8.809,-133.312
-1109.515,102.154,292.720,-125.469,19.604,-121.625
-1006.451,63.746,272.688,-139.127,16.362,-112.195
-988.142,-0.207,269.247,-140.517,11.669,-106.176
-979.000,-50.000,239.000,-138.600,11.200,-103.670
-986.779,-93.774,222.714,-132.612,15.265,-103.320
-995.386,-133.950,208.875,-121.099,21.762,-105.481
-993.782,-153.108,208.658,-104.078,26.021,-112.244
-1007.799,-142.667,219.016,-85.536,26.400,-123.786
-988.953,-108.719,205.195,-70.525,24.677,-135.242
-1020.979,-68.046,223.323,-57.654,23.420,-140.335
-1031.987,6.177,214.331,-52.169,20.877,-135.522
-1023.721,64.628,211.458,-47.490,17.269,-122.349
-1021.775,77.291,235.229,-42.765,14.174,-101.609
-1005.758,46.314,257.489,-41.081,11.226,-75.359
-1002.569,-41.860,281.127,-40.320,7.468,-50.835
-999.530,-152.883,280.592,-38.776,2.533,-33.505
-1014.589,-254.952,263.747,-30.890,-2.461,-24.404
-1017.734,-301.048,240.511,-17.269,-6.435,-21.847
-1005.000,-282.000,220.000,-0.980,-8.190,-23.310
-983.504,-237.520,200.800,14.713,-8.510,-26.046
-958.796,-191.768,197.088,28.175,-8.837,-27.091
-956.668,-163.832,189.362,37.910,-9.731,-24.757
-961.157,-144.057,166.398,45.343,-10.706,-20.364
-966.949,-121.183,149.041,53.836,-9.789,-15.559
-961.890,-98.709,142.426,61.040,-6.944,-9.078
-938.952,-75.307,158.618,66.415,-3.527,-0.734
-915.283,-58.792,171.731,68.613,-1.075,7.895
-908.652,-53.504,172.641,67.134,-1.125,15.958
-917.600,-62.406,173.757,63.634,-2.851,23.637
-928.511,-89.261,163.333,58.698,-3.133,32.082
-936.114,-117.681,140.427,56.905,-0.793,38.955
-931.998,-128.014,133.833,59.052,2.224,41.635
-933.045,-124.034,143.364,59.859,4.544,42.824
-938.000,-116.000,150.000,58.800,5.320,44.100
-934.866,-101.625,157.447,57.301,5.432,45.202
-940.500,-85.385,156.734,54.826,6.523,47.300
-946.607,-70.887,157.171,52.054,8.165,50.310
-952.311,-52.359,159.410,48.443,9.695,54.003
-959.733,-31.107,157.366,42.328,9.584,59.171
-972.951,-22.379,158.247,34.222,8.602,65.473
-990.029,-42.306,159.162,27.456,8.707,71.867
-1000.986,-74.514,162.780,23.964,8.657,77.118
-1017.335,-107.671,163.154,22.864,7.499,79.527
-1029.655,-131.004,164.476,24.396,5.402,78.819
-1043.456,-127.512,166.742,27.548,3.625,76.715
-1061.787,-127.323,163.067,30.430,1.849,75.216
-1074.082,-137.866,166.648,33.963,-0.933,74.340
-1076.112,-141.025,181.491,39.668,-2.545,71.659
-1061.000,-137.000,195.000,47.320,-2.240,67.340
-1043.470,-122.717,202.866,54.818,-1.400,63.616
-1028.695,-105.320,192.445,60.063,-0.497,61.056
-1025.243,-86.262,164.394,63.653,-0.208,59.345
-1026.166,-59.795,160.497,66.773,-1.223,57.287
-1017.006,-29.752,180.342,68.497,-2.119,55.806
-1014.201,-6.333,198.464,69.472,-2.370,56.184
-1014.942,12.357,206.170,71.809,-2.672,56.885
-1017.236,22.993,204.401,72.616,-2.651,58.181
-1034.373,15.750,193.282,67.543,-3.334,62.222
-1046.820,4.298,177.704,59.837,-4.662,67.628
-1042.948,-5.282,186.861,54.859,-5.944,70.868
-1049.439,3.621,199.951,50.641,-8.102,71.866
-1053.578,27.809,199.402,44.889,-10.205,72.738
-1051.099,40.382,197.692,40.233,-11.326,74.619
-1052.000,50.000,197.000,36.750,-11.900,76.930
-1044.756,49.505,198.311,32.937,-12.567,78.798
-1044.932,39.612,196.841,31.496,-13.998,79.743
-1046.331,37.530,210.070,32.243,-15.351,78.830
-1049.678,43.013,223.156,31.260,-15.915,77.246
-1051.831,56.188,226.114,30.225,-16.205,76.065
-1040.102,58.727,229.236,31.444,-16.310,74.828
-1034.894,47.133,225.602,33.720,-16.158,73.515
-1029.811,41.958,220.472,36.039,-16.268,70.916
-1018.138,44.920,212.840,37.392,-17.077,66.427
-1011.373,50.992,205.863,37.454,-17.840,61.252
-1006.604,64.473,203.135,36.455,-18.525,56.520
-1000.052,83.479,209.673,35.017,-19.183,52.273
-999.240,91.850,208.889,33.459,-18.617,49.022
-995.701,91.079,200.069,31.789,-17.938,47.436
-984.000,98.000,195.000,29.400,-17.570,46.620
-972.941,109.624,184.173,25.940,-16.841,46.033
-959.408,115.786,181.031,22.779,-17.110,44.841
-951.782,121.245,173.225,20.401,-17.342,42.639
-949.209,132.593,165.141,18.347,-17.075,40.102
-945.383,138.971,166.407,15.273,-17.766,37.601
-942.084,134.597,164.378,10.936,-18.025,36.028
-938.843,129.656,160.485,6.605,-18.027,34.094
-936.414,122.795,151.542,2.591,-18.967,30.675
-928.141,111.357,148.486,-0.505,-19.464,26.469
-920.183,104.059,141.938,-2.451,-19.477,21.025
-913.706,101.666,129.775,-3.676,-19.909,14.966
-909.501,98.505,121.080,-5.481,-20.285,9.219
-906.239,98.755,114.891,-8.389,-20.226,3.853
-896.370,103.845,113.335,-11.201,-19.402,-1.274
-888.000,108.000,98.000,-12.110,-17.640,-6.440
-881.675,110.346,73.524,-11.359,-15.810,-11.966
-879.821,119.086,51.026,-11.519,-13.812,-18.045
-878.897,137.365,28.472,-13.803,-10.937,-23.231
-873.585,158.421,9.094,-18.077,-7.384,-26.904
-867.892,177.205,-4.168,-21.879,-2.912,-30.024
-867.624,183.230,-11.666,-23.794,2.510,-32.749
-869.842,183.018,-19.526,-25.070,8.691,-34.217
-860.911,181.352,-22.925,-25.678,15.490,-34.450
-851.718,178.284,-25.006,-25.557,22.634,-34.172
-839.458,186.215,-30.024,-24.161,29.627,-34.091
-815.309,205.041,-34.184,-19.544,35.896,-34.797
-797.029,239.492,-28.842,-13.801,40.910,-35.070
-795.889,269.788,-16.635,-12.609,43.148,-34.148
-814.678,272.720,-4.122,-15.630,43.924,-31.413
-840.000,253.000,26.000,-21.840,46.270,-26.250
-870.367,220.697,48.444,-29.650,50.019,-18.763
-893.141,180.215,56.515,-34.814,53.562,-11.112
-905.989,141.267,53.616,-37.327,56.036,-6.213
-915.380,118.210,42.527,-37.767,56.794,-5.123
-899.164,106.397,71.209,-38.871,56.481,-7.139
-890.565,119.626,117.566,-39.701,56.566,-9.040
-856.563,161.517,214.685,-41.206,54.080,-11.970
-815.443,242.107,308.402,-38.969,50.164,-15.719
-869.642,307.189,268.762,-19.672,45.410,-20.328
-953.429,312.256,236.923,-10.849,35.536,-18.002
-1028.045,298.804,333.740,-40.520,37.579,2.220
-1064.642,234.360,569.724,-86.653,58.562,25.000
-1104.159,128.583,819.965,-131.315,63.481,43.683
-1316.459,-78.510,807.047,-153.299,40.842,55.268
-1547.000,-287.000,570.000,-120.610,26.180,46.270
-1541.295,-244.563,387.092,-54.364,29.257,25.606
-1397.609,-99.575,305.257,-2.650,22.828,5.659
-1314.046,9.510,203.914,31.115,3.724,-10.061
-1302.494,87.058,95.174,61.797,-10.198,-25.090
-1288.162,134.958,26.063,82.991,-15.499,-36.723
-1244.037,197.419,-3.240,89.907,-17.039,-38.886
-1176.616,237.669,-9.887,89.696,-16.461,-36.780
-1113.305,240.368,-30.465,88.076,-13.587,-32.568
-1060.401,207.899,-38.738,87.860,-9.742,-31.153
-1015.416,181.389,-37.242,87.719,-6.190,-34.494
-982.053,188.801,-36.357,82.807,-2.895,-39.302
-947.064,224.464,-26.619,72.243,0.246,-42.908
-913.365,276.797,-25.784,59.439,3.006,-41.125
-885.932,306.251,-28.278,46.811,4.947,-35.098
-859.000,325.000,-30.000,34.230,6.300,-26.950
-832.640,324.599,-26.525,20.203,6.356,-17.865
-813.282,301.481,-10.722,5.604,5.321,-8.892
-808.505,264.497,16.982,-6.795,4.005,-2.070
-823.028,215.646,39.075,-16.085,1.751,1.333
-851.692,176.433,54.909,-22.531,-0.642,2.668
-883.285,148.810,80.255,-28.124,-2.373,3.182
-916.648,135.275,104.755,-33.294,-3.413,3.420
-949.680,124.812,126.584,-35.717,-3.834,2.743
-977.825,119.920,137.646,-35.296,-3.807,1.535
-1003.804,127.570,136.884,-33.428,-3.352,-0.151
-1025.139,136.117,133.732,-32.045,-3.474,-1.276
-1039.805,144.781,129.527,-30.912,-4.083,-0.935
-1047.438,145.953,132.496,-28.067,-5.079,-0.681
-1049.086,134.661,133.576,-24.345,-6.583,-0.595
-1048.000,118.000,129.000,-20.370,-7.420,-0.280
-1040.581,105.468,125.715,-15.524,-7.511,-0.564
-1030.203,96.028,119.216,-9.867,-7.305,-1.672
-1018.463,87.156,113.809,-4.145,-6.929,-2.752
-1004.011,84.281,111.720,-0.024,-5.957,-3.760
-993.545,85.714,104.246,2.232,-4.494,-4.492
-986.001,87.151,93.922,4.515,-3.442,-5.060
-975.106,87.063,90.015,7.012,-2.668,-5.953
-966.341,92.224,91.955,7.684,-1.819,-6.860
-965.457,104.140,87.459,6.361,-0.911,-7.706
-967.895,116.608,76.491,5.353,-0.013,-8.027
-970.002,130.726,72.675,4.701,0.926,-7.725
-971.014,137.094,73.294,2.577,1.763,-6.545
-970.808,129.929,76.528,0.478,2.560,-4.935
-971.236,119.433,81.477,-0.256,3.121,-3.951
-973.000,111.000,82.000,0.000,3.010,-3.710
-972.949,108.784,83.902,0.419,2.883,-4.530
-975.331,110.668,79.891,-0.788,2.617,-5.215
-979.938,111.022,72.625,-1.772,2.146,-5.253
-981.084,111.231,74.888,-1.617,2.149,-5.394
-982.334,112.553,73.726,-2.344,1.960,-5.368
-981.463,114.553,74.059,-2.945,1.541,-5.635
-981.201,117.141,82.645,-3.589,1.381,-6.040
-985.654,115.439,86.991,-5.198,0.883,-6.212
-989.335,108.390,84.812,-6.369,0.768,-6.514
-990.651,104.068,82.987,-6.913,1.594,-6.690
-987.895,100.501,86.609,-7.545,2.188,-6.795
-989.560,96.285,88.087,-7.762,2.563,-7.064
-993.874,94.552,88.219,-7.262,2.843,-7.207
-996.709,92.783,87.632,-7.570,2.685,-6.749
-1004.000,93.000,85.000,-8.960,2.240,-5.950
-1009.385,95.429,85.821,-9.906,1.511,-5.448
-1014.588,99.903,86.534,-10.688,1.010,-4.951
-1023.276,100.021,89.234,-11.534,1.051,-3.852
-1032.303,88.687,92.531,-11.291,1.175,-2.329
-1034.765,72.762,94.925,-9.317,1.385,-1.364
-1032.364,58.091,95.954,-5.961,1.965,-1.541
-1028.549,53.107,96.136,-2.557,2.404,-2.705
-1020.627,59.307,98.053,0.531,2.828,-4.354
-1014.083,69.415,93.106,3.500,3.104,-5.786
-1009.444,79.614,83.483,5.369,2.340,-6.409
-1005.037,83.541,76.030,6.132,1.912,-6.079
-998.345,84.609,78.677,6.543,2.487,-5.473
-992.979,86.503,83.001,7.086,2.980,-5.105
-994.610,86.918,72.883,8.140,3.063,-5.134
-1000.000,84.000,63.000,8.470,2.800,-5.110
-1004.693,76.395,64.087,7.619,2.768,-4.456
-1004.993,67.375,71.232,7.200,3.019,-3.935
-1005.881,62.108,73.405,7.691,3.130,-4.148
-1007.004,66.550,67.516,8.452,2.954,-4.971
-1004.611,75.249,66.987,8.782,2.727,-5.614
-1001.256,82.437,71.851,8.315,2.398,-5.443
-1001.228,84.933,70.718,7.828,1.537,-5.088
-1004.893,83.019,68.889,7.972,0.867,-4.789
-1002.915,85.223,70.983,7.542,0.618,-4.324
-1000.138,87.164,69.429,6.425,0.357,-3.776
-998.176,85.987,70.568,6.299,0.194,-3.255
-991.062,81.200,77.570,6.692,0.126,-2.868
-984.219,76.020,84.952,7.652,0.274,-3.128
-981.999,77.529,83.811,9.801,0.332,-4.259
-983.000,82.000,71.000,11.550,0.070,-5.320
-981.408,90.503,67.203,11.893,-0.015,-5.679
-979.328,97.622,73.728,9.874,0.113,-5.268
-978.372,95.609,75.486,6.586,0.155,-4.098
-980.671,86.330,74.643,5.562,0.099,-2.944
-985.385,77.530,75.464,5.995,-0.094,-2.498
-987.343,79.166,75.801,5.496,-0.312,-2.439
-990.224,84.309,72.688,5.198,-0.270,-2.291
-990.214,88.559,70.021,5.940,-0.149,-1.924
-987.997,94.856,71.465,7.004,0.024,-1.528
-987.803,97.423,72.955,7.534,0.092,-1.315
-984.010,95.785,73.201,6.953,-0.193,-0.851
-980.742,94.455,74.626,6.275,-0.295,-0.230
-979.565,91.893,73.048,6.304,-0.558,0.060
-979.054,88.838,71.003,6.817,-1.020,0.134
-979.000,92.000,72.000,7.210,-0.910,-0.070
-976.321,95.852,67.134,6.430,-0.724,0.005
-975.761,95.963,62.494,5.329,-0.395,0.402
-975.805,95.534,66.180,5.081,0.187,0.240
-977.050,91.094,68.245,4.633,0.464,-0.075
-983.863,86.697,63.681,3.697,0.790,-0.324
-989.795,84.608,58.032,2.779,1.312,-0.722
-989.882,85.249,58.257,1.504,1.781,-0.991
-988.953,89.726,61.856,0.291,2.087,-0.931
-991.145,91.051,61.994,-0.865,2.093,-0.571
-994.696,91.438,63.638,-2.285,1.666,-0.240
-996.719,92.731,66.475,-3.254,1.279,0.325
-996.836,93.105,67.881,-3.730,1.257,0.940
-998.706,92.784,72.737,-3.469,1.007,1.173
-999.973,91.909,77.834,-2.777,0.652,1.355
-999.000,91.000,86.000,-2.380,0.350,1.470
-998.287,88.994,92.810,-2.031,0.161,1.778
-994.661,92.541,91.147,-1.461,-0.175,1.710
-989.370,100.422,86.722,-1.050,-1.072,1.233
-986.857,104.950,81.977,-1.778,-1.603,1.515
-987.018,105.623,87.193,-2.388,-1.678,2.153
-986.820,98.598,90.223,-1.601,-1.372,2.993
-989.552,86.074,78.992,0.075,-1.374,3.020
-1000.228,77.372,69.395,1.441,-2.262,1.823
-1004.580,74.483,68.755,0.790,-2.118,1.537
-1001.660,71.498,75.099,0.099,-1.078,1.645
-1003.517,68.386,73.060,1.823,-0.455,0.716
-1005.247,67.855,64.177,4.026,-0.381,-0.538
-1006.537,66.648,60.228,4.538,-0.482,-1.291
-1008.038,68.720,58.940,4.145,-0.148,-1.742
-1006.000,74.000,59.000,3.990,0.140,-1.960
-1002.514,76.587,57.337,4.162,0.663,-1.724
-999.070,80.987,55.004,4.183,1.130,-1.525
-995.399,86.514,51.508,3.703,0.999,-1.293
-992.095,85.861,52.756,3.570,0.984,-1.137
-990.614,83.474,59.778,3.344,0.637,-1.228
-990.893,84.266,64.858,3.124,0.108,-1.368
-988.824,83.906,65.924,4.001,-0.321,-1.628
-988.841,83.016,64.086,4.381,-0.877,-1.695
-989.595,82.376,64.466,3.313,-1.064,-1.358
-985.778,80.900,67.992,2.306,-0.873,-1.135
-984.898,81.851,72.104,2.065,-0.400,-1.614
-986.663,80.918,68.252,1.861,-0.173,-2.176
-990.703,76.710,64.533,1.929,-0.085,-2.545
-999.612,72.021,59.232,1.548,0.253,-2.536
-1011.000,61.000,40.000,0.630,0.490,-1.960
-1022.977,43.345,21.546,0.385,1.340,-1.591
-1039.536,16.632,2.345,-0.062,2.656,-1.050
-1067.038,-19.933,-21.650,-0.214,3.871,-0.073
-1094.444,-55.743,-39.511,0.625,5.954,0.722
-1111.400,-85.444,-54.010,2.299,8.649,0.671
-1123.315,-104.228,-71.849,4.695,11.027,-0.701
-1126.814,-111.111,-80.194,6.699,13.503,-2.914
-1119.672,-105.030,-83.465,7.607,16.124,-5.511
-1112.324,-87.143,-91.575,7.386,18.238,-9.112
-1106.139,-63.689,-96.086,5.355,19.569,-13.876
-1101.469,-44.637,-95.842,-0.059,20.341,-18.242
-1100.339,-38.706,-81.863,-8.889,21.852,-21.382
-1095.883,-42.106,-61.848,-21.080,23.998,-23.178
-1083.408,-55.319,-40.729,-34.492,25.348,-24.456
-1062.000,-67.000,-23.000,-44.940,25.900,-26.600
-1041.053,-74.220,-8.868,-52.513,25.273,-29.530
-1019.266,-75.132,-3.198,-58.799,23.566,-32.974
-998.961,-75.134,-2.344,-64.009,20.894,-36.476
-992.371,-85.684,12.626,-69.854,16.680,-38.956
-985.697,-89.321,20.780,-77.057,11.803,-40.436
-979.821,-108.132,37.379,-83.030,6.651,-42.172
-968.605,-127.746,41.533,-84.961,2.399,-44.694
-948.403,-136.845,42.361,-79.276,-0.242,-48.845
-929.950,-151.402,34.545,-69.036,-2.509,-52.993
-911.925,-160.274,1.927,-61.632,-4.581,-54.571
-909.639,-196.133,10.833,-60.713,-5.753,-52.760
-867.929,-219.279,-30.787,-67.880,-4.009,-48.995
-858.436,-244.808,-40.443,-72.666,-1.894,-48.644
-946.422,-289.908,2.717,-70.733,0.617,-50.930
-943.000,-275.000,-45.000,-62.650,12.810,-57.050
-933.273,-254.107,-32.618,-42.510,28.581,-68.496
-941.087,-225.668,-13.792,-26.256,34.936,-77.742
-915.424,-179.105,-43.433,-18.987,37.472,-84.388
-987.772,-153.618,-42.522,-7.923,41.357,-91.072
-952.270,-105.454,-83.744,4.757,46.950,-98.008
-917.699,-59.967,-106.585,24.471,59.708,-102.006
-1022.500,-35.490,-74.336,48.173,76.265,-101.353
-1023.458,-21.851,-65.096,57.917,86.396,-97.417
-962.642,-1.976,-113.774,57.309,85.535,-88.093
-912.133,34.037,-147.407,58.700,76.795,-79.700
-885.633,66.218,-122.764,55.659,68.481,-73.813
-856.707,116.811,-118.301,37.860,61.451,-64.159
-826.891,168.314,-105.602,16.115,52.216,-51.385
-801.175,203.692,-67.481,-0.711,44.380,-35.364
-785.000,196.000,-85.000,-15.260,39.410,-16.870
-789.941,159.447,-103.195,-19.298,38.073,-2.055
-759.200,149.813,-65.196,-14.631,41.880,5.153
-739.418,163.769,-38.942,-17.533,41.757,10.140
-708.219,208.062,-58.003,-32.667,33.821,16.626
-763.640,216.727,-144.147,-47.146,24.960,23.074
-780.826,224.738,-205.840,-40.680,24.057,26.384
-717.228,269.661,-89.131,-20.201,33.706,26.969
-839.471,226.809,66.122,-18.769,31.527,36.915
-889.822,95.589,107.962,-42.991,18.598,52.968
-910.287,-80.413,162.335,-67.929,20.080,61.675
-985.054,-254.943,240.552,-84.311,16.888,62.890
-989.710,-400.097,207.709,-100.423,-0.579,54.374
-1147.329,-506.163,57.121,-111.330,-9.642,36.103
-1339.498,-524.237,-182.308,-109.185,-4.031,10.313
-1440.000,-446.000,-411.000,-95.270,17.990,-17.640
-1473.127,-321.562,-483.329,-77.032,53.820,-34.067
-1454.682,-253.652,-379.715,-63.728,95.655,-32.477
-1434.193,-206.038,-154.978,-61.447,126.954,-17.418
-1286.914,-137.659,54.598,-66.150,118.319,-2.381
-1109.752,-109.978,115.527,-54.405,73.052,4.441
-1059.406,-117.136,25.841,-19.527,27.203,2.559
-1095.751,-150.919,-98.736,16.024,-1.200,-7.637
-1162.940,-171.189,-155.586,36.973,-12.603,-17.387
-1188.159,-157.656,-153.941,42.267,-12.239,-19.618
-1173.583,-134.456,-126.630,42.148,-8.455,-15.770
-1127.859,-105.654,-100.013,45.462,-3.635,-11.121
-1058.126,-98.615,-93.226,49.030,-1.491,-9.097
-1012.307,-108.745,-114.797,48.343,-3.171,-10.836
-992.112,-106.508,-137.143,43.062,-3.987,-16.184
-987.000,-92.000,-152.000,33.180,-5.320,-19.460
-980.963,-84.492,-190.332,21.620,-7.731,-18.873
-982.667,-96.864,-229.474,13.055,-9.408,-16.548
-1005.172,-130.348,-271.288,5.365,-9.922,-12.555
-1031.402,-174.733,-308.668,0.455,-7.856,-8.429
-1045.820,-204.528,-306.100,0.805,-2.411,-5.293
-1035.650,-210.472,-272.550,1.564,3.960,-3.471
-1010.890,-197.512,-228.823,2.164,6.923,-2.535
-981.327,-176.531,-195.906,2.660,5.734,-2.164
-953.594,-158.149,-177.266,2.554,2.535,-2.441
-929.234,-140.536,-172.628,2.962,-0.674,-2.741
-907.270,-128.696,-173.232,3.528,-3.408,-3.525
-897.947,-118.447,-176.554,2.840,-6.028,-5.164
-891.612,-99.406,-187.853,-0.443,-8.387,-6.959
-886.986,-77.695,-201.267,-5.719,-10.138,-8.072
-893.000,-57.000,-218.000,-11.690,-10.570,-7.770
-899.411,-43.695,-232.115,-17.983,-9.780,-5.737
-903.743,-46.802,-245.806,-26.619,-8.258,-1.843
-912.720,-64.652,-263.680,-36.429,-5.889,2.633
-923.716,-90.645,-280.067,-43.355,-2.697,5.953
-935.893,-121.522,-287.801,-48.245,0.596,8.354
-950.173,-157.600,-287.094,-51.995,3.630,10.235
-962.974,-193.577,-275.665,-54.959,6.419,11.166
-976.044,-223.040,-255.592,-56.650,8.125,11.104
-986.255,-245.649,-234.300,-54.393,8.207,9.929
-993.221,-260.994,-213.834,-50.426,6.483,7.251
-998.625,-264.689,-209.164,-46.385,3.072,3.424
-997.206,-257.397,-209.649,-40.341,-0.736,-1.173
-992.504,-238.676,-213.853,-33.590,-3.897,-6.352
-986.976,-206.565,-229.363,-28.695,-6.150,-10.698
-978.000,-173.000,-240.000,-26.810,-7.070,-12.810
-966.729,-148.637,-248.757,-27.512,-6.740,-12.361
-957.260,-138.477,-255.723,-29.911,-6.389,-10.248
-956.358,-146.042,-264.384,-32.978,-6.195,-7.541
-958.105,-164.345,-264.271,-34.999,-4.808,-5.154
-954.066,-179.859,-246.538,-36.296,-2.752,-4.592
-954.959,-185.585,-235.791,-37.738,-1.588,-5.756
-960.320,-185.944,-235.077,-37.873,-1.490,-7.725
-961.990,-183.354,-236.884,-35.978,-1.756,-9.677
-961.938,-178.637,-236.567,-33.010,-1.113,-10.891
-962.380,-178.442,-234.698,-30.561,-0.035,-11.276
-963.238,-183.429,-236.363,-28.760,0.506,-11.042
-961.900,-190.300,-239.461,-25.906,1.183,-11.423
-961.012,-198.923,-243.101,-22.750,1.755,-12.167
-963.559,-211.113,-246.576,-20.024,2.351,-12.797
-967.000,-224.000,-252.000,-17.430,2.870,-14.070
-965.877,-227.608,-262.618,-14.730,3.042,-15.967
-956.903,-218.752,-281.903,-10.640,4.339,-18.413
-943.480,-201.011,-303.639,-5.344,5.383,-21.305
-932.473,-182.860,-316.454,0.064,4.947,-24.551
-924.834,-173.605,-318.439,2.439,5.474,-26.324
-914.031,-171.895,-308.664,0.904,7.535,-25.332
-901.037,-170.820,-290.582,-0.810,9.737,-22.647
-888.921,-168.897,-275.797,-2.616,11.133,-19.182
-878.012,-177.061,-268.680,-4.991,11.815,-15.277
-870.152,-196.059,-268.797,-5.828,12.621,-10.860
-866.080,-212.308,-275.407,-4.083,13.795,-7.330
-871.461,-227.179,-278.387,-0.426,15.502,-4.747
-880.733,-244.451,-276.233,3.654,17.581,-1.527
-893.674,-261.385,-273.454,8.769,19.133,1.684
-916.000,-270.000,-269.000,16.380,19.180,3.290
-940.790,-263.701,-264.945,25.041,17.668,3.134
-970.726,-251.945,-254.281,31.871,15.653,3.280
-996.470,-237.329,-237.135,36.413,14.215,4.455
-1010.010,-219.395,-230.114,39.109,13.347,5.818
-1018.973,-205.211,-236.515,39.591,12.344,6.966
-1026.989,-196.296,-247.314,39.147,11.677,7.787
-1036.628,-188.163,-253.213,38.159,11.542,8.361
-1037.570,-170.828,-254.020,35.374,11.357,8.778
-1023.861,-144.280,-252.632,30.637,11.041,9.891
-998.481,-119.922,-250.503,24.906,10.288,12.589
-968.887,-110.622,-253.606,20.627,8.664,16.284
-943.508,-120.156,-260.544,18.916,5.702,19.262
-922.896,-137.897,-274.433,18.334,2.413,20.825
-921.095,-162.481,-296.438,17.932,-0.126,20.938
-930.000,-194.000,-314.000,17.780,-1.610,20.230
-935.012,-213.972,-319.359,18.559,-1.510,18.295
-942.644,-210.068,-312.066,19.748,-0.881,14.096
-949.755,-183.484,-297.574,19.368,-1.095,9.575
-959.640,-148.495,-284.740,16.269,-1.687,7.197
-968.577,-124.707,-277.210,11.371,-1.978,7.618
-974.513,-120.050,-269.232,6.882,-2.085,9.101
-986.155,-142.633,-269.589,2.856,-1.979,10.600
-1000.388,-182.832,-277.970,-0.078,-2.806,10.746
-999.119,-219.057,-262.728,-1.669,-2.374,8.233
-993.660,-235.019,-227.192,-5.212,-0.242,4.418
-1001.262,-231.215,-203.345,-8.796,1.004,0.240
-1011.818,-216.236,-189.847,-8.610,3.554,-3.506
-1037.815,-190.567,-197.513,-5.888,6.434,-6.669
-1054.467,-186.820,-209.245,-3.483,10.094,-6.558
-1082.000,-214.000,-189.000,-5.040,15.540,-3.640
-1161.490,-263.999,-226.697,-4.082,21.878,-1.766
-1256.260,-313.946,-314.722,10.910,31.267,-2.409
-1316.980,-327.590,-361.537,34.792,48.234,-3.441
-1233.772,-314.946,-319.524,51.444,60.966,2.745
-1045.397,-271.865,-149.611,46.402,36.473,17.214
-924.018,-228.740,-24.112,31.096,-11.664,29.685
-895.429,-154.116,61.884,34.020,-44.724,25.270
-885.171,-9.951,156.364,43.282,-64.877,14.741
-892.536,107.345,61.485,52.969,-79.874,15.896
-983.812,216.271,-91.040,93.031,-87.284,16.897
-1048.490,343.029,-178.734,148.738,-84.465,17.761
-1070.731,445.081,-299.841,185.753,-76.877,31.793
-1132.599,514.597,-423.147,203.023,-69.896,58.938
-1109.623,480.741,-424.506,201.629,-62.386,89.415
-1051.000,332.000,-297.000,173.880,-56.280,122.710
-1024.946,159.697,-228.522,130.601,-51.923,154.290
-958.078,2.152,-174.890,104.692,-51.185,166.613
-928.856,-160.660,-79.006,105.553,-47.363,170.632
-883.392,-268.433,-44.909,113.666,-37.992,171.318
-771.171,-283.799,-27.305,117.801,-30.628,158.797
-707.598,-254.624,-38.453,113.540,-25.665,140.089
-612.486,-158.516,-63.224,97.989,-25.378,119.536
-521.223,-42.207,-94.168,76.919,-29.778,102.077
-528.598,33.371,-172.064,52.650,-35.802,90.859
-526.629,82.004,-202.361,26.927,-34.889,84.533
-528.161,92.086,-166.476,-2.067,-25.575,84.111
-571.247,60.627,-143.550,-36.489,-21.381,88.228
-581.228,5.986,-121.147,-50.824,-19.666,85.086
-600.126,-73.172,-136.147,-47.963,-19.240,73.855
-822.000,-280.000,-488.000,-55.510,-35.700,70.350
-1084.960,-557.079,-937.429,-55.716,-59.015,62.673
-1305.698,-845.702,-879.970,-59.104,-47.266,37.048
-1659.810,-1080.675,-621.304,-109.085,10.146,4.542
-1761.276,-886.364,-448.258,-180.930,73.761,-25.910
-1541.253,-303.583,-101.827,-226.228,108.793,-37.966
-1304.636,241.194,285.473,-245.993,102.427,-15.100
-1084.517,358.811,364.471,-235.194,70.415,25.104
-997.768,100.790,159.141,-161.959,41.212,38.514
-981.188,18.379,14.135,-41.306,16.499,7.068
-1009.817,101.383,-17.227,53.913,-7.280,-33.208
-1096.116,142.316,-81.795,77.368,-23.643,-45.298
-1118.631,187.320,-114.214,61.370,-25.234,-35.006
-1097.519,214.663,-91.665,46.134,-16.256,-20.329
-1064.427,244.321,-85.069,33.892,-10.560,-8.454
-1057.000,222.000,-129.000,25.480,-8.050,-0.280
-1070.725,151.591,-195.537,18.905,-5.083,5.708
-1072.115,83.202,-232.863,9.505,-1.867,9.326
-1054.451,13.403,-231.774,-1.142,1.260,9.956
-1029.558,-33.190,-209.862,-11.505,1.574,6.983
-1016.146,-47.198,-184.718,-16.554,-0.569,1.559
-1003.809,-28.781,-166.973,-12.765,-3.552,-4.363
-1005.568,6.256,-160.831,-2.924,-5.972,-9.492
-1010.755,57.730,-162.497,7.980,-8.320,-12.049
-1016.365,107.895,-173.064,16.411,-11.404,-11.433
-1016.952,153.131,-182.395,20.189,-14.185,-8.712
-1001.321,198.647,-181.320,18.168,-16.132,-4.868
-987.949,220.471,-176.546,12.308,-17.461,1.799
-969.445,215.424,-167.326,6.390,-18.760,9.957
-953.449,179.738,-149.815,1.993,-18.884,16.133
-948.000,127.000,-126.000,-1.680,-17.920,19.880
-945.641,74.007,-100.594,-5.025,-16.629,20.256
-951.151,26.248,-78.091,-7.136,-15.015,17.664
-954.136,-1.805,-44.962,-7.191,-13.894,12.973
-955.540,-7.831,-1.508,-5.862,-12.476,6.731
-969.866,5.735,11.900,-2.318,-11.782,-0.080
-988.992,38.949,-9.476,3.620,-12.232,-6.627
-1002.870,81.414,-36.732,7.493,-11.022,-10.684
-1010.742,127.492,-48.795,7.554,-8.018,-11.396
-1010.675,165.069,-49.163,7.478,-5.098,-9.982
-1008.724,174.940,-43.887,10.795,-2.916,-7.907
-1015.159,161.265,-23.012,14.768,-0.740,-5.276
-1030.098,130.015,-14.224,14.904,1.095,-2.040
-1041.502,98.898,-23.097,14.969,2.014,-0.176
-1046.723,79.021,-34.100,19.432,2.248,-0.805
-1051.000,58.000,-52.000,26.600,2.310,-3.430
-1052.825,48.946,-76.753,31.920,1.903,-6.996
-1051.092,70.044,-97.339,31.509,0.913,-10.440
-1034.490,120.375,-82.747,25.351,1.120,-12.219
-1014.946,177.888,-56.375,18.127,0.863,-10.872
-1014.461,217.103,-44.460,17.524,-1.171,-7.373
-1020.280,229.179,-41.583,22.372,-3.460,-2.219
-1027.579,215.368,-49.521,26.127,-5.530,3.861
-1029.389,193.526,-50.940,28.634,-7.148,7.990
-1022.991,176.768,-57.584,29.092,-9.151,9.694
-1018.390,167.629,-61.226,27.844,-11.227,9.969
-1006.357,158.492,-48.999,27.566,-13.237,8.976
-993.007,142.091,-46.298,28.255,-15.168,6.611
-977.208,127.998,-46.917,29.250,-16.620,2.485
-957.005,115.331,-51.445,29.537,-18.112,-2.737
-936.000,114.000,-63.000,29.540,-18.410,-8.680
-908.317,125.280,-69.320,29.014,-17.638,-14.668
-881.147,136.235,-74.795,26.650,-16.612,-19.030
-856.790,147.618,-81.463,23.484,-15.526,-21.859
-849.308,150.167,-82.290,20.095,-15.075,-23.613
-849.026,149.844,-77.010,15.909,-14.492,-23.768
-851.183,138.067,-79.796,10.567,-13.912,-21.990
-875.348,106.363,-88.394,4.597,-13.530,-19.330
-903.988,72.706,-88.137,-0.563,-12.251,-16.850
-930.129,35.302,-90.870,-4.439,-10.210,-14.556
-952.688,4.543,-101.191,-5.925,-8.337,-14.089
-971.418,-16.384,-110.816,-5.842,-7.308,-15.498
-989.344,-32.132,-119.751,-7.379,-6.477,-15.959
-999.437,-38.249,-123.903,-9.254,-4.927,-15.302
-1007.043,-42.869,-129.133,-10.041,-3.366,-14.289
-1011.000,-51.000,-137.000,-10.780,-2.310,-12.530
-1017.273,-64.106,-144.734,-10.669,-1.556,-10.617
-1029.092,-72.299,-151.267,-9.047,-1.136,-9.235
-1036.164,-73.392,-152.748,-7.528,-0.813,-8.575
-1038.100,-70.831,-155.795,-6.491,-0.115,-8.142
-1030.271,-59.915,-151.783,-3.858,1.018,-7.546
-1010.629,-44.069,-135.481,-1.933,1.866,-6.817
-988.742,-25.574,-112.086,-2.838,1.536,-4.086
-986.984,-11.562,-91.954,-3.197,0.179,1.354
-1005.693,-10.678,-83.815,0.809,-0.905,7.112
-1021.245,-17.300,-74.439,9.673,-1.523,11.223
-1037.758,-18.541,-73.991,20.222,-2.719,12.268
-1054.121,-7.122,-92.020,32.010,-3.988,10.322
-1058.058,13.853,-123.522,42.972,-3.784,7.184
-1055.170,35.277,-173.496,48.843,-1.558,3.806
-1044.000,63.000,-218.000,52.150,2.730,0.140
-1026.003,109.041,-210.286,54.142,8.868,-3.127
-1005.415,156.719,-161.255,50.736,14.915,-3.507
-986.646,185.808,-120.584,44.431,19.358,-1.178
-975.055,192.936,-78.189,41.017,22.263,1.317
-968.860,172.356,-29.812,35.572,22.405,4.187
-981.363,126.461,-4.966,26.395,19.754,6.598
-996.606,85.800,-8.082,20.987,16.171,6.320
-999.763,71.308,-30.832,19.179,12.763,4.148
-1002.055,71.253,-60.130,16.541,10.183,3.173
-991.206,73.906,-89.046,12.585,8.585,4.873
-981.611,67.406,-113.502,9.381,7.718,7.525
-981.884,53.824,-136.662,6.155,7.109,10.435
-979.029,42.513,-151.594,1.221,7.215,13.484
-977.605,31.775,-147.536,-5.034,7.732,15.873
-969.000,32.000,-138.000,-14.140,7.210,17.850
-957.337,38.281,-132.725,-23.888,6.285,18.660
-950.226,43.127,-125.665,-31.761,5.391,17.812
-949.885,48.054,-111.217,-39.504,4.164,16.233
-959.925,46.142,-88.282,-47.942,2.868,14.691
-971.437,39.983,-56.355,-57.960,1.145,13.823
-986.702,24.551,-28.187,-68.971,-1.075,13.043
-999.835,6.947,-7.893,-78.813,-3.250,10.898
-1010.262,-1.716,-4.684,-82.676,-5.454,6.776
-1015.714,3.326,-2.189,-78.612,-6.608,0.693
-1020.200,32.194,5.810,-71.764,-6.644,-5.506
-1035.211,71.723,-26.635,-61.452,-6.814,-9.549
-1032.471,111.565,-52.263,-47.053,-6.112,-11.521
-1023.632,127.327,-44.409,-37.380,-5.194,-11.157
-1019.578,104.960,-24.187,-36.783,-5.049,-8.974
-1007.000,64.000,19.000,-39.060,-5.530,-8.120
-1016.504,8.685,49.048,-38.757,-7.325,-10.817
-1039.160,-39.324,66.153,-36.249,-9.739,-16.648
-1064.801,-61.187,53.119,-29.098,-10.714,-24.184
-1094.254,-50.719,-16.557,-14.821,-9.222,-32.382
-1097.124,-5.187,-98.441,-1.603,-5.933,-38.094
-1075.422,61.859,-164.793,1.050,-0.730,-38.130
-1037.829,136.245,-187.666,-3.901,3.898,-32.898
-1004.472,180.824,-160.189,-9.663,5.821,-23.586
-999.886,169.959,-115.129,-11.340,5.511,-12.535
-1023.811,111.091,-67.963,-5.075,3.411,-3.468
-1077.161,33.184,-42.920,3.948,1.648,1.925
-1153.429,-28.952,-43.009,10.953,-0.594,4.753
-1219.015,-74.920,-21.834,15.735,-2.821,7.143
-1242.689,-108.179,-12.592,13.050,-7.039,11.126
-1256.000,-129.000,-56.000,7.490,-16.170,13.790
-1271.324,-132.175,-80.248,12.074,-24.444,9.694
-1266.685,-107.010,-73.715,18.740,-29.409,4.094
-1245.452,-69.029,-67.056,17.226,-30.110,2.281
-1205.265,-19.846,-48.129,14.496,-27.793,2.127
-1163.947,24.590,-23.865,10.678,-27.558,5.561
-1128.059,35.800,-6.156,7.127,-29.482,9.312
-1109.903,48.835,-1.858,7.490,-32.674,8.768
-1119.358,74.558,0.267,8.054,-35.658,7.659
-1119.277,84.217,-18.000,10.289,-37.663,7.781
-1114.930,89.315,-48.922,14.595,-38.599,9.289
-1098.434,93.078,-62.870,19.095,-37.877,12.110
-1059.699,79.162,-88.143,24.846,-35.887,14.479
-1012.975,54.645,-107.298,33.249,-33.134,14.272
-951.318,43.023,-127.005,41.303,-31.578,10.870
-896.000,64.000,-149.000,44.590,-30.940,5.600
-840.999,112.583,-160.429,43.360,-30.156,0.194
-787.571,167.708,-177.691,40.394,-28.867,-3.223
-741.495,224.429,-176.098,38.853,-25.437,-4.741
-680.569,272.198,-153.264,35.416,-20.950,-3.777
-629.436,295.017,-122.250,26.891,-18.317,1.155
-607.122,301.737,-135.604,17.915,-18.156,6.999
-603.937,299.550,-162.951,13.528,-16.619,10.744
-601.959,290.892,-170.122,10.875,-11.842,14.425
-608.581,275.445,-173.050,5.453,-5.964,19.164
-599.978,258.124,-130.337,-4.735,-0.300,23.666
-575.502,248.789,-91.884,-24.327,1.649,28.068
-594.424,242.089,-73.115,-44.618,0.974,30.197
-582.182,256.303,-79.079,-53.213,2.607,29.363
-582.853,250.667,-69.248,-50.748,3.529,28.477
-649.000,195.000,-42.000,-42.910,1.400,28.350
-613.850,167.700,-1.492,-36.835,1.010,28.994
-545.106,110.792,174.901,-33.448,0.799,28.981
-564.535,5.362,310.602,-30.104,-9.671,22.704
-626.252,-53.215,314.828,-22.821,-32.874,5.423
-748.108,-84.472,198.546,-21.498,-56.234,-15.081
-933.852,-84.419,-70.827,-35.436,-59.193,-28.269
-1130.233,-110.644,-222.234,-53.676,-30.695,-31.724
-1285.676,-192.867,-240.068,-80.484,21.097,-25.633
-1382.514,-295.867,-216.294,-100.317,88.191,-22.399
-1454.398,-367.821,-27.968,-95.619,155.786,-28.895
-1495.371,-271.828,127.932,-93.929,176.207,-36.496
-1421.443,-128.129,46.759,-79.445,126.124,-48.478
-1243.462,-7.181,7.267,-36.652,57.828,-63.070
-1113.385,117.472,80.355,-16.406,17.245,-69.275
-1112.000,124.000,32.000,-24.780,-5.320,-69.580
-1174.559,88.353,-8.995,-20.125,-20.409,-65.586
-1223.371,81.617,28.023,-2.540,-27.076,-54.325
-1226.350,96.654,48.749,10.905,-25.892,-38.377
-1150.537,114.921,106.201,26.446,-21.014,-22.702
-1061.381,64.841,145.423,48.580,-20.667,-15.427
-1037.861,-1.194,123.575,75.680,-21.953,-22.802
-1020.132,-12.065,94.050,99.336,-20.590,-35.933
-1001.973,13.347,71.797,102.883,-19.724,-42.584
-982.191,50.635,35.876,87.462,-20.874,-42.773
-969.878,65.144,-37.724,68.965,-22.305,-40.441
-1007.764,29.185,-122.294,58.394,-18.312,-37.860
-1028.143,-21.418,-188.746,51.709,-6.730,-35.627
-1038.194,-73.776,-207.194,40.391,9.030,-34.046
-1053.842,-109.816,-173.290,23.552,23.102,-33.133
-1044.000,-127.000,-102.000,2.450,30.940,-32.620
-1032.262,-126.722,-16.433,-17.855,31.007,-32.165
-1042.864,-120.320,13.344,-26.493,24.311,-31.743
-1066.418,-113.154,4.706,-19.317,16.506,-32.931
-1065.819,-64.975,11.809,-9.475,10.455,-33.963
-1064.423,-23.813,20.258,-5.265,5.698,-31.518
-1061.770,22.905,22.032,-0.009,1.407,-25.549
-1063.452,33.682,18.424,10.014,-2.190,-18.789
-1059.226,22.630,4.553,18.959,-4.783,-11.020
-1049.813,10.458,-17.348,21.658,-6.883,-2.908
-1049.035,-28.891,-35.671,19.447,-8.108,3.376
-1020.175,12.858,-55.931,11.597,-9.180,7.840
-1020.664,-17.786,-64.237,1.558,-7.297,6.367
-1003.595,-44.866,-48.393,-8.832,-3.660,7.293
-995.945,0.488,-39.559,-22.267,-1.884,15.784
-983.000,6.000,-36.000,-32.900,-0.070,15.050
-947.406,47.324,-26.016,-35.989,2.165,4.777
-1036.338,-9.833,-9.756,-36.085,2.689,2.580
-1038.507,-31.134,2.452,-39.995,-0.646,9.760
-985.243,2.361,-18.241,-42.658,-1.734,11.911
-1013.485,-28.974,-41.315,-37.911,0.220,8.115
-1001.471,-5.718,-39.772,-34.057,-2.393,6.907
-1007.196,-12.040,-58.359,-38.046,-6.214,8.618
-1004.188,-24.732,-80.618,-44.883,-7.460,12.665
-1003.550,-51.198,-76.855,-48.156,-7.765,16.657
-1016.150,-108.702,-76.855,-48.425,-8.358,18.578
-1011.220,-141.947,-68.356,-45.184,-9.429,17.561
-1023.120,-171.855,-50.213,-39.442,-10.508,13.359
-1023.221,-170.792,-38.661,-33.465,-11.396,8.134
-1018.333,-158.798,-27.462,-25.952,-11.251,2.408
-1010.000,-131.000,-21.000,-18.480,-10.640,-2.660
-1003.700,-97.397,-17.190,-10.963,-10.205,-6.727
-994.432,-65.515,-19.434,-4.513,-8.754,-9.600
-983.069,-32.671,-22.714,-1.773,-6.470,-10.505
-980.365,-20.273,-20.706,-1.210,-4.976,-9.774
-974.997,-17.204,-19.734,-1.773,-3.810,-7.957
-975.259,-29.809,-17.199,-2.220,-2.801,-6.881
-975.044,-40.422,-14.953,-2.479,-1.637,-6.965
-979.536,-48.017,-14.232,-2.677,-0.219,-7.819
-982.676,-62.124,-8.476,-2.155,0.567,-8.872
-987.102,-73.895,-4.927,-0.908,1.689,-9.460
-995.144,-87.623,-2.535,1.854,2.809,-10.625
-996.108,-94.678,10.439,4.740,3.643,-12.201
-1004.877,-93.923,12.641,7.688,3.630,-13.989
-1019.115,-99.308,7.921,11.882,3.282,-16.118
-1034.000,-107.000,10.000,16.100,5.250,-17.220
-1052.556,-112.145,2.813,19.049,7.747,-16.991
-1061.798,-116.120,-10.377,18.957,8.710,-15.913
-1062.863,-115.246,-34.005,18.312,9.895,-14.915
-1067.830,-121.527,-65.893,21.138,11.520,-14.459
-1044.970,-120.916,-85.076,24.971,12.501,-13.223
-997.586,-99.564,-89.716,24.919,14.465,-10.740
-970.063,-85.643,-96.717,20.527,15.324,-6.925
-980.283,-89.236,-101.252,15.094,12.311,-1.620
-1030.745,-103.473,-92.908,7.484,7.026,3.733
-1082.053,-125.422,-75.993,-2.408,0.277,8.886
-1134.103,-151.313,-42.852,-10.288,-4.820,14.298
-1194.279,-181.631,-8.100,-16.301,-8.629,18.796
-1214.324,-210.333,13.615,-23.349,-13.138,22.636
-1207.141,-211.372,11.348,-31.856,-17.725,24.864
-1180.000,-172.000,9.000,-35.280,-23.800,22.330
-1141.494,-114.646,22.119,-30.347,-28.948,16.532
-1131.129,-64.485,8.075,-20.494,-32.585,11.134
-1122.111,-36.115,4.261,-5.595,-35.595,8.621
-1103.756,-27.759,13.391,8.864,-36.274,9.942
-1086.430,-15.045,-4.279,20.748,-35.567,10.966
-1071.305,14.905,-17.340,35.647,-32.650,9.502
-1047.754,45.975,-42.120,50.301,-27.615,9.321
-1020.678,68.969,-92.204,63.005,-23.312,10.579
-998.865,102.567,-128.522,74.926,-19.958,10.825
-975.632,129.502,-131.193,80.997,-17.870,12.363
-971.993,125.362,-115.427,77.334,-17.548,17.578
-975.007,101.117,-94.581,64.844,-18.143,25.285
-981.218,52.028,-67.383,49.017,-19.283,32.560
-986.923,2.652,-41.080,37.187,-20.291,36.194
-1000.000,-26.000,-16.000,32.130,-20.930,36.190
-1002.072,-21.162,1.547,32.881,-21.044,33.836
-990.520,12.853,6.162,37.119,-20.627,30.154
-977.496,57.014,4.963,41.305,-19.795,26.433
-938.209,108.768,7.094,42.436,-18.419,23.629
-918.575,137.839,15.645,39.155,-17.352,22.910
-885.637,161.009,23.486,33.119,-16.598,23.435
-881.223,164.190,28.328,25.887,-16.448,24.922
-878.130,151.188,33.506,19.008,-15.847,26.687
-864.543,119.477,39.894,14.010,-14.408,28.265
-877.515,69.452,43.618,11.153,-12.760,28.721
-855.352,40.957,47.781,8.978,-10.814,27.381
-866.827,6.325,50.782,5.415,-9.469,25.790
-816.526,24.734,49.172,2.653,-7.570,21.767
-808.613,38.865,46.777,0.227,-6.310,17.461
-774.000,61.000,48.000,-2.100,-5.110,12.880
-741.033,78.679,52.262,-4.927,-4.149,9.750
-766.486,66.347,57.467,-8.994,-3.891,9.225
-607.488,152.782,61.411,-13.079,-4.401,2.320
-726.710,98.852,66.971,-19.956,-9.318,-0.056
-813.470,19.878,77.571,-29.532,-10.568,5.119
-681.503,73.404,76.876,-38.845,-8.592,4.179
-702.688,75.166,73.990,-42.187,-10.688,2.227
-678.681,76.890,74.861,-46.143,-14.689,3.022
-665.443,72.799,78.243,-54.011,-19.376,2.779
-569.903,90.568,80.479,-65.749,-26.086,0.644
-647.187,41.377,91.130,-85.763,-42.438,0.070
-693.749,-23.355,83.187,-99.990,-54.241,-0.480
-581.492,-59.634,76.083,-100.997,-55.135,-8.730
-746.619,-187.597,181.939,-53.909,-54.777,-32.356
-748.000,-238.000,222.000,28.280,-38.500,-74.130
-718.461,-211.504,164.075,51.654,-17.439,-109.837
-932.185,-159.724,142.779,18.135,-1.291,-120.890
-1087.309,-86.119,107.378,-10.744,21.199,-127.028
-1104.433,-9.945,96.962,-10.485,40.215,-136.571
-1101.760,59.763,114.759,-0.420,50.081,-135.311
-1129.122,57.018,216.836,-4.582,60.001,-124.019
-1202.644,-3.667,213.836,3.010,82.538,-112.416
-1361.191,-144.033,202.435,29.529,93.299,-107.442
-1502.783,-408.339,283.618,42.577,87.579,-100.871
-1638.273,-653.116,3.726,33.343,97.001,-84.011
-1527.728,-612.319,-156.827,35.856,83.825,-81.261
-1286.403,-435.193,10.305,43.714,25.754,-93.680
-1277.138,-341.140,16.158,11.647,-30.885,-89.890
-1334.221,-281.681,-92.950,-27.673,-46.458,-70.508
-1360.000,-279.000,-191.000,-26.670,-22.120,-49.980
-1299.624,-296.015,-130.213,-4.806,4.325,-32.020
-1230.695,-306.729,-30.595,9.536,19.325,-17.354
-1166.303,-281.892,28.985,16.631,26.404,-8.250
-1075.176,-229.337,106.699,21.353,25.133,-8.312
-1029.900,-171.316,136.194,20.886,21.048,-12.866
-974.982,-72.812,174.409,21.972,16.413,-17.123
-922.164,20.736,210.322,27.642,11.711,-20.193
-870.287,105.554,239.632,29.979,2.106,-18.066
-854.516,141.064,225.703,25.868,-11.664,-10.664
-871.498,110.747,161.910,16.704,-24.281,-0.526
-895.172,46.230,93.158,7.234,-30.404,11.337
-942.073,-73.704,26.253,0.498,-28.230,20.715
-979.611,-213.526,-17.766,-4.621,-22.853,24.511
-1017.813,-328.446,-51.515,-10.873,-16.912,23.144
-1046.000,-410.000,-74.000,-18.900,-11.970,17.290
-1070.035,-464.248,-91.029,-24.013,-6.773,7.914
-1089.249,-485.906,-85.034,-25.909,-2.159,-2.537
-1090.140,-472.244,-70.897,-26.455,0.947,-12.099
-1083.465,-433.786,-49.934,-25.435,2.742,-19.872
-1075.582,-383.018,-18.334,-23.837,0.904,-23.668
-1071.155,-330.751,-0.962,-20.594,-3.194,-23.604
-1053.303,-276.912,25.172,-16.991,-7.674,-21.008
-1033.532,-227.440,47.484,-14.630,-11.288,-16.872
-1007.964,-192.441,71.894,-13.517,-15.428,-11.739
-983.198,-193.977,89.742,-13.521,-20.979,-5.679
-966.753,-216.426,88.752,-12.365,-26.031,-1.239
-933.372,-218.864,95.056,-11.982,-29.507,-0.602
-913.036,-202.719,105.261,-11.629,-29.201,-5.475
-895.089,-176.797,113.353,-8.919,-29.364,-10.893
-877.000,-155.000,100.000,-8.470,-32.480,-11.830
-889.284,-142.683,77.379,-8.174,-31.941,-12.335
-888.945,-135.546,62.689,-4.814,-27.854,-11.187
-893.758,-149.300,36.495,-3.780,-22.027,-7.670
-925.724,-176.314,23.627,-4.527,-13.914,-5.924
-945.596,-193.093,45.165,-5.167,-7.038,-5.200
-964.126,-210.234,56.963,-9.219,-3.448,-3.681
-987.762,-240.454,50.867,-13.874,-2.564,-1.368
-1010.255,-268.073,59.036,-14.257,-1.741,0.274
-1028.855,-295.801,68.375,-12.155,0.307,1.008
-1031.030,-322.743,79.314,-9.148,1.922,1.282
-1025.013,-331.113,94.465,-5.118,2.415,0.409
-1017.835,-331.383,97.571,-0.186,1.974,-2.143
-1004.435,-317.803,103.217,4.918,1.150,-5.095
-992.529,-294.601,103.056,7.906,-0.682,-5.664
-982.000,-270.000,100.000,10.780,-1.960,-5.040
-965.853,-235.961,110.751,13.952,-1.296,-4.852
-946.454,-209.173,110.684,13.524,-2.358,-2.413
-933.773,-190.994,103.129,13.017,-4.727,1.938
-940.664,-180.392,101.759,14.251,-5.508,5.791
-956.365,-175.298,102.136,12.993,-6.668,9.774
-978.626,-172.480,99.873,9.912,-8.873,13.911
-999.205,-168.635,93.679,7.006,-9.980,18.510
-1011.317,-168.507,93.872,4.649,-10.680,23.211
-1011.993,-177.709,92.210,2.317,-12.396,26.426
-995.885,-188.644,89.271,-0.017,-13.820,28.234
-990.011,-201.312,96.282,-2.888,-14.609,29.511
-987.288,-208.888,103.340,-8.193,-15.920,31.778
-1001.088,-233.746,99.515,-12.450,-18.330,34.122
-1039.707,-258.531,92.913,-13.448,-20.629,34.851
-1063.000,-276.000,104.000,-14.770,-21.630,33.950
-1075.698,-306.043,110.165,-17.475,-23.048,32.535
-1092.564,-324.580,100.226,-18.502,-24.113,29.678
-1106.176,-331.002,102.343,-15.287,-23.325,23.544
-1103.583,-317.272,112.132,-11.642,-22.566,17.214
-1096.322,-299.975,116.708,-10.995,-22.204,12.125
-1087.481,-281.316,114.645,-10.980,-22.260,7.508
-1078.580,-269.748,122.073,-10.480,-22.630,3.694
-1074.318,-265.600,134.503,-11.264,-23.090,2.324
-1073.107,-264.849,136.957,-13.601,-24.856,1.961
-1074.720,-275.302,135.141,-14.805,-27.204,1.375
-1065.320,-258.993,124.964,-13.954,-29.058,1.480
-1059.644,-265.326,117.446,-11.215,-30.063,-1.758
-1047.227,-262.993,114.313,-7.064,-30.017,-4.342
-1037.953,-229.892,116.694,-3.759,-29.610,-4.976
-1017.000,-188.000,117.000,-0.770,-29.050,-7.210
-991.102,-144.754,117.613,2.423,-28.520,-7.636
-980.782,-125.608,126.515,5.232,-27.466,-5.882
-941.056,-60.111,130.747,7.851,-26.210,-2.895
-947.001,-69.739,174.980,9.220,-25.934,-1.214
-948.541,-105.137,215.916,9.730,-25.929,4.122
-922.658,-57.270,186.069,11.370,-26.999,11.730
-934.600,-67.315,143.508,15.749,-28.277,13.489
-920.760,-78.125,123.728,21.074,-25.924,15.411
-907.992,-95.639,115.494,24.884,-22.354,16.445
-899.029,-124.718,93.644,28.606,-20.686,14.958
-882.354,-114.666,80.509,31.585,-18.457,13.332
-861.276,-110.614,92.894,30.981,-15.269,10.892
-846.043,-95.006,106.488,27.023,-12.813,9.988
-841.658,-90.133,127.570,21.084,-11.366,10.161
-851.000,-103.000,147.000,13.580,-10.150,11.200
-862.152,-109.329,165.840,6.943,-8.918,10.896
-852.464,-99.218,183.276,2.675,-7.921,9.287
-864.765,-87.282,195.821,-1.103,-7.592,8.760
-872.276,-94.346,210.211,-5.125,-8.559,8.853
-881.295,-103.023,214.596,-8.732,-9.648,9.914
-866.688,-113.753,218.354,-10.549,-9.817,9.407
-845.942,-118.709,224.403,-11.497,-9.450,7.720
-817.449,-105.404,229.627,-13.005,-10.606,6.198
-786.104,-91.158,231.664,-16.060,-13.205,5.497
-772.900,-91.297,225.722,-21.419,-16.311,6.198
-729.103,-92.937,209.876,-26.906,-19.441,6.757
-732.740,-75.383,191.860,-32.633,-21.357,7.172
-691.929,-36.924,181.053,-39.310,-24.265,7.071
-687.535,-15.666,158.099,-48.208,-27.001,9.530
-655.000,-9.000,143.000,-57.610,-29.260,12.740
-626.915,-4.867,133.381,-66.058,-32.932,14.807
-665.150,-3.268,120.119,-74.883,-38.629,17.028
-495.853,51.597,112.299,-81.511,-44.726,17.583
-549.239,43.015,110.141,-96.994,-53.710,15.610
-657.821,-30.191,131.664,-116.704,-70.884,8.163
-616.958,-24.199,96.543,-124.582,-82.932,4.316
-626.697,-69.587,87.453,-101.013,-82.290,-7.339
-702.734,-75.941,192.333,3.705,-52.465,-50.418
-1027.135,57.644,232.702,106.647,3.293,-98.729
-1026.118,183.526,134.572,67.924,31.514,-100.264
-939.753,243.276,-31.590,-22.763,48.819,-38.125
-1019.800,56.693,56.356,-32.784,92.010,24.115
-903.861,-260.481,466.305,3.975,132.082,34.998
-976.320,-472.722,738.041,19.130,141.040,22.539
-1126.000,-660.000,759.000,16.100,110.670,4.620
-1282.741,-786.876,625.267,27.915,67.239,-19.618
-1482.690,-849.325,414.649,42.273,39.641,-46.231
-1586.874,-844.049,322.477,38.636,29.346,-67.476
-1651.443,-732.699,308.891,28.144,36.823,-76.983
-1634.120,-594.114,266.028,31.560,51.054,-81.792
-1551.507,-463.843,218.601,49.701,55.018,-78.907
-1416.466,-371.846,145.849,57.780,46.293,-62.729
-1312.092,-329.537,50.082,52.080,36.938,-39.808
-1223.973,-326.263,5.025,46.166,35.177,-18.382
-1127.636,-335.387,20.370,43.466,35.340,-5.097
-1058.766,-317.912,40.471,41.710,32.338,-1.677
-990.734,-259.500,52.624,38.240,27.742,-4.631
-944.294,-169.303,85.701,35.850,24.902,-8.663
-901.747,-87.958,126.346,33.990,24.573,-9.232
-874.000,-27.000,155.000,29.400,25.480,-6.020
-852.292,10.151,187.999,23.967,24.112,-1.694
-843.879,14.487,210.225,16.006,16.768,4.738
-868.264,-15.814,205.044,3.993,7.273,13.453
-900.071,-75.574,192.473,-5.334,1.360,20.258
-933.762,-145.172,181.732,-9.044,-1.293,24.268
-962.861,-217.647,168.751,-9.870,-3.081,26.314
-979.696,-282.332,152.568,-10.020,-5.048,26.004
-982.906,-327.380,129.944,-9.271,-6.625,23.227
-983.276,-351.768,107.476,-5.661,-7.717,17.268
-971.416,-349.945,96.794,-0.620,-8.058,8.894
-956.964,-318.526,88.428,4.950,-7.009,0.424
-946.144,-272.029,82.688,9.351,-6.165,-6.250
-932.705,-228.536,88.267,9.558,-5.822,-9.712
-931.101,-195.832,90.730,5.359,-5.121,-9.957
-927.000,-179.000,87.000,-0.770,-4.060,-8.260
-927.323,-188.616,84.480,-5.554,-2.646,-5.150
-940.852,-226.661,80.307,-9.236,-1.722,-1.229
-946.718,-264.135,77.600,-12.452,-1.491,0.690
-946.840,-275.476,78.966,-15.553,-1.450,-0.765
-946.805,-263.521,80.792,-18.575,-1.681,-3.274
-947.017,-243.320,87.154,-20.502,-2.450,-4.682
-945.817,-224.632,98.914,-21.289,-3.187,-4.970
-943.174,-208.947,110.115,-20.613,-3.598,-4.663
-940.664,-201.934,121.861,-19.145,-4.372,-3.927
-938.817,-206.190,127.700,-17.843,-4.894,-2.939
-943.401,-216.482,133.764,-16.214,-4.919,-2.275
-948.923,-222.798,146.123,-14.420,-4.945,-2.475
-951.595,-222.645,149.879,-12.763,-3.809,-2.841
-954.888,-222.051,166.026,-9.702,-1.745,-3.364
-968.000,-227.000,192.000,-7.840,-0.910,-2.800
-991.854,-252.808,202.120,-7.599,-1.120,-0.440
-1021.845,-296.442,206.505,-3.425,-0.905,0.381
-1058.007,-330.920,199.795,2.261,-0.985,-0.722
-1083.388,-349.544,187.892,6.090,-1.277,-2.233
-1099.950,-363.394,175.419,9.525,-0.665,-3.767
-1109.947,-378.103,160.091,13.313,0.220,-5.086
-1107.748,-385.141,158.557,17.200,1.770,-6.954
-1105.286,-384.952,175.103,19.324,3.750,-8.968
-1100.331,-387.823,202.291,19.332,3.965,-10.391
-1105.061,-393.187,220.921,17.924,2.302,-11.364
-1115.130,-395.912,226.194,16.799,-0.035,-12.643
-1115.405,-390.711,227.050,18.873,-1.188,-14.972
-1115.716,-382.079,222.502,23.705,-0.994,-17.398
-1102.377,-365.492,207.411,28.809,-1.316,-19.263
-1069.000,-339.000,200.000,34.650,-0.980,-21.490
-1034.972,-318.630,207.547,39.054,-1.149,-23.134
-1016.372,-300.251,203.658,39.345,-4.534,-23.398
-1005.154,-281.494,195.459,38.008,-8.647,-23.225
-995.320,-272.806,174.598,37.183,-11.454,-22.625
-990.643,-274.471,141.733,39.927,-12.034,-22.908
-973.786,-278.347,129.441,42.420,-11.561,-24.022
-955.120,-270.845,115.386,38.693,-13.126,-24.525
-947.741,-249.817,98.423,33.251,-14.740,-24.897
-932.393,-229.166,102.745,29.179,-14.252,-24.622
-915.192,-221.151,109.378,25.212,-13.140,-22.354
-900.633,-226.821,111.212,22.140,-11.837,-19.527
-884.957,-237.458,113.488,20.769,-11.174,-18.664
-873.731,-237.019,109.281,17.864,-12.301,-18.459
-863.765,-222.150,105.498,13.871,-13.690,-18.347
-862.000,-203.000,100.000,10.290,-14.700,-17.710
-861.840,-194.948,102.631,5.630,-15.233,-15.052
-855.952,-213.420,122.846,1.938,-15.501,-11.748
-861.762,-245.087,140.339,-1.820,-15.995,-8.284
-872.176,-269.541,158.653,-3.243,-15.439,-7.651
-865.348,-278.112,179.223,-1.737,-14.807,-10.287
-861.344,-273.528,185.190,-2.018,-15.891,-12.589
-881.859,-267.481,171.969,-1.373,-17.797,-14.969
-896.588,-258.689,169.540,-0.883,-16.924,-17.174
-903.549,-254.789,172.348,-0.764,-14.549,-17.910
-922.274,-265.873,177.731,0.398,-13.222,-17.201
-946.194,-290.822,197.201,1.059,-11.367,-16.445
-973.984,-322.130,193.410,5.157,-10.199,-16.980
-983.318,-346.896,210.611,10.227,-7.327,-17.855
-984.955,-368.032,237.264,12.901,-4.843,-18.274
-990.000,-382.000,249.000,15.330,-5.110,-19.460
-984.436,-390.596,258.582,16.960,-5.041,-21.394
-983.516,-396.157,227.528,20.334,-6.909,-22.498
-965.593,-388.480,219.903,23.859,-7.865,-23.395
-943.255,-378.996,216.804,24.020,-8.657,-24.117
-940.153,-361.039,193.549,23.660,-11.379,-24.345
-927.707,-332.369,184.607,21.918,-12.850,-24.084
-907.532,-303.617,169.136,18.646,-13.930,-23.085
-889.378,-269.587,168.883,15.083,-14.277,-21.942
-870.120,-239.842,161.485,11.044,-14.340,-20.272
-845.916,-215.653,162.603,8.321,-13.465,-18.135
-825.599,-200.265,183.165,5.023,-12.394,-15.246
-817.234,-200.815,183.132,1.005,-13.204,-11.867
-817.959,-208.305,170.861,-1.180,-13.986,-9.621
-821.093,-210.588,161.346,-2.017,-13.481,-8.565
-818.000,-203.000,161.000,-1.890,-11.900,-7.770
-816.994,-197.391,150.158,-2.024,-10.493,-6.140
-814.476,-195.312,142.497,-2.340,-8.942,-3.896
-812.476,-196.587,144.358,-2.387,-7.291,-1.698
-821.537,-205.375,148.104,-3.643,-5.936,0.682
-828.709,-218.839,164.637,-5.091,-4.809,3.055
-831.660,-240.896,189.380,-6.298,-4.137,5.151
-837.762,-268.016,216.665,-8.351,-3.951,6.813
-853.477,-290.581,225.105,-9.637,-4.955,7.175
-871.768,-306.060,225.555,-9.353,-5.326,6.472
-884.369,-317.993,231.760,-8.329,-4.473,5.745
-899.911,-326.940,229.815,-6.850,-3.581,4.689
-912.192,-332.146,231.004,-6.147,-2.523,3.821
-915.612,-338.018,239.285,-6.385,-1.952,3.606
-919.926,-345.062,240.730,-6.334,-2.175,3.572
-926.000,-351.000,238.000,-6.160,-2.800,3.640
-928.831,-353.223,231.356,-5.668,-3.166,3.540
-928.820,-348.149,226.986,-3.632,-2.536,3.265
-923.459,-337.035,236.622,-1.679,-0.910,3.415
-913.055,-330.523,240.258,-1.602,0.275,4.550
-905.446,-326.785,238.549,-1.896,0.422,5.498
-899.273,-312.953,232.247,-2.066,0.655,5.704
-890.304,-294.623,214.613,-1.928,1.322,5.972
-883.363,-275.616,199.078,-1.435,2.295,6.326
-878.621,-253.899,188.991,-1.078,3.603,7.380
-869.161,-233.369,195.128,-1.426,5.515,9.396
-858.261,-215.116,197.203,-2.555,7.367,12.032
-844.028,-203.611,197.158,-2.508,8.768,14.716
-824.704,-197.007,210.006,-3.285,10.163,17.220
-820.355,-189.762,198.433,-4.989,10.184,19.472
-821.000,-179.000,174.000,-4.900,9.800,20.790
-817.178,-162.763,149.185,-4.087,11.613,22.024
-815.249,-143.200,129.523,-1.814,14.561,23.662
-806.049,-117.467,143.333,-0.393,17.969,25.825
-805.910,-92.824,176.815,-2.327,21.074,29.397
-821.814,-84.181,203.286,-4.837,21.683,33.574
-856.424,-98.211,195.033,-5.359,20.847,37.123
-893.216,-131.013,172.705,-2.402,21.828,39.393
-918.698,-176.940,152.571,2.287,26.003,40.248
-953.005,-231.928,111.270,7.480,30.878,39.242
-972.388,-277.252,104.981,13.333,36.446,35.696
-975.206,-308.462,147.213,17.815,43.564,30.378
-977.081,-342.551,185.806,19.710,47.409,23.976
-973.983,-376.411,229.402,18.581,47.493,17.874
-974.238,-398.617,259.315,15.159,45.468,13.294
-976.000,-406.000,229.000,10.990,40.040,9.520
-980.253,-382.738,157.204,6.182,34.034,7.018
-984.663,-331.728,93.485,3.807,32.157,6.173
-987.921,-279.459,56.240,5.800,35.145,7.239
-977.209,-236.523,52.096,5.614,38.734,11.598
-955.348,-217.218,64.724,-0.113,39.605,18.323
-950.156,-225.719,54.470,-6.997,38.361,25.147
-950.887,-245.340,38.547,-11.736,37.596,30.174
-946.606,-249.804,48.981,-13.349,38.413,32.161
-935.558,-232.887,86.198,-13.497,39.299,31.869
-930.670,-220.425,129.781,-15.658,38.556,30.768
-940.979,-215.584,149.694,-20.334,35.194,29.944
-948.920,-218.078,142.591,-24.273,31.166,29.638
-955.637,-218.713,116.262,-25.707,27.593,29.061
-951.529,-203.845,98.575,-25.596,25.452,27.595
-949.000,-177.000,90.000,-23.800,25.340,25.970
-964.479,-143.694,83.008,-18.958,26.459,24.468
-962.090,-120.293,121.690,-13.355,30.528,23.213
-955.246,-127.790,207.387,-14.531,33.908,24.508
-980.489,-192.948,288.884,-24.305,31.451,28.133
-1029.770,-307.494,325.425,-35.344,24.688,30.310
-1091.872,-430.826,321.399,-44.234,16.342,29.637
-1158.196,-518.785,259.587,-49.041,7.794,25.546
-1221.207,-548.303,142.986,-42.552,2.634,16.153
-1245.353,-515.318,43.737,-28.223,4.235,4.552
-1223.521,-440.003,-24.789,-15.483,8.856,-4.345
-1190.610,-358.259,-73.330,-5.526,13.427,-9.134
-1132.346,-270.756,-98.438,1.255,18.975,-9.226
-1052.890,-204.436,-94.748,5.273,23.839,-5.822
-989.895,-166.197,-72.461,5.390,25.857,-0.773
-946.000,-142.000,-53.000,2.800,27.300,2.730
-906.309,-107.168,-32.272,1.942,30.667,3.899
-865.583,-51.100,0.576,2.033,33.238,3.929
-830.769,-4.196,28.347,0.957,31.861,2.964
-805.969,54.106,51.032,-0.805,26.044,3.795
-798.416,98.978,89.970,0.320,18.984,7.056
-810.077,107.576,116.676,1.350,11.478,13.172
-837.660,68.108,155.546,-5.079,1.192,21.968
-879.891,-8.364,188.563,-22.572,-8.903,33.047
-955.966,-114.225,206.244,-45.297,-16.404,43.334
-1081.601,-247.036,177.847,-59.446,-17.539,47.656
-1200.542,-393.246,80.590,-52.219,-10.033,44.779
-1345.748,-674.164,47.467,-30.874,4.317,37.018
-1472.220,-874.055,-73.212,-27.831,21.627,31.574
-1375.976,-811.507,-207.384,-31.134,25.173,15.389
-1236.000,-694.000,-160.000,-14.210,14.700,-14.350
-1223.061,-504.054,-122.201,1.002,9.447,-31.749
-1160.069,-284.513,-40.123,8.212,8.809,-36.285
-1073.711,-124.018,51.049,15.299,7.536,-32.278
-1030.780,-12.044,78.529,22.671,7.702,-19.517
-990.110,28.580,113.074,33.683,8.603,-6.620
-968.786,41.333,102.963,46.387,8.730,2.878
-957.161,29.453,73.430,56.693,6.065,7.451
-948.604,16.406,27.864,59.179,1.820,10.600
-938.565,5.691,-9.980,56.347,-0.436,13.254
-930.069,-27.019,-31.407,48.391,0.252,15.704
-927.762,-82.730,-48.867,32.830,2.063,19.170
-933.065,-163.126,-52.465,14.915,4.066,19.623
-950.671,-228.177,-55.858,-0.460,5.033,15.137
-966.349,-252.743,-43.623,-10.608,3.964,7.057
-985.000,-231.000,-33.000,-16.170,2.450,-1.050
-1001.239,-188.644,-18.843,-17.519,1.197,-6.336
-1012.262,-161.439,-3.385,-16.498,0.502,-7.457
-1023.590,-158.625,8.236,-14.775,-0.095,-5.697
-1032.712,-171.547,18.337,-10.930,-0.682,-3.850
-1041.477,-179.670,20.630,-5.570,-0.767,-2.737
-1035.807,-174.370,20.005,-0.335,-0.648,-2.101
-1015.325,-152.903,10.260,4.015,-0.335,-1.413
-995.399,-124.935,5.277,7.315,-0.586,-0.625
-976.712,-103.346,-1.923,8.423,-0.922,0.118
-954.962,-83.375,-5.964,8.201,-0.091,0.267
-936.200,-63.498,-0.672,7.719,1.084,0.522
-925.965,-60.666,-0.340,5.331,1.302,1.455
-923.258,-79.576,0.597,1.358,1.060,2.460
-934.764,-109.877,3.600,-3.382,0.973,2.943
-957.000,-139.000,8.000,-8.960,1.050,2.310
-982.670,-166.277,7.693,-14.259,1.528,1.534
-1011.917,-199.418,0.043,-18.445,1.940,1.275
-1040.613,-233.063,-15.471,-21.011,2.273,0.702
-1064.618,-259.170,-29.527,-20.716,2.941,-1.275
-1075.139,-262.028,-36.142,-17.750,4.175,-4.392
-1077.361,-250.086,-40.933,-13.498,5.548,-7.240
-1075.401,-234.393,-43.021,-8.502,6.993,-9.296
-1057.927,-208.115,-38.801,-4.280,8.959,-10.331
-1032.219,-183.770,-25.051,-2.770,10.305,-10.252
-1012.195,-164.012,-15.495,-2.573,11.273,-9.952
-995.203,-151.736,-5.666,-1.413,12.770,-10.250
-979.067,-150.091,14.832,-0.989,13.345,-10.268
-975.679,-155.484,24.969,-2.512,12.463,-9.978
-983.240,-168.369,21.368,-3.883,11.503,-10.470
-989.000,-187.000,20.000,-5.460,10.850,-10.710
-994.670,-211.241,13.877,-7.773,9.940,-9.865
-1007.183,-234.234,1.206,-8.812,8.001,-9.439
-1026.768,-256.869,-10.036,-8.433,5.107,-9.757
-1037.591,-276.203,-34.053,-6.152,3.085,-9.834
-1037.621,-283.163,-63.144,-1.612,1.961,-10.971
-1037.692,-277.444,-81.618,2.992,0.783,-13.678
-1032.499,-259.365,-96.012,6.213,-0.119,-15.957
-1028.232,-237.753,-106.428,8.129,-0.134,-17.463
-1021.322,-210.230,-110.460,10.147,1.446,-18.745
-1002.861,-170.549,-103.950,12.385,3.622,-19.366
-977.203,-128.589,-90.241,13.065,5.315,-18.898
-947.000,-94.578,-77.600,12.182,6.227,-17.410
-923.539,-70.308,-68.202,9.912,5.865,-15.391
-901.269,-51.306,-55.634,6.447,4.976,-13.333
-880.000,-37.000,-41.000,3.220,3.920,-11.130
-870.873,-31.123,-33.879,0.357,1.827,-8.654
-865.134,-32.671,-27.465,-3.464,-1.101,-6.025
-864.930,-39.015,-25.913,-8.160,-3.627,-3.287
-875.369,-55.049,-26.308,-11.634,-5.480,-0.798
-889.007,-80.714,-18.933,-13.649,-6.646,1.701
-901.942,-114.741,-15.852,-15.237,-7.195,4.370
-916.170,-156.175,-14.886,-16.566,-8.060,6.253
-930.932,-191.818,-16.530,-18.299,-8.804,6.494
-945.345,-213.255,-24.333,-18.537,-8.552,5.232
-960.045,-219.522,-30.572,-16.646,-7.767,3.373
-967.073,-217.266,-37.491,-14.699,-6.476,1.329
-970.252,-214.498,-42.845,-12.290,-4.688,-0.037
-970.156,-207.100,-44.389,-10.977,-3.172,0.105
-966.752,-197.755,-46.255,-11.362,-2.385,0.996
-968.000,-191.000,-45.000,-12.250,-2.520,2.310
-968.780,-186.125,-36.743,-13.892,-3.056,4.393
-971.863,-189.998,-24.685,-13.999,-2.778,6.687
-973.607,-200.570,-13.916,-12.995,-2.440,8.383
-976.367,-213.405,-10.159,-13.189,-3.102,9.779
-989.836,-230.777,-13.527,-13.458,-3.580,10.736
-1003.688,-242.842,-15.120,-12.995,-3.085,10.152
-1013.711,-248.502,-18.515,-11.770,-1.525,8.554
-1020.710,-257.296,-25.689,-9.402,0.615,7.044
-1022.067,-263.084,-25.054,-6.091,2.379,5.409
-1021.461,-258.449,-21.391,-2.998,3.780,3.393
-1018.050,-244.495,-20.705,-0.342,4.660,1.391
-1009.755,-226.737,-19.106,2.135,5.041,-0.150
-1003.257,-209.873,-17.671,3.893,5.198,-1.188
-996.842,-192.086,-16.869,5.350,5.081,-1.916
-990.000,-172.000,-16.000,7.070,4.900,-2.310
-986.532,-154.836,-17.267,8.376,4.773,-1.908
-981.788,-147.445,-24.918,8.526,4.705,-0.549
-976.286,-147.621,-33.685,8.538,4.714,0.863
-974.215,-151.373,-37.791,8.961,5.072,1.780
-975.367,-157.318,-41.613,8.641,5.544,2.505
-976.166,-163.519,-45.952,7.542,5.786,3.049
-980.578,-171.697,-49.166,5.951,5.957,3.455
-988.484,-180.382,-49.973,4.063,5.894,3.636
-996.206,-188.808,-51.384,2.346,5.670,3.736
-1010.173,-198.511,-53.603,1.423,5.278,3.838
-1018.301,-206.924,-54.763,2.106,4.983,3.219
-1019.408,-214.258,-56.890,4.483,5.356,2.020
-1020.981,-218.902,-56.803,7.138,5.842,0.985
-1017.283,-218.683,-57.005,8.390,5.767,0.332
-1014.000,-214.000,-53.000,9.520,5.530,-0.350
-1008.300,-202.489,-46.358,10.938,5.748,-1.208
-1000.047,-184.083,-46.621,12.489,6.128,-1.949
-993.933,-165.365,-47.952,15.218,6.543,-2.602
-989.949,-149.816,-53.976,17.535,7.301,-2.626
-985.711,-136.370,-59.309,18.212,8.017,-1.726
-978.472,-132.103,-63.559,16.534,8.615,-0.055
-977.130,-137.615,-70.123,14.862,9.293,1.640
-977.225,-147.985,-61.268,14.570,9.963,2.471
-974.135,-163.653,-45.116,12.335,10.333,3.281
-975.339,-184.584,-32.744,9.515,9.631,3.966
-980.740,-208.729,-26.622,7.142,7.875,3.406
-993.441,-224.435,-35.997,5.226,6.129,1.710
-1004.035,-226.243,-47.410,4.237,5.358,-0.162
-1006.278,-216.976,-49.018,3.208,5.594,-1.146
-1009.000,-201.000,-52.000,4.410,5.880,-1.750
-1005.363,-182.863,-55.070,7.133,5.996,-2.312
-996.126,-167.104,-54.869,9.072,6.111,-1.577
-990.579,-166.881,-60.496,10.127,5.895,0.322
-986.480,-179.216,-64.491,9.640,5.351,1.996
-982.509,-190.679,-70.145,8.582,4.781,2.568
-980.549,-192.023,-77.901,7.828,4.761,1.754
-977.743,-182.154,-74.620,7.323,5.542,0.637
-975.123,-173.499,-74.682,7.258,6.706,0.282
-973.493,-167.852,-76.662,7.777,7.487,0.334
-971.573,-166.036,-73.610,8.069,7.675,0.424
-973.631,-164.538,-76.920,7.833,8.057,0.617
-977.607,-160.097,-82.241,8.106,8.710,0.697
-982.910,-158.560,-90.602,8.510,9.520,0.635
-989.929,-154.167,-109.176,9.175,10.612,1.087
-992.000,-153.000,-122.000,10.080,12.040,1.890
-988.509,-161.943,-106.595,10.332,13.901,2.948
-988.248,-178.570,-75.224,10.618,14.514,4.152
-995.797,-198.614,-53.774,10.101,12.462,4.368
-1003.280,-209.102,-47.691,8.022,9.548,4.192
-1006.933,-210.968,-56.658,6.811,7.670,3.821
-1007.771,-204.714,-66.568,7.856,6.571,2.752
-1004.705,-193.171,-72.656,9.161,5.832,2.074
-1001.226,-182.859,-83.326,9.504,5.171,2.013
-998.567,-171.790,-87.036,9.797,4.317,2.618
-995.077,-167.747,-88.584,10.028,3.601,3.765
-988.330,-168.398,-89.540,10.056,2.887,4.549
-983.122,-170.677,-80.681,8.646,1.677,5.281
-983.407,-178.837,-80.460,5.792,0.230,6.168
-985.203,-185.619,-82.344,5.208,-0.464,5.953
-985.000,-187.000,-72.000,5.530,-0.910,4.830
-983.920,-187.890,-69.487,3.195,-2.481,4.702
-984.536,-186.078,-69.643,0.764,-4.549,4.822
-980.644,-177.271,-58.399,-0.481,-6.280,4.345
-979.673,-165.655,-53.339,-2.023,-8.369,4.369
-991.369,-159.348,-70.634,-2.480,-10.774,4.671
-1002.466,-174.341,-102.882,-1.684,-11.315,5.055
-1001.724,-198.538,-113.661,-1.192,-10.366,5.007
-1000.815,-209.091,-102.765,-2.111,-9.956,4.391
-1002.587,-193.735,-97.822,-3.593,-9.521,3.632
-996.499,-158.055,-99.924,-3.240,-8.266,3.037
-986.466,-139.806,-95.974,-2.213,-6.807,4.179
-976.364,-134.994,-87.939,-3.752,-6.773,6.666
-972.856,-137.098,-102.251,-7.473,-7.609,8.934
-975.444,-147.129,-117.811,-8.893,-8.363,9.831
-979.000,-144.000,-135.000,-8.120,-8.470,9.520
-984.352,-121.753,-148.605,-6.872,-7.205,9.329
-987.219,-91.578,-138.807,-5.846,-5.194,10.395
-990.500,-77.326,-138.245,-5.634,-2.874,13.189
-995.602,-76.685,-141.893,-3.696,-0.712,16.070
-1000.474,-85.261,-148.536,-0.945,2.239,19.058
-1000.179,-96.414,-147.151,2.534,5.453,21.945
-997.057,-110.275,-157.835,5.845,8.348,24.000
-1005.839,-117.815,-183.374,10.328,11.206,24.801
-1019.603,-88.736,-205.260,15.696,13.876,24.091
-1017.191,-40.574,-222.232,17.680,16.979,24.674
-1003.590,-5.536,-212.288,18.241,20.220,27.537
-1001.947,-5.345,-208.954,17.749,23.481,31.652
-1007.423,-30.038,-188.806,17.154,25.800,35.367
-1010.270,-62.737,-175.097,14.317,28.625,37.438
-1009.000,-79.000,-154.000,10.570,30.940,37.660
-1000.200,-77.250,-134.248,4.724,31.779,36.967
-981.009,-73.204,-128.122,-1.155,31.362,35.157
-962.226,-63.063,-87.747,-4.344,28.919,31.345
-949.055,-52.330,-89.933,-11.325,25.788,28.525
-910.136,-20.458,-14.810,-14.643,20.833,26.701
-891.886,-20.992,21.479,-23.323,16.023,27.125
-839.935,-19.092,239.722,-33.682,8.576,29.659
-688.453,-26.146,838.348,-67.302,-2.305,38.057
-759.421,-201.743,853.375,-129.744,-38.194,56.654
-1097.944,-425.616,354.728,-113.083,-101.254,55.534
-1262.799,-524.360,91.986,-37.011,-126.814,17.927
-1183.311,-432.635,-49.770,-15.932,-113.499,-23.666
-1108.546,-199.656,-139.071,-42.134,-94.499,-45.769
-1097.155,37.287,-212.128,-61.015,-59.661,-49.445
-1054.000,180.000,-206.000,-38.710,-17.990,-38.780
-1012.299,119.972,-126.145,-1.766,13.441,-20.741
-1047.355,-52.348,-113.336,16.066,23.842,-6.564
-1109.799,-219.049,-86.664,22.513,23.570,-0.219
-1185.965,-367.802,-44.306,24.417,29.502,1.348
-1255.923,-469.797,21.663,29.918,33.285,-2.416
-1295.679,-538.545,65.983,42.174,22.839,-10.961
-1328.524,-572.899,8.886,55.612,6.089,-22.886
-1353.414,-548.904,-52.245,67.185,2.078,-38.435
-1331.288,-457.591,-73.815,83.516,6.073,-55.951
-1261.849,-353.134,-82.188,100.522,7.530,-69.594
-1216.336,-273.996,-111.774,105.571,6.104,-75.454
-1176.994,-219.484,-164.157,103.637,3.412,-77.343
-1125.798,-183.094,-175.709,98.247,0.894,-76.611
-1078.306,-128.849,-135.100,88.140,-2.484,-72.877
-1029.000,-87.000,-90.000,76.860,-5.950,-67.620
-998.921,-81.979,-79.499,67.303,-11.759,-60.927
-987.895,-79.427,-91.607,61.405,-17.395,-54.415
-993.986,-85.826,-77.882,62.877,-18.529,-49.945
-985.831,-111.901,-37.743,66.537,-18.725,-47.141
-991.496,-127.139,-36.949,60.116,-22.854,-44.077
-1022.470,-126.135,-69.043,51.676,-27.526,-41.823
-1028.141,-120.576,-66.287,49.771,-27.876,-39.650
-1037.283,-124.554,-37.893,47.537,-28.092,-35.525
-1034.894,-154.076,-25.616,42.623,-30.379,-32.162
-1028.098,-182.954,-38.326,35.369,-32.794,-29.229
-1028.933,-197.924,-48.885,29.505,-33.290,-27.550
-1008.715,-199.401,-54.162,23.957,-33.005,-27.380
-987.677,-183.929,-62.923,15.772,-33.322,-25.885
-957.172,-158.531,-57.102,8.351,-33.250,-24.169
-920.000,-129.000,-46.000,0.840,-33.810,-21.910
-899.664,-111.559,-50.257,-5.149,-34.269,-19.163
-890.520,-102.947,-56.322,-8.916,-33.483,-16.289
-875.777,-99.669,-36.935,-11.841,-32.078,-12.518
-860.723,-102.920,-19.433,-13.973,-31.992,-8.820
-853.600,-107.287,-16.740,-16.404,-33.118,-4.859
-851.224,-120.984,-6.588,-17.522,-33.789,-0.890
-857.536,-139.423,-2.935,-18.751,-34.173,2.486
-860.878,-158.546,1.441,-19.920,-33.799,5.230
-864.203,-173.265,5.284,-20.322,-32.970,6.550
-862.478,-177.467,6.735,-21.767,-32.586,6.696
-854.744,-178.361,19.703,-22.734,-32.767,6.661
-857.862,-177.367,24.563,-23.473,-33.000,7.252
-855.157,-177.177,30.953,-24.088,-33.569,8.859
-854.715,-179.572,52.406,-24.888,-34.501,11.022
-857.000,-185.000,70.000,-25.900,-35.420,12.390
-850.360,-189.152,86.587,-25.962,-37.079,13.099
-852.799,-201.111,95.388,-26.164,-39.120,13.997
-853.355,-223.838,86.265,-26.064,-41.598,14.487
-855.378,-239.850,71.416,-26.431,-43.297,14.434
-867.994,-258.482,41.742,-26.081,-42.943,12.264
-877.488,-264.909,-4.605,-23.291,-40.782,6.837
-878.753,-248.491,-31.486,-20.766,-33.166,1.258
-870.803,-230.266,-9.613,-19.154,-19.801,-1.758
-861.916,-218.907,48.422,-20.533,-8.898,-2.933
-864.050,-228.927,107.753,-24.747,-4.030,-3.825
-889.776,-263.017,153.080,-26.238,-0.888,-4.158
-935.097,-330.011,178.605,-22.427,0.557,-4.563
-985.070,-405.835,174.137,-15.614,-2.185,-8.100
-1026.205,-448.080,142.069,-8.923,-5.856,-16.265
-1050.000,-455.000,109.000,-2.240,-5.810,-26.250
-1059.938,-427.416,97.134,2.719,-3.022,-33.742
-1052.307,-379.845,84.256,5.623,-1.644,-38.064
-1032.630,-315.316,67.206,9.187,-1.166,-40.527
-1007.451,-245.726,69.472,11.407,-0.156,-41.107
-979.173,-189.590,75.451,11.013,0.144,-38.700
-952.578,-142.312,79.636,8.930,-0.035,-33.308
-921.591,-114.658,93.344,6.506,0.101,-26.959
-896.320,-104.327,110.929,5.375,0.615,-20.893
-885.661,-106.491,115.412,4.623,0.122,-15.208
-886.808,-121.085,98.861,4.426,-0.557,-10.404
-896.316,-144.862,79.447,5.343,0.623,-6.842
-908.506,-177.293,59.264,6.393,1.975,-4.412
-918.266,-203.531,46.464,6.984,3.892,-3.311
-922.568,-214.796,59.410,6.927,6.197,-3.016
-927.000,-215.000,87.000,5.530,6.440,-1.820
-928.712,-216.992,116.109,3.099,5.516,0.368
-935.757,-224.757,136.116,2.111,3.891,2.230
-954.568,-230.934,146.492,3.080,2.189,3.481
-972.158,-235.126,148.579,5.700,1.427,4.621
-991.264,-240.725,134.629,9.347,0.797,6.060
-1002.273,-253.675,108.644,11.881,0.516,7.720
-1002.831,-270.168,85.703,13.794,1.439,8.876
-993.269,-283.102,77.150,15.091,2.919,9.114
-977.903,-294.001,77.519,14.652,3.614,8.579
-971.403,-300.034,80.366,13.024,3.545,7.124
-961.634,-302.144,85.177,11.088,3.238,5.162
-958.043,-299.222,93.840,9.745,3.218,3.675
-949.056,-285.223,111.241,8.451,3.625,2.930
-941.953,-273.512,130.326,6.996,3.567,2.902
-943.000,-262.000,136.000,5.740,2.660,3.150
-947.780,-255.711,131.090,5.055,1.811,3.376
-961.929,-258.185,121.509,5.260,1.777,3.830
-967.142,-257.796,104.745,5.757,2.294,4.309
-977.220,-263.314,85.889,6.510,3.205,4.625
-972.657,-262.777,69.345,7.013,4.581,4.673
-972.749,-260.509,62.465,7.457,6.121,4.506
-960.143,-252.058,66.780,7.450,6.982,4.499
-945.037,-245.015,85.169,6.644,7.844,5.115
-940.613,-242.837,103.633,5.895,7.997,5.836
-931.960,-236.828,103.261,5.447,6.844,6.337
-946.699,-240.043,95.207,6.000,6.476,6.940
-938.762,-235.434,72.783,7.363,6.431,7.027
-957.147,-233.628,53.378,9.106,7.294,6.654
-944.390,-208.937,50.699,9.839,9.190,6.369
-941.000,-189.000,47.000,10.220,11.060,7.070
-931.320,-168.633,55.288,10.487,12.771,8.544
-905.554,-141.299,73.124,10.008,14.312,10.851
-927.652,-140.712,81.407,9.860,14.686,13.704
-890.112,-121.849,86.677,9.959,14.439,16.005
-932.199,-131.915,101.628,10.843,15.508,18.655
-902.382,-118.514,120.758,9.574,15.292,20.527
-925.888,-132.357,142.404,7.991,15.721,22.665
-947.298,-162.125,149.097,7.040,14.293,24.625
-941.437,-211.184,153.775,6.404,13.180,25.344
-1047.276,-311.349,160.787,7.493,14.725,23.678
-942.977,-317.947,136.660,7.881,12.958,18.165
-1170.373,-440.981,115.935,11.950,16.338,14.598
-807.265,-313.644,60.453,8.544,11.359,7.478
