acc_x[mg],acc_y[mg],acc_z[mg],gyro_x[dps],gyro_y[dps],gyro_z[dps]
-748.000,608.000,89.000,14.280,2.380,0.280
-787.445,627.381,102.720,12.701,1.907,-0.518
-726.500,591.511,87.240,10.711,0.923,-1.390
-799.925,686.274,93.212,10.649,0.431,-0.980
-736.965,644.146,90.979,4.701,-0.843,-0.190
-783.197,678.279,97.702,-0.018,-1.647,-0.107
-743.902,650.279,94.534,-6.091,-2.083,-0.110
-756.510,655.825,96.636,-8.837,-1.950,0.082
-758.727,634.558,100.357,-10.777,-2.383,0.260
-751.382,597.773,92.758,-12.295,-2.959,0.527
-768.317,592.821,85.652,-11.003,-2.709,0.596
-751.306,577.635,87.093,-9.859,-2.687,0.713
-773.530,608.726,106.718,-8.274,-2.569,0.576
-754.838,617.914,111.960,-8.193,-2.426,0.298
-755.825,632.129,108.132,-8.367,-2.268,0.276
-749.000,620.000,110.000,-7.910,-1.890,0.280
-751.056,599.873,99.755,-6.460,-1.305,0.487
-768.718,592.665,94.770,-3.654,-0.621,0.177
-761.975,588.444,98.723,-0.172,-0.297,-0.199
-761.995,610.764,94.062,3.520,0.097,-0.027
-745.350,638.218,85.324,5.932,0.274,-0.007
-748.866,663.498,89.572,6.821,0.004,0.231
-756.098,658.114,106.295,5.420,-0.146,0.487
-758.752,656.741,115.988,3.022,-0.205,0.051
-756.071,647.411,108.875,1.436,-0.347,-0.420
-752.482,620.987,98.938,0.041,-0.756,-0.175
-761.187,620.861,98.652,-0.762,-1.053,-0.201
-758.664,651.302,98.547,-0.174,-1.206,-1.057
-758.831,686.754,97.922,-0.161,-1.475,-1.375
-759.701,675.968,96.840,-2.402,-1.533,-0.801
-756.000,629.000,102.000,-4.970,-1.400,-0.280
-748.410,581.023,114.905,-5.186,-0.998,-0.359
-742.140,569.568,115.854,-1.932,-0.394,-0.809
-743.906,591.951,115.629,2.650,0.184,-0.946
-748.764,612.792,116.629,5.475,0.644,-0.688
-755.857,641.364,110.368,5.786,0.950,-0.690
-761.953,666.353,108.207,3.726,1.135,-0.954
-761.694,655.779,112.438,-0.351,0.960,-0.812
-755.555,617.040,116.904,-4.284,0.893,-0.496
-749.168,589.048,114.434,-4.994,1.242,-0.717
-746.170,591.612,107.629,-2.461,1.576,-1.282
-750.039,614.459,101.155,1.043,1.800,-1.678
-754.052,639.740,94.603,3.813,1.773,-1.730
-753.837,656.128,83.079,4.202,1.656,-1.552
-756.827,665.932,77.270,1.925,1.594,-1.357
-762.000,659.000,88.000,-1.120,1.400,-0.700
-760.753,628.319,101.481,-3.421,1.157,0.366
-755.755,599.687,106.740,-3.799,0.943,0.721
-755.803,592.145,102.434,-1.573,0.947,0.297
-759.831,599.534,101.033,1.650,1.219,0.151
-759.033,603.026,100.131,4.266,1.673,0.658
-759.756,600.440,101.139,5.853,2.322,1.110
-764.211,602.519,107.149,6.403,2.828,1.026
-762.433,617.226,102.497,7.080,3.070,0.594
-756.111,645.467,99.959,7.327,3.062,0.297
-754.218,677.790,96.992,5.842,2.743,0.280
-759.922,694.470,90.826,2.595,2.341,0.341
-763.727,672.890,91.379,-2.357,1.890,0.854
-760.149,648.258,87.126,-5.496,1.661,1.208
-753.099,645.820,82.361,-5.070,1.758,0.844
-753.000,639.000,75.000,-3.990,1.470,0.630
-759.228,639.349,68.057,-3.224,0.798,0.515
-762.576,653.259,70.882,-3.184,0.259,0.420
-762.073,667.918,73.552,-3.908,-0.074,0.372
-756.877,674.341,78.038,-5.309,-0.410,0.177
-756.725,662.502,86.499,-7.778,-0.870,0.132
-757.505,639.976,96.013,-9.358,-1.060,-0.071
-753.831,606.014,98.795,-9.268,-1.051,-0.285
-754.793,570.902,94.181,-8.076,-0.997,-0.335
-757.411,560.907,95.949,-4.854,-0.606,-0.681
-759.441,577.120,98.938,-0.420,-0.142,-0.921
-760.818,599.740,99.130,3.180,0.200,-0.854
-764.923,626.340,101.058,5.333,0.463,-0.886
-765.327,655.342,103.942,5.339,0.705,-1.133
-762.690,655.495,104.625,3.439,0.845,-1.154
-759.000,626.000,98.000,1.610,0.840,-0.630
-754.840,589.219,93.927,1.229,1.173,-0.172
-757.738,567.277,95.490,2.657,1.748,-0.109
-756.620,587.766,96.668,5.456,2.065,-0.221
-759.156,624.958,92.413,7.687,1.823,-0.066
-760.093,648.274,80.544,7.258,1.282,0.360
-759.985,657.324,78.950,4.606,1.108,0.503
-767.280,649.257,84.247,1.540,0.959,0.559
-761.829,646.815,85.849,-0.229,0.709,0.252
-753.156,641.763,87.922,-0.200,0.691,-0.063
-749.175,614.446,87.067,0.497,0.732,0.477
-750.806,587.288,88.603,1.836,0.891,0.872
-755.770,575.667,92.456,3.904,1.214,0.928
-757.345,603.755,90.650,6.777,1.558,0.713
-759.296,661.585,85.583,8.914,1.486,0.240
-761.000,698.000,90.000,6.230,0.910,0.560
-760.800,699.232,95.249,0.132,0.507,1.193
-751.958,676.647,92.161,-4.786,0.570,1.598
-745.348,644.984,91.733,-7.136,0.672,2.086
-744.617,628.831,78.858,-6.294,0.281,2.038
-748.827,642.349,64.012,-3.699,-0.404,1.683
-761.823,653.390,59.912,-2.325,-0.934,2.454
-765.865,647.677,52.595,-2.974,-1.126,3.461
-762.293,652.181,56.150,-4.689,-1.300,3.014
-758.039,660.182,68.872,-6.460,-1.870,2.195
-754.784,649.756,82.306,-8.205,-2.550,2.008
-755.611,616.754,86.947,-9.478,-3.156,2.069
-755.936,588.729,81.803,-9.083,-3.428,1.903
-759.963,582.894,82.462,-6.878,-3.430,1.494
-768.072,591.236,82.198,-3.994,-3.418,1.317
-771.000,608.000,95.000,-2.310,-3.220,1.260
-771.167,604.423,113.863,-2.625,-2.988,1.329
-765.299,594.802,113.924,-2.658,-2.511,0.987
-750.979,615.086,113.478,-0.774,-1.938,0.007
-748.680,642.506,111.757,0.999,-1.794,-0.401
-753.359,658.847,99.531,1.291,-1.835,-0.608
-757.028,658.899,86.368,0.512,-1.795,-0.854
-759.930,640.508,79.791,-0.700,-1.594,-0.689
-754.524,629.293,80.694,-0.641,-1.533,-0.760
-749.697,624.853,87.033,0.737,-1.620,-0.654
-745.815,618.638,94.525,1.980,-1.482,-0.302
-740.866,632.622,97.067,3.666,-1.302,-0.323
-738.159,660.784,98.649,5.431,-1.247,-0.134
-743.854,678.547,97.197,5.065,-1.280,0.224
-754.188,679.173,97.463,2.637,-1.432,0.274
-756.000,669.000,100.000,-0.350,-1.610,0.210
-753.490,652.851,98.809,-2.848,-1.502,0.033
-749.832,634.843,102.696,-4.440,-1.421,-0.089
-748.841,620.046,104.302,-5.105,-1.599,0.002
-750.760,613.270,101.337,-4.476,-1.529,-0.091
-750.913,633.206,99.216,-3.260,-1.339,-0.421
-754.250,669.967,95.903,-2.606,-1.376,-0.765
-762.781,685.676,88.373,-3.765,-1.953,-0.747
-772.446,654.042,84.861,-7.703,-2.752,-0.308
-773.948,607.574,85.905,-10.822,-3.177,-0.270
-759.281,607.408,82.006,-8.981,-3.135,-0.586
-744.873,617.685,93.068,-5.110,-2.585,-0.284
-752.654,610.271,103.041,-2.846,-2.750,0.096
-760.935,611.040,96.641,-1.030,-3.446,-0.185
-759.990,614.836,91.110,0.432,-3.394,-0.366
-762.000,627.000,85.000,0.840,-3.430,-0.770
-763.494,641.424,89.584,0.384,-3.911,-1.479
-767.239,650.968,95.185,-1.098,-4.406,-1.649
-760.861,658.476,95.565,-2.698,-4.836,-1.829
-749.997,653.445,105.616,-4.655,-5.046,-1.837
-749.105,640.560,118.652,-6.825,-5.004,-1.796
-747.263,623.509,125.694,-7.467,-4.856,-2.182
-747.279,601.161,121.360,-6.458,-4.514,-2.148
-751.867,578.332,114.251,-4.330,-3.966,-1.840
-747.518,575.822,115.443,-1.393,-3.232,-1.516
-737.298,609.674,125.026,1.924,-2.221,-0.883
-737.103,641.301,136.532,4.147,-1.517,0.026
-742.442,648.614,134.887,4.413,-1.013,0.951
-748.992,651.435,120.169,3.702,-0.500,1.270
-752.043,643.973,108.602,2.255,-0.349,1.004
-753.000,630.000,99.000,0.700,-0.490,0.980
-757.686,616.542,89.756,0.252,-0.754,1.508
-757.101,601.851,89.193,0.590,-0.675,2.050
-759.360,611.252,98.052,0.892,-0.752,1.909
-763.285,649.297,109.407,0.910,-1.527,1.284
-762.490,679.873,109.959,-0.977,-2.445,1.304
-763.257,668.515,107.829,-6.009,-3.238,1.645
-764.005,632.457,105.685,-10.672,-3.575,1.362
-760.659,610.839,104.589,-11.692,-3.449,0.932
-749.266,607.974,113.317,-9.375,-3.155,0.771
-744.934,621.942,116.537,-5.027,-2.893,0.822
-751.020,632.389,114.629,-1.571,-2.929,0.768
-755.466,635.152,108.297,-0.347,-3.046,0.290
-757.267,651.915,103.844,-0.272,-2.976,-0.282
-758.313,657.934,107.443,-1.003,-2.954,-0.312
-762.000,635.000,108.000,-2.520,-3.220,0.070
-764.148,598.834,113.756,-4.479,-3.545,0.326
-759.467,584.028,119.401,-4.591,-3.517,0.391
-746.024,620.289,121.205,-2.094,-3.218,0.148
-739.424,675.274,121.884,-0.357,-3.206,-0.081
-748.103,702.763,121.174,-1.814,-3.618,0.112
-756.069,689.365,124.781,-6.064,-4.080,0.281
-754.495,643.912,123.754,-9.848,-4.185,0.048
-743.891,592.411,123.690,-10.213,-3.573,-0.071
-736.289,560.740,127.202,-6.711,-2.619,-0.189
-736.982,561.498,123.889,-0.255,-2.091,-0.565
-739.805,590.863,125.405,5.335,-1.673,-0.297
-746.294,636.818,136.075,7.337,-1.041,0.155
-752.258,673.690,139.698,6.080,-0.729,0.214
-754.251,683.928,132.529,2.152,-0.892,0.193
-756.000,670.000,123.000,-2.520,-1.400,-0.070
-755.322,635.155,116.699,-5.902,-1.745,-0.215
-752.971,599.360,112.617,-6.828,-1.620,-0.154
-748.463,584.094,114.559,-4.902,-1.294,-0.091
-744.155,594.359,127.427,-1.339,-0.718,0.181
-745.819,620.584,131.748,2.263,-0.318,0.527
-745.675,641.187,130.400,3.979,-0.173,0.538
-748.557,643.691,132.794,2.946,-0.075,0.491
-755.750,637.508,121.132,1.414,-0.329,0.374
-755.924,630.604,114.107,0.447,-0.390,0.035
-757.769,625.904,118.681,-0.465,-0.260,0.041
-753.851,631.252,118.793,-0.298,-0.325,0.034
-744.432,635.700,124.631,0.221,-0.173,0.051
-748.316,631.004,129.568,-0.045,0.057,0.242
-753.170,625.199,128.949,-0.011,0.246,0.012
-752.000,619.000,128.000,0.700,0.490,-0.280
-751.328,613.663,120.415,1.917,0.503,-0.299
-747.334,624.862,114.577,3.697,0.535,-0.031
-745.284,639.559,119.428,4.341,0.940,0.650
-748.993,631.254,129.266,3.022,1.229,1.188
-749.554,628.356,133.158,2.462,1.284,0.992
-748.966,635.853,127.160,2.934,1.438,0.967
-749.000,629.060,120.632,2.453,1.463,1.353
-749.874,618.390,116.369,1.768,1.338,1.409
-750.378,622.304,111.116,2.003,1.268,1.236
-748.654,642.147,107.447,2.777,1.260,1.102
-750.043,665.230,107.229,3.182,1.188,1.168
-751.453,685.515,108.440,2.711,0.694,1.008
-755.671,673.310,107.391,0.667,0.028,0.937
-759.097,631.710,105.978,-2.022,-0.309,1.040
-757.000,606.000,108.000,-2.730,-0.350,0.630
-752.681,611.794,110.781,-0.834,-0.273,0.059
-752.300,633.613,111.142,1.565,-0.531,-0.037
-762.741,642.432,110.863,2.039,-1.084,0.333
-761.660,648.470,111.251,0.831,-1.363,0.171
-752.121,645.595,112.734,-1.002,-1.405,-0.149
-752.412,637.343,114.061,-2.260,-1.400,-0.363
-751.836,639.979,114.129,-2.132,-1.482,-0.788
-750.082,630.974,118.606,-1.644,-1.668,-0.652
-749.719,623.320,121.053,-1.177,-1.711,-0.620
-751.483,621.854,121.578,-0.546,-1.471,-1.016
-750.799,619.731,119.894,0.498,-1.115,-1.181
-747.486,622.033,111.329,1.969,-0.904,-1.235
-747.167,643.545,114.247,3.411,-0.829,-1.463
-748.005,676.590,120.813,3.864,-0.839,-1.145
-745.000,672.000,130.000,2.030,-0.700,-0.210
-741.027,642.107,136.856,-1.263,-0.556,-0.016
-742.590,618.737,126.429,-2.646,-0.599,-0.430
-742.788,597.092,122.822,-1.582,-0.330,-0.361
-743.063,592.734,118.530,-0.465,0.055,0.052
-740.440,626.417,115.031,1.415,0.451,-0.124
-742.723,664.309,118.539,2.816,0.823,-0.040
-752.485,671.667,120.318,1.437,0.839,0.435
-751.407,657.879,125.008,-0.888,0.964,0.296
-747.929,623.264,118.323,-2.428,1.063,0.264
-750.378,579.709,111.241,-1.868,1.051,0.274
-757.220,556.543,107.786,0.748,1.284,0.368
-757.688,574.651,112.133,4.636,1.456,0.339
-754.801,622.852,124.616,8.282,1.430,-0.023
-757.216,666.157,117.946,9.544,0.940,-0.064
-756.000,679.000,107.000,8.470,0.210,-0.070
-760.788,661.480,100.735,5.728,-0.121,-0.057
-764.897,640.924,101.519,2.963,-0.168,-0.283
-760.641,619.766,114.822,1.697,0.012,-0.264
-756.376,603.068,118.616,2.655,0.225,0.062
-748.983,613.083,105.998,5.693,-0.023,-0.214
-749.324,638.738,92.789,7.982,-0.629,-0.102
-758.603,658.311,90.077,7.108,-0.993,0.445
-759.466,674.959,92.686,4.109,-1.107,0.313
-750.975,677.423,98.390,0.624,-1.352,0.039
-743.447,657.579,105.133,-2.789,-1.382,0.365
-735.857,645.376,113.840,-4.276,-0.987,0.478
-727.126,643.710,121.027,-2.768,-0.630,0.380
-725.781,647.468,115.096,0.097,-0.290,1.429
-734.702,644.385,105.627,1.794,0.201,2.717
-743.000,635.000,96.000,1.330,0.210,2.730
-746.224,651.779,93.142,-0.380,-0.157,2.166
-753.592,673.423,100.116,-2.646,-0.602,2.000
-758.082,668.064,99.175,-5.395,-1.524,2.531
-754.353,645.350,95.173,-8.546,-2.344,2.854
-753.391,635.408,93.604,-10.511,-2.832,2.238
-758.178,626.566,96.029,-10.667,-3.106,2.107
-761.064,591.038,100.219,-10.395,-2.997,2.776
-760.186,573.976,104.403,-8.909,-2.936,2.783
-756.203,611.081,112.938,-4.706,-3.001,1.720
-752.379,661.324,113.490,-0.813,-3.010,1.105
-755.758,676.567,114.951,-1.448,-3.070,1.328
-760.892,666.257,118.915,-4.510,-3.374,0.719
-761.199,638.163,116.212,-6.929,-3.330,0.122
-752.079,603.994,118.784,-7.610,-2.597,0.044
-741.000,595.000,125.000,-5.110,-1.750,-0.210
-735.687,602.118,136.989,-1.046,-0.998,-0.151
-732.462,617.013,143.764,2.868,-0.589,-0.167
-737.535,622.423,133.885,5.597,-0.152,0.131
-746.282,611.737,121.858,5.930,0.420,0.403
-751.124,615.742,113.459,5.340,0.582,-0.084
-748.504,647.104,113.922,5.247,0.651,-0.370
-740.513,686.434,119.427,4.573,0.616,-0.262
-738.016,698.589,125.506,1.831,0.310,0.107
-736.815,680.295,130.395,-2.241,-0.076,0.407
-731.859,649.028,133.412,-5.624,-0.145,0.374
-728.754,607.180,134.853,-6.583,0.365,0.346
-733.889,577.957,120.423,-3.910,0.946,0.324
-737.308,599.054,106.491,1.380,1.385,0.151
-739.901,650.656,107.708,5.869,1.619,0.178
-749.000,683.000,114.000,6.160,1.400,0.630
-756.276,677.211,117.628,2.291,0.963,0.910
-758.071,640.141,110.147,-2.255,0.800,0.774
-752.940,602.160,113.818,-4.579,1.010,0.556
-749.295,587.598,124.033,-3.342,1.220,0.428
-744.868,603.395,119.257,0.550,1.410,0.306
-745.107,636.492,117.099,3.541,1.554,0.285
-752.422,657.853,114.505,3.943,1.456,0.191
-754.851,656.898,106.572,2.588,1.272,-0.120
-757.103,640.807,99.587,1.067,1.187,-0.302
-752.854,628.368,94.151,1.139,1.210,-0.594
-746.130,628.059,96.273,2.609,1.092,-0.694
-741.934,639.756,104.113,4.102,0.915,-0.256
-739.935,656.498,115.495,4.433,0.929,0.042
-742.485,661.845,118.110,3.804,0.879,-0.114
-747.000,653.000,104.000,2.940,0.420,-0.280
-752.905,635.897,93.460,1.970,-0.098,0.179
-747.770,635.385,94.710,2.142,-0.139,0.658
-741.588,656.963,105.681,3.026,0.101,0.768
-742.631,667.641,119.708,2.492,0.043,1.175
-743.043,657.231,120.886,0.788,-0.349,1.592
-744.061,642.067,115.649,-0.351,-0.284,1.671
-742.937,639.457,104.797,-0.168,-0.154,1.445
-745.514,653.496,88.870,0.156,-0.653,1.253
-754.342,671.711,84.412,-0.787,-1.200,1.580
-765.031,669.850,88.558,-3.549,-1.872,1.854
-764.535,641.505,95.676,-7.107,-2.567,1.651
-754.110,612.608,103.072,-8.681,-2.942,1.335
-748.704,589.223,106.542,-7.551,-3.101,1.133
-743.002,582.203,105.776,-4.633,-2.977,0.857
-740.000,608.000,107.000,-0.770,-2.730,0.630
-745.747,633.694,112.391,1.622,-2.533,0.970
-751.905,646.361,114.614,1.725,-2.524,1.295
-748.331,663.037,115.969,1.440,-2.396,1.019
-742.414,674.233,114.943,1.032,-2.082,0.673
-743.871,673.877,114.421,-0.055,-2.063,0.352
-743.297,666.256,117.568,-1.347,-2.199,0.009
-739.799,646.102,115.581,-2.353,-2.319,-0.069
-738.097,623.339,107.679,-1.985,-2.383,-0.069
-738.221,612.915,101.246,-0.521,-2.269,-0.025
-743.062,622.753,103.600,0.631,-2.217,0.034
-745.439,658.063,110.265,1.335,-2.277,-0.089
-742.202,698.178,119.953,0.306,-2.396,-0.159
-740.730,721.548,128.994,-3.399,-2.946,-0.252
-739.946,711.507,129.692,-8.514,-3.567,-0.358
-743.000,659.000,126.000,-13.300,-3.710,-0.420
-748.065,596.412,120.637,-15.192,-3.447,-0.707
-741.247,568.252,118.716,-11.957,-2.668,-1.141
-728.298,589.397,120.597,-4.942,-1.822,-1.394
-727.324,634.721,127.630,1.109,-1.261,-1.134
-736.607,664.498,137.115,3.156,-0.841,-0.838
-741.285,658.845,140.300,1.584,-0.557,-0.861
-741.033,635.361,140.986,-1.152,-0.017,-1.077
-742.838,621.585,138.342,-2.061,0.596,-1.513
-743.972,616.946,134.605,-0.951,0.916,-1.635
-743.866,621.907,130.780,0.831,1.217,-1.571
-743.789,635.269,123.012,2.185,1.481,-1.688
-744.415,640.379,118.670,2.265,1.734,-1.605
-748.668,632.831,115.735,1.747,1.922,-1.436
-753.374,624.236,110.151,1.733,1.875,-1.492
-751.000,631.000,106.000,2.590,1.750,-1.680
-747.039,661.823,104.026,3.757,1.350,-1.621
-749.454,678.520,105.288,3.273,0.774,-0.614
-754.066,640.690,106.863,0.105,0.359,0.743
-753.050,605.624,107.768,-2.535,0.120,0.623
-744.726,618.068,114.193,-1.752,0.350,-0.122
-745.211,628.772,122.614,-0.310,0.556,0.334
-750.091,615.907,126.064,-0.609,0.253,1.002
-747.323,613.137,123.479,-0.567,0.128,0.811
-743.663,631.452,116.192,0.880,0.453,0.283
-742.393,643.697,114.786,1.547,0.886,0.251
-747.278,632.421,116.365,0.826,1.005,0.743
-744.975,615.147,111.466,1.040,1.023,0.909
-735.540,614.432,112.202,2.915,1.396,0.727
-734.347,619.277,114.935,4.955,1.713,0.892
-739.000,617.000,112.000,6.020,1.890,1.260
-746.093,611.863,111.165,6.425,2.022,1.562
-749.210,610.321,108.215,7.244,2.071,1.814
-747.568,632.490,106.345,8.017,2.148,1.672
-747.001,668.698,111.120,7.223,1.937,1.503
-750.344,684.804,116.986,4.561,1.526,1.848
-750.233,679.915,117.051,1.548,1.185,2.007
-745.754,671.532,107.084,-0.220,0.891,1.565
-744.944,667.370,98.362,-0.458,0.712,1.014
-746.995,658.419,94.839,0.395,0.537,0.717
-750.926,641.759,91.767,1.269,0.365,0.744
-747.986,631.184,94.859,2.102,0.411,0.713
-743.350,644.174,102.568,3.428,0.493,0.431
-742.969,670.155,108.639,3.807,0.116,0.499
-744.501,680.544,113.792,1.675,-0.422,0.797
-748.000,683.000,117.000,-2.380,-0.840,0.700
-747.170,680.107,113.046,-6.341,-1.274,0.499
-747.603,658.205,107.576,-9.333,-1.552,0.562
-747.343,628.317,106.638,-11.219,-1.696,0.795
-743.210,608.853,104.361,-10.340,-1.570,0.761
-735.895,618.945,100.186,-6.003,-1.322,0.469
-735.241,653.267,93.181,-0.848,-1.254,0.640
-746.892,680.508,90.285,1.354,-1.264,0.750
-751.254,693.511,100.943,0.098,-1.329,0.126
-743.636,689.333,112.231,-2.211,-1.237,-0.380
-732.345,653.485,119.016,-4.179,-1.039,-0.462
-730.053,604.011,121.676,-4.295,-0.903,-0.598
-734.898,575.994,115.371,-1.653,-0.768,-0.966
-736.261,585.301,112.199,2.148,-0.413,-1.346
-739.685,632.945,118.151,5.062,0.148,-1.294
-742.000,687.000,125.000,4.970,0.420,-1.050
-740.354,709.347,129.022,1.692,0.371,-0.884
-737.345,689.297,124.638,-2.416,0.258,-0.481
-733.041,640.920,117.336,-5.200,0.538,-0.221
-735.847,593.122,114.618,-4.915,1.209,-0.408
-747.454,555.471,107.766,-1.164,1.706,-0.483
-751.753,553.602,102.487,4.293,2.127,-0.412
-747.760,606.468,103.095,9.122,2.387,-0.504
-747.808,680.855,104.795,11.101,2.267,-0.692
-751.672,727.082,107.037,7.956,1.632,-0.621
-757.060,719.598,105.117,0.799,0.560,-0.405
-756.519,676.781,102.779,-5.817,-0.129,-0.576
-751.300,620.891,101.229,-8.965,-0.159,-0.930
-742.431,579.213,101.596,-7.284,0.216,-1.165
-730.788,565.402,105.694,-1.648,0.796,-0.992
-733.000,576.000,109.000,5.250,1.470,-0.630
-741.322,610.819,108.415,11.073,2.097,-0.678
-743.945,647.031,106.105,13.176,2.420,-0.662
-748.934,663.931,106.248,11.387,2.385,-0.224
-753.799,652.598,105.267,7.970,2.008,0.172
-753.562,631.394,105.054,5.090,1.618,0.179
-754.066,619.154,103.234,4.086,1.342,0.146
-749.260,625.592,99.755,5.024,1.184,0.132
-738.565,657.464,94.606,6.698,1.069,0.002
-737.571,678.354,87.573,6.909,0.714,0.184
-744.669,672.971,88.041,5.243,0.453,0.629
-748.100,654.399,89.991,3.237,0.407,0.909
-744.744,635.082,91.729,2.622,0.430,1.066
-741.401,634.988,90.197,3.449,0.250,1.333
-743.797,660.719,93.249,3.924,-0.310,1.418
-751.000,676.000,100.000,3.150,-0.980,2.100
-753.480,651.557,93.269,0.522,-1.446,3.224
-748.994,635.924,88.595,-2.487,-1.415,2.915
-747.018,655.071,85.145,-3.393,-1.590,1.886
-747.080,683.778,82.136,-3.481,-2.300,1.279
-750.466,694.438,83.479,-5.007,-2.967,1.240
-749.860,681.048,86.161,-7.513,-3.435,1.427
-742.556,663.325,93.446,-8.058,-3.411,1.564
-740.926,627.655,94.196,-6.563,-3.161,2.066
-741.836,586.843,91.700,-4.767,-3.137,2.047
-742.150,591.772,87.775,-1.061,-3.171,1.198
-741.165,633.980,89.379,2.897,-3.085,0.708
-744.269,677.713,97.092,3.332,-3.202,0.879
-752.421,700.521,99.895,0.191,-3.886,0.855
-757.373,692.523,105.829,-4.923,-4.566,0.585
-754.000,677.000,104.000,-8.890,-5.040,0.140
-741.728,659.090,101.983,-10.852,-5.204,-0.226
-735.070,629.648,111.002,-11.508,-4.957,0.086
-735.928,612.400,114.541,-9.406,-4.818,-0.025
-737.947,610.784,115.856,-5.490,-4.385,-0.296
-739.052,611.606,115.051,-2.418,-3.650,-0.342
-738.880,623.472,113.032,-0.316,-3.102,-0.930
-736.661,653.607,118.701,1.353,-2.547,-1.340
-730.476,679.874,128.397,1.536,-2.060,-1.215
-726.274,686.273,132.196,0.105,-1.738,-0.798
-726.980,679.316,131.422,-2.136,-1.497,-0.501
-733.229,650.361,132.335,-4.624,-1.240,-0.548
-738.675,618.661,122.459,-5.239,-1.029,-0.717
-738.376,617.170,105.226,-3.129,-0.718,-1.026
-735.690,641.238,99.071,-0.161,-0.295,-1.357
-738.000,659.000,107.000,0.980,-0.070,-1.120
-744.602,650.745,118.106,-0.077,0.061,-0.709
-742.660,630.536,118.625,-1.038,0.063,-0.848
-738.679,613.357,112.955,-0.833,0.180,-1.007
-740.185,624.391,109.942,0.857,0.302,-1.322
-744.950,658.545,109.614,2.455,-0.023,-1.440
-748.167,689.232,102.746,2.025,-0.448,-1.241
-748.145,701.635,97.048,-0.395,-0.951,-1.417
-751.886,674.260,102.548,-4.263,-1.321,-1.531
-746.716,633.699,106.786,-6.729,-1.289,-1.803
-736.418,603.897,113.950,-5.546,-1.142,-2.042
-734.135,593.536,114.570,-1.349,-0.842,-2.003
-734.569,623.838,110.371,3.454,-0.470,-2.048
-743.790,655.859,119.071,5.286,-0.363,-1.879
-753.855,663.337,120.364,3.313,-0.597,-1.553
-753.000,658.000,117.000,-0.070,-0.560,-1.050
-747.821,626.256,114.864,-2.745,-0.283,-0.483
-743.397,594.737,109.427,-3.478,-0.507,-0.229
-744.190,596.712,109.881,-2.049,-0.812,-0.210
-747.008,617.095,109.086,-0.237,-0.815,-0.174
-746.694,644.715,110.038,0.117,-0.757,0.015
-748.554,665.509,111.861,-1.260,-0.899,0.150
-747.660,675.543,108.799,-3.146,-1.211,0.060
-742.258,673.252,108.867,-4.841,-1.388,-0.001
-741.812,646.485,110.010,-6.234,-1.574,0.006
-740.394,617.959,109.758,-6.015,-1.585,-0.014
-738.161,597.992,111.543,-3.910,-1.187,0.041
-744.524,584.301,115.791,-0.624,-0.688,0.090
-747.819,592.009,115.281,2.801,-0.329,0.167
-744.707,621.604,115.534,5.067,-0.114,0.215
-747.000,659.000,120.000,5.320,-0.070,0.350
-749.945,674.655,117.842,3.158,-0.411,0.553
-749.312,661.541,111.882,-0.322,-0.919,0.474
-747.923,646.703,106.851,-2.957,-1.265,0.278
-745.321,642.816,109.804,-3.173,-1.308,-0.041
-743.152,640.258,115.502,-1.901,-1.107,-0.099
-739.863,633.687,116.128,-0.293,-0.939,0.087
-734.760,638.057,119.355,1.608,-0.594,-0.173
-736.567,658.364,123.709,2.833,-0.161,-0.542
-741.508,672.645,125.668,2.548,-0.099,-0.642
-742.416,665.075,118.463,0.648,-0.363,-0.536
-743.865,641.638,108.584,-1.891,-0.633,-0.464
-742.780,626.286,107.368,-3.253,-0.524,-0.527
-740.598,628.635,112.082,-2.679,-0.180,-0.551
-739.581,633.814,121.346,-1.428,0.022,-0.384
-733.000,642.000,125.000,-0.280,0.210,-0.210
-728.646,646.675,125.544,0.847,0.621,-0.157
-734.594,636.973,127.806,1.535,1.091,-0.015
-740.516,625.426,121.405,2.435,1.329,-0.074
-743.832,619.065,109.658,3.695,1.499,-0.132
-750.866,618.346,101.794,4.784,1.654,0.099
-755.277,625.819,101.535,5.180,1.684,0.218
-752.661,649.348,106.531,4.705,1.758,0.211
-747.437,675.895,115.313,3.628,1.822,0.331
-742.583,676.126,119.804,1.381,1.680,0.601
-741.542,660.651,113.029,-0.923,1.320,0.510
-742.412,647.073,106.773,-1.574,1.090,0.087
-743.115,642.157,103.255,-0.545,1.179,-0.146
-742.695,646.421,98.511,1.237,1.148,-0.225
-743.358,646.446,96.070,2.322,0.958,-0.198
-746.000,639.000,103.000,2.170,0.980,-0.070
-743.778,630.398,113.366,1.680,1.164,0.013
-737.923,636.062,112.317,2.237,1.264,-0.203
-732.635,651.126,110.098,3.283,1.216,-0.263
-736.474,652.511,112.126,3.486,1.197,0.222
-745.925,647.560,113.392,2.967,1.315,0.421
-746.348,648.218,112.235,2.211,1.411,0.244
-745.094,644.341,107.796,1.643,1.397,0.297
-746.953,632.049,108.867,1.214,1.339,0.665
-746.243,622.148,105.438,1.219,1.125,1.027
-745.666,630.228,94.575,1.807,0.804,0.988
-746.813,654.742,90.327,1.896,0.520,1.173
-751.346,670.999,89.966,0.810,-0.000,1.876
-753.721,668.606,91.898,-1.533,-0.543,2.191
-747.991,655.765,95.665,-4.201,-0.523,1.985
-745.000,641.000,102.000,-5.390,-0.280,1.680
-744.379,622.341,107.871,-4.977,-0.326,1.482
-741.577,604.771,104.816,-3.584,-0.402,1.403
-739.773,613.835,100.007,-0.733,-0.084,1.038
-738.441,643.332,98.006,2.342,0.330,0.743
-744.080,665.527,96.782,3.121,0.255,0.952
-752.266,666.999,98.545,1.737,-0.178,1.146
-751.646,648.509,98.856,-0.363,-0.585,1.103
-744.609,639.784,96.120,-1.588,-0.768,0.610
-739.095,646.315,97.724,-1.359,-0.758,0.197
-740.908,654.278,103.538,-1.119,-0.924,0.439
-741.737,666.944,105.734,-1.117,-1.221,0.707
-740.858,669.563,106.696,-1.427,-1.200,0.949
-744.269,651.308,108.016,-2.439,-1.004,0.934
-747.177,618.786,105.611,-3.114,-0.977,0.847
-744.000,598.000,106.000,-2.310,-0.770,0.840
-735.792,619.358,107.213,0.533,-0.438,0.351
-735.938,667.277,105.255,3.093,-0.534,0.201
-742.645,701.478,105.444,2.066,-0.851,0.496
-746.441,693.606,106.304,-1.919,-1.106,0.789
-745.887,648.099,105.217,-5.695,-1.181,0.882
-739.162,605.829,102.655,-6.378,-0.877,0.435
-733.771,601.146,106.575,-3.305,-0.388,0.051
-732.070,631.079,111.995,1.417,-0.205,-0.133
-733.015,665.494,108.172,4.382,-0.381,-0.057
-738.108,680.278,105.093,3.803,-0.425,0.087
-741.621,678.965,104.679,1.403,-0.180,-0.276
-744.178,668.026,103.188,-0.597,-0.067,-0.542
-746.082,639.999,101.779,-1.593,-0.283,-0.192
-741.929,616.035,106.386,-1.426,-0.237,0.247
-733.000,621.000,118.000,0.140,0.210,0.140
-727.012,644.101,123.153,2.488,0.643,-0.008
-731.857,664.948,118.320,3.772,0.904,0.036
-741.667,669.265,104.959,3.308,0.801,-0.164
-747.011,669.525,91.910,2.144,0.615,-0.394
-747.564,667.661,89.067,0.766,0.531,-0.497
-743.767,649.576,95.144,-0.746,0.484,-0.167
-738.697,627.781,106.817,-1.469,0.407,0.227
-736.149,625.968,111.173,-0.485,0.160,0.401
-734.202,647.906,105.843,1.274,-0.076,0.670
-735.843,671.244,95.983,1.614,-0.472,0.715
-745.572,686.127,83.568,0.072,-1.072,1.027
-753.185,688.755,79.485,-2.437,-1.486,1.537
-752.293,669.979,81.854,-5.513,-1.789,1.846
-752.201,636.614,87.363,-7.965,-2.339,2.120
-752.000,610.000,100.000,-8.260,-2.940,1.890
-746.199,613.741,105.642,-5.982,-3.474,1.347
-739.029,641.102,97.093,-2.645,-4.113,0.779
-740.017,672.532,89.639,-1.633,-4.479,0.443
-751.434,689.265,90.111,-3.722,-4.635,0.406
-755.924,668.478,97.763,-7.216,-4.842,0.320
-750.350,627.946,107.848,-10.002,-4.984,0.367
-742.306,599.509,111.130,-9.421,-4.717,0.258
-733.514,592.464,115.477,-6.296,-4.034,-0.111
-730.534,611.151,120.664,-2.659,-3.725,-0.398
-734.902,640.174,121.362,-0.225,-3.634,-0.296
-742.037,658.693,122.807,-0.919,-3.489,0.122
-740.653,665.844,120.745,-3.007,-3.313,0.371
-732.926,661.540,124.353,-5.147,-2.738,0.524
-732.427,652.941,132.812,-6.707,-2.364,0.368
-735.000,649.000,131.000,-6.440,-2.450,-0.000
-732.628,642.046,123.248,-5.469,-2.352,-0.191
-730.273,625.474,115.766,-4.397,-2.051,-0.273
-734.246,620.080,111.364,-2.898,-1.757,-0.350
-735.221,645.501,112.708,-0.950,-1.430,-0.690
-729.707,671.402,122.206,0.415,-1.198,-0.690
-728.106,675.184,130.313,0.062,-1.207,-0.366
-730.205,663.770,135.432,-1.389,-1.260,-0.357
-732.827,648.731,138.190,-3.041,-1.198,-0.536
-735.160,646.170,133.054,-4.115,-1.120,-0.917
-739.544,649.072,129.823,-4.599,-1.197,-0.984
-740.355,645.753,122.614,-4.401,-1.303,-0.816
-736.184,629.743,116.453,-3.773,-0.960,-0.714
-738.050,610.208,118.829,-2.764,-0.282,-0.640
-738.645,607.626,118.952,0.253,0.297,-0.874
-735.000,614.000,122.000,4.480,0.980,-0.770
-733.737,623.170,129.085,7.833,1.676,-0.445
-738.484,635.352,131.897,9.118,1.951,-0.359
-744.886,648.097,126.892,8.316,1.905,-0.358
-743.215,665.476,121.317,6.601,1.687,-0.208
-744.090,673.443,117.968,3.540,1.474,0.529
-745.463,659.051,120.296,-0.151,1.385,0.922
-738.348,636.509,126.219,-2.151,1.412,0.761
-730.563,623.592,123.488,-0.928,1.781,0.766
-725.023,618.770,117.288,2.743,2.241,0.817
-729.703,627.071,111.144,6.388,2.435,0.893
-740.247,653.621,101.717,9.277,2.411,0.637
-748.477,680.050,92.587,9.641,2.189,0.490
-753.813,696.455,95.130,6.556,1.824,0.675
-749.877,688.399,102.936,1.809,1.133,0.713
-742.000,650.000,108.000,-2.940,0.420,0.980
-735.712,615.041,113.627,-4.996,0.216,0.962
-733.460,609.153,112.426,-3.512,0.127,0.680
-735.934,633.544,108.038,-0.264,-0.022,0.971
-736.923,662.409,107.742,1.840,0.121,1.640
-737.783,667.019,115.188,0.895,0.322,2.174
-744.932,661.843,114.159,-0.789,0.153,2.006
-748.895,651.722,104.604,-1.511,0.076,1.668
-743.466,634.585,104.942,-1.950,0.087,1.561
-740.075,645.559,102.588,-1.497,-0.276,1.096
-739.878,677.464,103.882,-0.792,-0.449,0.833
-740.242,682.478,107.009,-2.254,-0.710,1.104
-740.995,662.638,102.893,-4.824,-1.328,1.144
-739.132,646.552,102.455,-5.976,-1.558,0.781
-736.749,645.571,107.090,-5.707,-1.538,0.456
-737.000,648.000,116.000,-4.760,-1.540,0.350
-739.750,643.711,119.186,-3.987,-1.597,0.237
-738.499,640.549,117.956,-3.734,-1.601,0.054
-734.007,638.848,118.252,-3.642,-1.323,-0.142
-735.463,639.677,116.683,-3.143,-1.109,-0.474
-738.793,638.922,109.351,-2.110,-1.163,-0.632
-738.720,637.325,102.666,-1.324,-1.275,-0.337
-736.791,645.909,113.279,-0.723,-1.172,-0.135
-732.440,655.559,125.693,-0.176,-0.924,-0.077
-727.984,657.654,123.488,0.385,-0.840,-0.043
-732.150,651.528,117.183,1.166,-0.844,-0.218
-741.036,643.928,111.782,1.668,-0.818,-0.363
-742.341,649.203,109.659,2.110,-0.698,-0.653
-738.788,663.239,111.930,2.431,-0.502,-0.843
-735.594,671.545,115.691,2.249,-0.421,-0.584
-734.000,668.000,121.000,1.470,-0.560,-0.490
-733.115,655.247,123.174,0.232,-0.707,-0.666
-733.339,642.376,121.381,-0.386,-0.476,-0.873
-735.431,637.798,120.203,0.075,-0.124,-0.899
-735.911,637.796,116.681,1.193,-0.090,-0.782
-738.355,636.452,112.697,1.922,-0.144,-0.777
-742.620,639.048,110.668,1.949,-0.035,-0.767
-740.591,644.355,111.177,1.959,0.074,-0.852
-735.191,646.987,114.697,1.715,0.071,-0.979
-737.487,644.361,118.417,1.282,0.112,-0.915
-741.381,638.143,117.898,1.745,0.245,-1.074
-735.701,638.306,108.715,3.764,0.296,-1.594
-738.047,651.784,104.120,5.487,0.244,-1.953
-748.480,673.670,100.870,5.454,-0.088,-2.308
-748.486,688.326,89.451,4.469,-0.910,-2.785
-747.000,689.000,88.000,2.030,-1.680,-2.800
-748.169,678.984,91.847,-1.146,-2.338,-2.648
-744.625,667.491,93.291,-3.026,-3.009,-2.867
-740.638,658.978,101.570,-3.972,-3.348,-2.963
-741.894,643.070,113.419,-4.718,-3.468,-2.713
-740.648,620.807,125.731,-5.145,-3.199,-2.375
-735.873,591.670,135.892,-4.775,-2.558,-1.808
-730.498,570.632,141.291,-2.863,-1.596,-1.224
-724.271,588.476,143.066,0.980,-0.676,-0.752
-724.866,618.848,140.082,5.051,-0.243,0.215
-730.441,639.514,134.880,5.778,0.273,1.225
-736.179,665.904,124.993,3.746,0.446,1.445
-734.981,685.761,109.979,1.994,0.309,1.405
-730.482,686.220,97.634,0.143,0.350,1.627
-737.555,670.663,90.425,-1.701,0.077,1.837
-743.000,645.000,91.000,-2.590,-0.350,1.820
-739.633,633.705,88.720,-2.112,-0.778,1.650
-737.196,653.777,89.317,-0.411,-1.137,1.402
-744.505,672.510,103.724,0.212,-1.675,1.706
-759.282,662.590,112.041,-1.130,-2.384,2.511
-757.799,647.584,114.724,-3.417,-2.648,2.371
-747.054,650.446,109.864,-4.850,-2.999,1.263
-746.347,669.723,101.743,-4.745,-3.773,0.380
-754.320,687.294,103.681,-5.285,-4.501,0.271
-758.784,688.114,108.397,-6.997,-5.032,0.221
-752.412,673.249,116.021,-8.680,-5.203,-0.171
-746.889,646.070,118.790,-9.637,-5.146,-0.445
-740.597,617.162,119.585,-9.122,-5.245,-0.988
-738.670,599.723,117.446,-6.714,-5.337,-1.421
-746.299,609.776,111.339,-3.551,-5.513,-1.853
-753.000,648.000,109.000,-1.890,-6.160,-2.660
-756.212,689.696,106.060,-2.678,-7.072,-3.157
-750.784,714.649,108.106,-5.693,-7.901,-3.599
-741.530,711.920,111.093,-9.798,-8.542,-3.805
-730.604,680.003,123.285,-12.915,-8.875,-3.704
-723.757,620.957,135.908,-13.358,-8.679,-3.297
-728.224,566.925,134.653,-10.223,-7.993,-3.042
-728.799,564.952,140.790,-4.095,-6.909,-3.860
-726.978,608.979,149.488,2.205,-5.869,-4.478
-727.883,655.362,157.039,5.264,-5.329,-4.136
-727.534,678.067,162.689,3.960,-5.015,-3.491
-724.878,674.944,158.861,0.287,-4.680,-3.110
-722.068,652.063,156.987,-3.095,-4.126,-3.078
-725.643,632.255,157.898,-4.882,-3.549,-2.945
-730.534,619.992,154.269,-4.502,-2.974,-2.589
-732.000,608.000,150.000,-2.730,-2.170,-2.030
-730.426,610.460,144.685,-0.680,-1.393,-1.645
-728.544,618.327,145.737,1.354,-0.358,-1.319
-732.055,610.456,156.651,2.433,0.672,-0.522
-737.068,592.342,154.879,3.065,1.283,0.127
-735.494,593.179,148.162,4.815,1.956,0.050
-732.897,623.313,145.151,7.129,2.569,-0.049
-737.585,656.064,144.307,7.866,2.963,0.315
-745.494,674.230,149.960,5.836,3.027,0.624
-749.171,678.567,141.525,2.647,2.630,0.452
-746.275,671.304,129.148,-0.114,2.219,-0.014
-744.143,650.741,124.806,-2.341,1.913,-0.215
-745.231,626.171,124.985,-3.261,1.634,-0.219
-742.906,612.206,128.251,-1.950,1.526,-0.309
-740.920,612.981,121.730,0.873,1.547,-0.356
-741.000,622.000,120.000,3.360,1.610,-0.420
-741.677,631.061,123.865,4.841,1.726,-0.427
-744.232,646.735,124.748,4.999,1.876,-0.379
-746.539,651.845,130.031,3.503,1.804,-0.166
-749.067,633.012,132.978,1.405,1.546,0.374
-747.937,618.333,134.788,0.083,1.440,0.525
-747.350,620.807,132.518,0.431,1.157,0.109
-751.321,635.390,121.009,1.701,0.587,0.017
-753.919,652.019,110.549,2.377,0.164,0.455
-753.587,662.506,106.785,1.818,-0.134,0.673
-749.685,674.363,109.903,0.559,-0.492,0.337
-745.184,676.922,115.865,-0.506,-0.789,0.189
-740.718,652.094,127.202,-2.049,-0.837,0.531
-737.046,613.339,139.784,-2.995,-0.849,0.715
-734.638,590.668,137.854,-1.347,-0.727,0.603
-734.000,605.000,131.000,1.680,-0.350,0.420
-739.744,642.734,129.960,3.802,-0.316,0.451
-746.852,665.624,129.645,3.363,-0.562,0.766
-747.760,662.306,125.830,0.911,-0.789,0.883
-742.959,643.686,120.997,-1.638,-1.009,0.757
-740.668,627.756,126.273,-2.769,-0.880,0.546
-740.672,630.630,134.165,-1.705,-0.577,0.528
-737.848,634.033,133.715,0.124,-0.571,0.862
-739.628,641.500,127.586,1.277,-0.757,0.800
-744.290,665.770,121.450,1.355,-0.926,0.400
-746.318,670.573,122.003,-0.482,-1.248,0.357
-747.497,649.401,124.262,-3.335,-1.553,0.507
-744.375,630.699,128.537,-4.420,-1.443,0.380
-732.990,624.044,134.360,-2.883,-1.173,0.070
-725.842,625.602,134.815,-0.124,-0.757,0.179
-731.000,633.000,134.000,2.380,-0.140,0.280
-736.333,641.630,134.062,3.985,0.413,0.299
-741.469,636.839,132.778,4.307,0.835,0.785
-743.335,625.478,130.328,3.570,0.993,0.969
-736.825,626.435,130.548,3.459,1.187,0.889
-733.643,642.322,133.081,4.043,1.503,1.062
-736.992,659.921,136.947,3.730,1.515,1.220
-741.271,660.473,137.734,2.320,1.395,1.336
-742.173,652.469,129.764,0.784,1.455,1.276
-738.642,648.494,121.942,0.304,1.702,1.027
-737.885,646.913,119.418,0.630,1.763,0.910
-740.397,647.686,118.054,1.022,1.506,0.895
-740.630,653.483,116.179,1.622,1.364,0.787
-739.603,663.622,116.272,1.879,1.294,0.788
-739.121,660.017,117.059,1.259,1.085,0.846
-743.000,641.000,118.000,0.280,0.910,0.910
-745.542,630.056,118.460,-0.054,0.736,0.877
-738.894,636.025,113.403,0.712,0.487,0.595
-736.503,650.069,111.884,1.632,0.299,0.654
-742.130,663.284,117.374,1.217,0.063,0.860
-745.995,660.887,125.300,-0.985,-0.243,0.940
-746.637,636.952,131.588,-2.911,-0.246,0.839
-741.528,625.191,125.118,-2.162,-0.061,0.229
-738.874,636.950,116.191,0.121,-0.066,-0.079
-741.582,646.188,119.382,1.588,-0.033,0.255
-742.447,646.959,124.343,1.992,0.111,0.553
-743.793,644.533,120.844,2.150,0.135,0.444
-742.909,648.962,113.959,2.871,-0.041,0.174
-740.366,653.224,110.239,3.809,-0.380,0.329
-740.030,649.198,108.843,4.158,-0.479,1.135
-740.000,643.000,110.000,4.340,-0.280,2.030
-739.888,636.731,120.646,4.246,-0.131,2.047
-741.881,649.489,132.320,4.145,-0.471,1.266
-744.744,680.302,122.373,4.598,-1.272,0.361
-744.550,712.755,100.536,3.634,-1.982,-0.344
-747.961,724.839,89.256,0.088,-2.939,-0.760
-752.267,693.668,88.260,-4.092,-3.988,-0.922
-748.599,645.580,88.896,-6.376,-4.667,-0.915
-744.323,612.378,86.062,-5.935,-5.277,-1.281
-738.514,613.219,92.848,-3.852,-5.731,-1.843
-734.639,644.533,114.735,-2.320,-6.026,-1.757
-739.795,666.239,137.367,-3.009,-6.108,-1.452
-743.982,662.117,152.581,-5.273,-6.101,-1.593
-741.591,639.846,151.821,-7.485,-6.165,-2.041
-734.913,613.348,140.409,-7.588,-5.864,-2.413
-731.000,598.000,136.000,-5.040,-4.970,-2.380
-735.035,602.447,134.793,-1.266,-3.953,-2.297
-740.147,625.114,126.318,2.810,-3.667,-2.464
-742.418,654.056,117.402,5.275,-3.799,-2.574
-745.620,670.446,116.163,4.714,-3.694,-2.340
-744.170,656.969,120.328,1.775,-3.492,-1.858
-734.364,641.013,134.090,-1.239,-3.338,-1.777
-725.552,643.644,149.755,-2.014,-3.366,-1.889
-722.179,657.500,151.278,-1.442,-3.367,-1.820
-720.069,675.993,146.726,-1.246,-3.248,-1.886
-723.019,673.259,134.749,-1.925,-3.102,-1.777
-734.751,651.423,119.653,-2.834,-2.826,-1.554
-743.862,626.035,120.151,-3.081,-2.516,-1.378
-742.614,606.568,129.083,-2.146,-2.082,-1.107
-736.002,601.919,142.218,-0.197,-1.533,-0.872
-733.000,607.000,152.000,1.050,-1.190,-0.630
-735.607,631.294,149.815,1.837,-0.951,-0.674
-737.225,652.902,144.579,1.982,-0.691,-0.673
-742.003,643.548,139.123,-0.103,-0.536,-0.245
-748.809,626.866,131.150,-1.650,-0.433,-0.191
-745.439,623.607,122.490,-0.821,-0.284,-0.416
-740.417,635.560,127.397,0.800,-0.107,-0.409
-742.306,647.445,135.120,2.091,-0.157,-0.425
-745.882,645.548,131.357,2.081,-0.469,-0.486
-744.160,637.674,129.100,1.245,-0.578,-0.545
-739.892,632.048,128.353,0.532,-0.491,-0.603
-740.999,634.707,127.403,0.546,-0.530,-0.687
-739.091,641.478,127.760,0.988,-0.551,-0.622
-735.265,641.939,138.521,0.588,-0.460,-0.232
-734.829,653.242,148.252,0.670,-0.419,-0.258
-732.000,677.000,139.000,1.610,-0.420,-0.560
-735.488,675.071,124.982,1.511,-0.363,-0.336
-745.866,651.659,114.765,0.645,-0.288,-0.085
-749.064,632.767,117.057,-0.221,-0.307,-0.095
-745.658,622.994,121.273,-0.081,-0.395,-0.205
-740.949,624.256,124.527,0.894,-0.428,-0.118
-735.996,629.556,138.033,1.010,-0.529,0.413
-736.367,642.223,140.585,0.814,-0.796,0.702
-744.336,653.707,131.787,-0.392,-1.220,0.631
-751.017,653.417,120.532,-2.807,-1.735,0.733
-753.971,650.352,113.708,-4.526,-1.919,0.834
-750.886,638.033,120.569,-5.711,-1.836,0.880
-741.345,624.234,132.741,-5.572,-1.787,1.100
-735.926,613.766,143.795,-3.991,-1.482,1.294
-733.736,609.339,145.549,-1.674,-1.068,1.142
-735.000,618.000,139.000,1.330,-0.840,0.840
-741.862,625.715,125.634,2.942,-0.710,0.998
-748.379,636.720,111.727,2.915,-0.723,1.238
-752.202,641.651,117.258,1.889,-0.934,1.372
-748.886,635.989,133.728,-0.194,-1.131,1.715
-738.450,641.706,143.996,-1.461,-1.074,1.540
-727.837,651.750,148.892,-1.215,-0.956,1.336
-724.126,656.336,150.978,-0.899,-0.829,1.469
-730.397,664.118,144.953,-0.549,-0.707,1.155
-735.626,674.434,129.619,0.402,-0.595,0.805
-736.842,666.811,116.619,0.507,-0.509,0.773
-739.688,642.820,113.116,-0.208,-0.687,0.986
-738.175,634.098,120.442,0.323,-0.585,1.004
-732.465,645.374,131.026,1.858,-0.300,0.786
-733.818,658.896,140.569,2.413,-0.466,0.777
-739.000,670.000,150.000,1.120,-0.700,0.770
-736.624,673.178,150.129,-1.065,-0.763,0.655
-735.630,655.767,138.293,-3.109,-0.889,0.509
-740.804,628.702,120.579,-4.354,-1.224,0.476
-744.494,625.835,109.975,-3.297,-1.336,0.264
-746.171,650.930,114.249,-1.094,-1.238,0.024
-742.514,672.416,128.736,-1.053,-1.377,0.191
-735.588,677.977,141.623,-2.496,-1.551,0.195
-733.866,671.031,144.075,-4.069,-1.732,-0.113
-737.703,654.853,142.660,-5.672,-1.975,-0.433
-742.686,639.589,136.619,-6.578,-2.215,-0.607
-745.161,628.765,124.076,-7.036,-2.464,-0.646
-749.058,622.223,120.309,-7.235,-2.679,-0.564
-752.049,618.090,131.350,-8.057,-2.704,-0.230
-743.977,619.406,146.229,-9.036,-2.378,0.115
-729.000,616.000,159.000,-8.750,-1.820,0.420
-721.962,606.110,162.568,-7.627,-1.322,0.690
-725.244,615.882,156.747,-5.191,-0.922,0.567
-731.044,634.300,152.017,-2.466,-0.354,0.435
-736.511,648.818,146.647,-0.848,0.193,0.505
-737.942,667.164,136.224,0.374,0.371,0.031
-738.023,679.121,123.874,0.919,0.232,-0.368
-736.796,665.863,126.857,0.029,0.064,-0.038
-734.131,629.699,137.532,-1.223,0.186,0.145
-732.538,606.958,142.379,-0.585,0.558,0.021
-730.463,612.420,147.968,1.693,0.699,-0.012
-733.221,642.396,136.972,4.080,0.450,-0.007
-738.284,690.230,129.069,4.979,0.118,-0.160
-747.328,715.867,133.761,2.683,-0.376,-0.308
-754.046,692.618,130.779,-1.395,-0.721,-0.365
-745.000,637.000,138.000,-4.480,-0.630,-0.560
-733.349,577.457,142.347,-4.063,-0.242,-0.748
-725.235,546.951,142.285,0.959,0.608,-0.884
-719.376,568.876,146.591,8.390,1.532,-0.880
-720.124,628.245,141.426,14.514,2.251,-0.566
-727.361,687.604,140.975,15.873,2.559,-0.112
-738.525,720.415,142.981,12.193,2.172,0.069
-746.345,716.417,141.979,5.838,1.490,-0.080
-745.498,683.059,142.027,-0.703,1.005,-0.072
-736.205,647.695,141.957,-4.306,0.753,-0.206
-729.361,630.702,139.974,-4.148,0.535,-0.444
-729.718,629.766,130.744,-2.226,0.485,-0.276
-734.895,635.591,122.312,-0.333,0.445,-0.047
-743.476,638.680,111.104,0.594,0.190,0.107
-747.014,644.155,105.299,0.674,-0.019,0.148
-744.000,647.000,116.000,0.280,-0.070,0.420
-740.291,634.493,130.776,-0.214,-0.238,0.817
-739.341,621.153,143.540,-0.515,-0.400,0.836
-737.025,617.522,148.852,-0.071,-0.073,0.921
-736.307,621.236,150.979,0.929,0.335,1.026
-742.811,619.976,147.430,1.032,0.555,1.228
-747.474,609.291,135.944,0.733,0.527,1.527
-748.055,604.263,120.817,0.781,0.421,1.690
-748.989,621.673,111.934,1.143,0.494,1.693
-747.628,654.527,118.265,1.683,0.236,1.525
-744.814,674.418,124.184,1.040,-0.119,1.780
-741.833,676.151,133.542,-0.700,-0.361,1.844
-735.349,663.395,138.175,-1.992,-0.539,1.407
-728.192,646.380,134.312,-1.798,-0.308,1.241
-727.287,636.880,134.642,-0.264,0.037,1.177
-730.000,632.000,125.000,2.030,0.140,1.120
-732.457,637.844,123.523,3.985,0.257,1.217
-735.856,654.935,133.494,4.124,0.313,1.649
-733.003,664.188,136.104,3.320,0.251,2.171
-727.634,646.230,138.163,1.772,0.547,2.616
-731.146,629.585,137.023,0.361,0.711,2.808
-737.079,634.231,136.202,0.802,0.726,2.641
-740.156,632.829,136.941,0.705,0.920,2.980
-740.989,643.144,135.913,-0.346,0.914,3.169
-741.715,670.351,140.348,-1.567,0.913,2.835
-741.320,690.623,146.293,-4.169,0.801,2.812
-737.385,692.339,145.619,-7.658,0.518,2.693
-737.555,655.962,137.144,-10.998,0.212,2.531
-737.233,615.207,123.919,-11.622,0.209,2.246
-733.561,602.423,115.289,-7.978,0.812,1.667
-733.000,608.000,115.000,-2.310,1.400,1.330
-733.957,632.355,117.558,2.639,1.604,1.147
-732.348,658.811,120.778,5.412,1.639,1.002
-728.456,670.259,125.267,5.963,1.825,0.971
-731.035,673.069,131.738,4.625,1.865,0.961
-732.736,679.094,140.828,2.530,1.686,0.711
-732.271,690.696,151.025,0.086,1.584,0.337
-735.111,698.191,152.648,-2.564,1.382,-0.031
-731.605,691.333,143.822,-4.440,1.200,-0.398
-722.780,667.382,131.690,-5.356,1.108,-0.682
-717.993,643.175,113.795,-4.133,1.367,-1.146
-722.552,635.044,104.963,-0.517,2.056,-1.533
-727.584,639.538,114.851,3.529,2.556,-1.615
-729.325,642.368,125.793,6.096,2.668,-1.497
-727.240,649.033,131.398,6.923,2.656,-1.588
-723.000,669.000,128.000,6.930,2.520,-2.030
-729.555,684.618,122.997,5.433,2.044,-2.181
-734.684,688.493,124.318,2.501,1.643,-1.941
-731.297,668.947,120.976,-0.473,1.659,-1.093
-732.521,621.062,118.398,-2.218,1.908,-0.315
-740.301,578.252,121.792,-1.023,2.369,-0.487
-746.658,564.779,128.722,3.077,2.934,-0.604
-743.577,583.447,131.854,8.135,3.548,-0.330
-740.873,623.649,127.245,11.504,4.040,-0.152
-744.892,664.142,127.032,11.242,4.056,0.034
-747.959,692.837,122.816,8.160,3.648,0.073
-746.767,704.501,113.683,3.723,3.052,-0.147
-745.323,684.892,108.928,-1.335,2.486,-0.168
-740.255,632.005,103.774,-4.754,2.209,0.231
-724.173,590.867,108.664,-4.184,2.643,0.761
-711.000,608.000,121.000,-0.000,3.640,0.700
-711.230,671.988,128.272,4.956,4.125,0.288
-717.084,733.143,131.241,6.804,4.066,0.623
-722.764,741.731,127.891,3.865,4.079,1.234
-726.818,692.740,117.547,-1.359,3.979,1.256
-730.111,643.599,101.523,-4.540,3.759,0.738
-732.251,648.013,89.063,-3.738,3.391,0.071
-734.353,686.738,88.331,-1.824,2.739,-0.121
-742.339,700.725,94.620,-3.408,1.708,0.624
-745.931,679.986,94.440,-8.122,0.440,1.272
-740.919,655.908,89.188,-11.718,-0.268,0.955
-744.538,628.928,95.242,-13.161,-0.740,0.883
-751.107,590.189,104.612,-13.106,-1.407,1.160
-752.169,556.537,107.066,-10.184,-1.474,1.162
-754.404,549.175,104.481,-3.954,-1.057,0.935
-756.000,574.000,105.000,2.590,-0.770,0.770
-755.583,603.805,113.781,6.214,-0.592,1.068
-747.621,620.984,117.937,7.534,-0.317,1.226
-737.939,645.615,118.746,8.072,-0.043,1.040
-737.097,672.791,120.618,7.812,-0.272,0.747
-736.420,672.631,114.047,6.988,-0.849,0.639
-737.517,643.993,99.722,6.067,-1.137,0.794
-739.048,612.034,91.823,6.571,-0.790,0.602
-740.780,598.132,93.638,9.626,-0.049,0.292
-740.604,607.904,102.351,13.988,0.405,0.229
-731.028,643.733,120.623,17.797,0.914,0.017
-725.773,690.059,133.217,19.429,1.533,-0.374
-726.508,725.042,137.880,17.695,1.532,-0.538
-730.460,738.970,137.776,12.311,1.233,-0.689
-731.516,717.626,127.105,5.518,0.847,-0.756
-726.000,679.000,117.000,0.280,0.630,-0.490
-724.268,653.304,107.337,-2.756,0.804,-0.130
-720.405,647.295,103.610,-3.286,1.038,0.221
-717.991,661.673,109.248,-2.250,1.302,0.344
-719.526,680.359,111.908,-2.264,1.522,0.586
-718.183,692.448,113.288,-3.373,1.920,0.827
-718.234,687.558,105.961,-4.001,2.083,0.968
-720.169,665.522,88.766,-3.956,1.882,1.269
-721.922,662.036,79.240,-2.799,1.951,0.955
-722.722,681.562,78.788,-0.877,1.931,0.520
-723.771,703.734,79.203,0.377,1.694,0.453
-723.845,713.315,78.612,0.068,1.185,0.369
-726.938,701.181,80.290,-1.989,0.608,0.302
-732.524,682.426,86.013,-3.886,0.365,-0.079
-736.572,666.827,91.673,-4.692,0.081,-0.455
-739.000,653.000,94.000,-4.690,-0.420,-0.490
-740.354,631.123,94.758,-4.248,-0.879,-0.252
-746.356,609.904,98.462,-3.825,-0.816,-0.210
-749.020,619.036,109.088,-2.284,-0.422,-0.832
-749.611,641.983,119.813,-0.431,-0.189,-1.291
-753.038,635.442,116.979,0.110,-0.288,-1.147
-752.351,601.012,103.942,-0.063,-0.398,-0.773
-748.756,588.617,96.977,1.143,0.210,-0.951
-747.877,610.133,104.939,3.429,1.072,-1.398
-748.832,626.634,116.415,4.662,1.359,-0.951
-740.272,629.230,111.369,5.249,1.092,-0.331
-727.605,634.514,97.915,5.314,0.960,-0.440
-725.329,658.716,90.197,6.066,1.305,-1.107
-730.599,692.525,90.190,7.320,1.479,-1.516
-730.189,708.870,99.431,6.640,1.382,-1.277
-721.000,702.000,101.000,5.180,1.260,-1.120
-716.518,680.230,96.168,4.363,1.133,-1.407
-724.938,649.198,96.376,3.737,1.065,-1.659
-735.244,621.568,94.465,3.594,1.078,-1.339
-730.209,625.926,98.163,5.204,1.417,-1.159
-724.108,652.575,105.129,6.920,1.768,-1.143
-729.342,677.253,105.368,6.950,1.597,-0.859
-732.164,692.385,98.266,5.491,1.159,-0.922
-737.428,680.961,90.320,2.355,0.913,-0.860
-742.136,650.504,88.366,-0.198,1.042,-0.687
-739.751,620.123,86.945,-0.756,1.472,-0.754
-738.192,606.331,92.919,0.593,1.990,-0.499
-737.681,617.752,99.915,3.759,2.235,-0.327
-738.110,643.951,94.348,6.679,2.238,-0.457
-738.044,671.284,87.275,7.318,2.230,-0.395
-742.000,675.000,84.000,5.040,1.960,-0.210
-748.662,659.072,78.016,1.865,1.471,-0.082
-746.615,649.505,74.463,0.015,1.042,-0.058
-742.199,639.818,75.857,-0.101,0.598,-0.086
-738.411,639.492,70.010,1.318,0.299,-0.035
-733.732,656.782,69.642,2.909,0.289,0.020
-738.952,662.975,77.348,3.571,0.146,0.082
-743.958,665.639,77.888,3.644,-0.239,0.067
-738.524,675.519,77.037,3.716,-0.424,0.185
-734.174,678.277,77.774,3.167,-0.244,0.484
-734.800,683.508,87.253,1.564,-0.315,0.277
-737.586,681.400,95.601,-0.303,-0.795,0.071
-736.607,663.985,87.581,-1.998,-1.106,0.173
-733.543,645.200,74.238,-3.009,-1.574,0.020
-738.131,627.823,69.147,-3.222,-1.889,0.307
-743.000,624.000,77.000,-2.940,-1.540,1.050
-737.475,639.801,85.300,-1.788,-1.217,1.332
-729.483,673.681,88.394,-0.320,-1.142,1.273
-732.373,702.531,89.807,-0.694,-1.451,1.237
-741.701,698.068,90.019,-3.617,-1.908,1.088
-745.578,663.657,86.658,-6.852,-2.211,0.968
-744.208,616.080,73.496,-8.177,-2.391,1.058
-738.567,604.164,66.182,-6.494,-2.226,0.727
-736.839,637.074,77.825,-3.284,-2.347,0.347
-737.841,669.341,88.365,-1.848,-2.803,0.681
-731.777,688.607,88.546,-2.698,-2.971,0.790
-730.533,685.432,86.639,-4.206,-3.133,0.274
-739.754,655.576,80.620,-5.195,-3.419,-0.153
-745.127,619.171,75.055,-5.103,-3.457,-0.333
-736.052,614.600,80.992,-2.692,-2.884,-0.608
-728.000,651.000,103.000,0.770,-2.030,-0.770
-729.023,684.996,125.958,1.745,-1.627,-0.596
-727.620,691.067,130.766,-0.124,-1.600,-0.391
-732.239,664.008,120.790,-3.288,-1.650,-0.360
-737.728,627.358,99.516,-5.454,-1.672,-0.738
-736.286,609.914,82.461,-5.241,-1.384,-1.031
-737.054,617.143,83.395,-2.981,-0.856,-0.844
-732.413,648.743,92.877,-0.009,-0.389,-0.534
-726.243,671.762,105.166,1.687,-0.087,-0.166
-724.880,658.214,110.650,2.074,0.133,0.021
-727.301,634.530,104.326,2.338,0.600,-0.268
-734.378,632.503,96.978,3.475,1.171,-0.839
-737.396,646.595,93.504,4.774,1.360,-0.908
-736.817,669.494,88.005,4.813,1.166,-0.382
-738.564,681.636,83.772,3.111,0.688,0.051
-744.000,659.000,86.000,-0.210,0.350,0.280
-744.036,637.437,94.903,-2.901,0.622,0.189
-734.826,645.259,107.753,-2.715,1.063,-0.182
-727.060,659.456,102.844,-0.197,1.079,-0.420
-723.826,674.867,84.153,2.629,0.880,-0.607
-731.599,684.716,76.590,3.928,0.841,-0.832
-746.989,659.059,74.325,2.936,0.842,-0.727
-748.400,624.314,73.185,2.208,1.004,-0.794
-735.099,619.525,81.909,4.127,1.376,-0.996
-724.896,629.207,96.499,6.813,1.543,-0.430
-723.391,651.494,102.355,8.836,1.486,-0.093
-725.394,672.740,101.671,9.465,1.520,-0.140
-730.626,667.274,104.097,8.205,1.901,0.326
-736.668,652.016,99.421,6.413,2.494,0.556
-740.210,652.692,92.719,5.275,3.007,0.210
-737.000,671.000,98.000,4.760,3.290,-0.070
-733.685,673.325,99.933,3.470,3.306,0.378
-736.452,653.053,90.905,1.099,3.176,0.904
-731.816,636.927,82.907,-1.071,3.193,0.765
-730.860,631.676,76.156,-1.897,3.376,0.716
-734.386,646.348,67.303,-0.945,3.119,0.806
-731.396,673.547,54.606,0.362,2.528,1.199
-734.442,679.195,41.356,0.280,2.071,2.015
-738.772,656.920,44.016,-1.151,1.827,2.317
-742.327,642.937,59.040,-1.690,1.777,2.049
-741.072,655.193,68.328,-0.043,1.551,1.690
-733.471,669.954,71.163,1.739,1.089,1.586
-737.161,675.593,66.719,2.094,0.279,1.579
-744.856,680.015,55.562,1.526,-0.569,1.138
-749.818,690.135,51.240,0.492,-1.048,0.382
-755.000,673.000,59.000,-1.610,-1.610,0.140
-756.391,612.042,69.440,-3.870,-2.021,0.592
-749.227,578.395,80.793,-2.637,-1.794,0.303
-735.360,608.996,94.520,2.401,-1.121,-0.646
-731.754,664.849,104.964,6.632,-0.651,-0.806
-737.383,697.314,107.290,6.601,-0.683,-0.548
-744.640,688.042,91.809,3.440,-0.890,-0.615
-747.901,662.153,68.563,0.297,-1.056,-1.096
-742.548,645.632,59.095,-1.223,-0.993,-1.591
-735.107,643.781,63.878,-0.977,-0.815,-1.548
-724.232,651.990,81.972,-0.023,-0.537,-1.166
-714.541,665.407,98.915,1.050,0.023,-0.990
-710.929,675.185,99.102,2.504,0.574,-1.102
-715.389,670.257,87.460,3.510,0.817,-0.819
-725.242,645.437,69.168,3.999,1.036,-0.107
-727.000,627.000,58.000,4.760,1.680,0.280
-723.450,648.325,66.187,5.918,2.433,0.393
-720.827,681.836,87.633,6.533,2.821,0.695
-717.872,692.073,102.533,5.438,2.896,1.188
-716.886,676.988,95.175,4.068,2.852,1.617
-723.426,652.374,72.722,3.914,3.069,1.890
-734.213,648.682,53.864,4.415,3.410,1.629
-741.516,665.410,50.168,4.993,3.260,1.101
-747.728,675.242,54.589,4.337,2.770,1.416
-746.404,659.938,60.610,1.927,2.272,1.948
-741.216,637.220,63.722,-0.097,1.885,1.702
-741.431,637.619,56.381,-0.146,1.463,1.023
-742.484,666.199,47.414,0.918,0.800,0.150
-748.562,702.834,45.353,0.669,0.149,-0.330
-756.948,690.660,52.397,-2.602,-0.606,0.100
-757.000,634.000,57.000,-5.950,-0.980,0.420
-746.897,604.729,56.152,-5.000,-0.624,-0.387
-737.588,609.461,69.054,-1.047,-0.331,-1.183
-738.593,628.652,85.216,2.320,-0.176,-0.904
-739.279,659.319,82.972,4.443,-0.171,-0.634
-733.286,691.880,63.831,5.111,-0.364,-0.887
-731.551,709.163,50.523,3.029,-0.630,-0.950
-739.738,691.666,51.144,-1.164,-0.929,-0.598
-742.544,660.934,51.010,-4.044,-1.110,-0.353
-729.442,641.827,55.375,-3.791,-1.197,-0.327
-718.352,635.504,68.968,-1.907,-1.073,0.032
-715.889,650.998,78.352,0.339,-0.823,0.407
-717.044,672.670,72.324,1.771,-0.637,0.531
-725.099,681.561,59.453,1.162,-0.793,0.555
-736.826,681.169,54.957,-0.579,-1.173,0.578
-745.000,668.000,55.000,-2.660,-1.470,0.770
-737.436,657.988,49.568,-3.955,-1.785,0.609
-723.427,660.789,53.885,-3.699,-1.895,0.515
-724.700,658.951,71.370,-3.448,-1.842,0.938
-733.095,657.203,80.850,-3.107,-1.575,0.807
-736.726,646.433,84.633,-2.544,-1.369,0.520
-738.396,626.538,74.141,-1.982,-1.378,0.756
-740.050,632.720,62.902,-0.657,-0.935,0.594
-738.253,665.258,69.449,0.446,-0.564,0.096
-737.197,692.212,73.293,0.362,-0.704,0.015
-741.349,685.126,77.753,-1.790,-0.989,0.305
-740.107,656.461,78.569,-4.640,-1.002,0.199
-736.925,624.313,78.422,-5.145,-0.718,-0.223
-736.784,598.673,71.909,-3.356,-0.732,-0.045
-734.676,628.924,53.857,0.547,-0.669,-0.134
-734.000,696.000,52.000,3.850,-0.630,-0.490
-734.625,733.738,53.153,2.760,-1.218,-0.244
-738.785,731.954,55.717,-1.419,-1.863,-0.302
-738.778,690.890,61.116,-5.800,-2.397,-0.710
-729.492,643.960,61.949,-7.828,-2.682,-1.150
-725.250,622.372,73.338,-6.792,-2.472,-1.329
-724.702,621.570,82.041,-3.851,-2.185,-1.048
-725.305,636.165,84.101,-0.877,-2.022,-0.821
-733.264,643.074,81.582,0.144,-1.964,-0.450
-740.390,642.204,73.137,-0.292,-1.821,-0.302
-740.250,647.949,72.699,-0.701,-1.459,-0.540
-736.076,656.205,79.553,-0.858,-1.211,-0.479
-732.428,670.096,84.409,-0.846,-1.198,-0.459
-730.399,682.310,81.414,-0.314,-1.172,-0.694
-730.310,677.021,76.280,-0.460,-1.115,-0.686
-736.000,660.000,70.000,-1.260,-1.120,-0.770
-743.232,643.308,62.649,-1.122,-1.173,-1.099
-745.616,633.821,60.798,-0.630,-1.304,-1.064
-740.913,654.275,63.485,0.220,-1.309,-1.208
-732.159,695.163,75.950,0.481,-1.253,-1.521
-728.352,705.599,88.541,-1.508,-1.566,-1.232
-730.739,679.929,87.680,-4.590,-1.943,-0.830
-733.068,636.458,78.222,-6.101,-1.788,-0.460
-732.140,601.268,72.060,-4.686,-1.234,-0.213
-731.605,603.722,74.153,-1.415,-0.769,-0.190
-733.088,632.628,79.178,1.997,-0.545,0.212
-731.771,664.397,90.199,3.075,-0.427,0.644
-733.343,672.089,90.077,1.624,-0.453,0.676
-736.333,654.917,76.155,0.134,-0.462,0.481
-736.249,638.632,74.643,-0.162,-0.150,0.269
-742.000,618.000,79.000,0.980,0.210,0.490
-743.698,595.805,82.933,3.365,0.724,0.817
-737.675,596.489,92.336,7.175,1.563,0.826
-733.246,616.974,103.525,11.925,2.346,0.582
-734.737,624.912,103.736,15.836,2.954,0.521
-740.202,617.967,85.953,18.222,3.238,0.765
-731.754,637.045,72.694,20.215,3.858,0.309
-721.757,692.083,76.505,21.922,4.884,-0.548
-722.929,761.089,79.163,21.461,4.755,-1.101
-722.630,805.685,74.078,17.206,3.850,-0.879
-726.727,791.657,62.340,9.811,3.521,-0.235
-730.565,729.347,50.977,2.771,3.420,-0.679
-730.860,652.999,47.427,-1.260,3.198,-1.035
-726.640,617.278,37.070,-1.066,3.293,-1.159
-716.767,644.897,31.129,2.490,3.509,-1.639
-715.000,688.000,36.000,4.830,3.220,-0.980
-718.265,695.274,41.723,2.924,2.713,0.261
-724.815,661.365,48.992,-1.422,2.563,1.003
-728.864,637.132,44.093,-3.651,2.671,0.774
-726.740,652.742,37.148,-2.464,2.513,0.110
-732.230,667.265,35.790,-1.473,1.914,0.369
-741.597,652.631,39.536,-2.267,1.504,1.244
-741.657,632.183,45.158,-2.381,1.790,1.515
-737.896,641.866,46.534,-0.581,2.287,0.581
-746.465,670.038,58.123,0.745,2.274,-0.205
-759.822,661.649,63.851,-0.435,1.628,0.128
-760.674,612.940,52.320,-2.543,1.007,0.540
-753.184,589.414,32.567,-2.224,1.104,0.106
-750.104,625.581,24.622,0.248,1.225,-0.672
-756.082,672.267,42.239,0.673,0.555,-0.453
-757.000,684.000,52.000,-1.540,-0.420,0.280
-746.671,671.994,41.985,-3.343,-0.956,0.318
-739.313,646.770,32.022,-3.944,-0.938,0.135
-740.522,617.440,32.311,-3.265,-0.932,0.201
-741.251,612.352,38.992,-0.517,-0.965,0.157
-730.438,636.974,49.614,3.109,-0.579,0.036
-717.981,676.501,59.382,5.806,-0.259,-0.019
-718.526,708.467,57.526,6.457,-0.606,-0.147
-729.104,707.417,48.883,4.182,-1.221,-0.141
-738.055,681.984,35.615,0.867,-1.575,-0.279
-739.483,650.863,30.913,-0.927,-1.608,-0.478
-736.418,628.748,41.695,-0.834,-1.351,-0.243
-726.234,635.149,55.829,1.231,-0.884,-0.087
-715.426,651.027,73.239,3.744,-0.313,0.327
-713.082,664.997,79.581,4.941,0.218,0.785
-717.000,693.000,69.000,5.250,0.700,0.350
-730.310,701.291,59.023,3.831,0.866,0.147
-745.669,662.465,52.498,-0.032,0.599,0.792
-746.772,621.557,44.073,-3.050,0.718,1.114
-734.386,628.386,43.787,-2.594,1.318,0.747
-726.374,671.594,56.402,-1.113,1.710,0.706
-728.603,698.192,66.946,-1.802,1.742,1.270
-727.827,679.264,73.215,-4.401,1.841,1.773
-728.656,639.673,64.622,-5.706,2.214,1.653
-732.776,618.561,40.498,-3.781,2.422,0.929
-732.002,637.497,27.999,-0.172,2.590,0.433
-733.132,691.889,27.770,2.921,2.645,0.257
-735.927,736.687,35.320,3.478,2.199,0.220
-737.567,729.860,42.075,0.931,1.662,0.281
-741.906,678.569,40.519,-2.669,1.098,-0.002
-748.000,620.000,36.000,-4.270,0.630,-0.630
-748.642,595.163,29.403,-2.235,0.555,-1.265
-742.801,619.146,33.219,1.541,0.534,-1.380
-737.723,658.973,46.797,3.893,0.331,-0.809
-733.409,681.332,59.169,3.857,0.116,-0.258
-730.046,687.860,65.311,2.451,0.223,-0.422
-731.687,679.890,62.782,0.771,0.462,-0.854
-734.072,667.493,55.409,0.070,0.569,-1.142
-733.970,670.351,50.176,0.634,0.754,-1.393
-736.173,674.544,47.997,1.426,0.854,-1.226
-737.888,659.889,42.998,1.436,0.743,-0.723
-734.067,639.132,42.452,0.212,0.674,-0.433
-730.321,642.535,42.452,-0.306,0.743,-0.623
-726.992,668.427,42.790,0.028,0.736,-0.755
-727.493,688.095,44.595,-1.032,0.331,-0.436
-730.000,696.000,34.000,-2.940,-0.280,-0.350
-727.297,692.173,24.679,-4.671,-0.612,-0.601
-727.988,672.595,20.823,-5.711,-0.643,-0.692
-731.068,654.901,22.235,-5.252,-0.590,-0.752
-735.620,642.801,36.793,-3.762,-0.527,-0.653
-737.547,622.877,48.218,-2.044,-0.457,0.012
-733.115,612.181,54.481,-0.136,-0.312,0.473
-735.446,618.042,57.869,1.023,-0.208,0.565
-739.055,649.851,49.003,1.252,-0.269,0.394
-736.400,712.966,38.804,0.849,-0.526,-0.321
-737.507,747.107,38.895,-2.431,-1.083,-0.284
-744.006,718.581,40.464,-7.824,-1.678,0.110
-745.087,647.574,36.616,-11.133,-1.979,-0.175
-738.893,573.774,32.381,-9.818,-1.751,-0.398
-734.498,556.168,40.276,-3.855,-0.989,-0.584
-730.000,603.000,57.000,3.360,-0.350,-0.420
-725.170,675.949,58.473,7.840,-0.369,0.034
-728.624,735.552,46.926,7.330,-0.776,0.090
-742.975,744.070,40.396,1.923,-1.225,0.014
-760.841,689.512,40.807,-5.147,-1.787,-0.219
-762.522,604.853,42.083,-9.460,-2.205,-0.374
-742.152,561.181,40.985,-7.580,-1.996,-0.475
-720.947,602.612,46.735,-0.684,-1.518,-0.863
-719.335,681.732,54.743,4.964,-1.645,-0.738
-730.631,728.174,53.383,4.985,-2.062,-0.260
-737.801,728.217,46.379,0.923,-2.070,-0.255
-739.427,692.090,43.096,-3.525,-2.010,-0.523
-737.415,642.761,49.593,-5.651,-2.060,-0.623
-732.099,610.854,51.354,-3.619,-2.097,-0.139
-726.258,603.424,49.144,0.970,-1.815,0.582
-726.000,623.000,55.000,4.060,-1.190,0.840
-733.876,667.006,62.912,4.712,-0.682,0.609
-736.370,701.748,66.180,3.027,-0.551,0.376
-731.409,705.637,52.814,-0.512,-0.961,0.267
-732.485,687.817,37.271,-3.382,-1.368,-0.034
-737.887,651.874,37.196,-4.760,-1.513,-0.151
-739.796,625.898,40.846,-3.964,-1.513,-0.385
-735.634,631.016,46.532,-0.693,-1.237,-0.940
-734.727,643.265,51.792,2.483,-1.115,-0.931
-738.722,651.995,54.082,3.948,-1.194,-0.756
-737.138,660.518,59.330,4.092,-1.070,-0.927
-735.565,669.750,60.498,4.107,-0.901,-1.321
-741.215,677.493,54.166,3.923,-1.151,-1.815
-746.743,668.616,59.649,2.459,-1.431,-1.832
-740.181,643.456,72.108,1.386,-1.006,-1.697
-727.000,640.000,70.000,3.080,0.000,-2.310
-721.558,660.394,70.786,6.405,1.117,-2.936
-730.520,652.803,77.380,8.660,1.817,-2.526
-742.100,626.437,71.259,10.103,2.351,-2.023
-741.471,627.586,61.140,11.901,3.238,-2.128
-743.842,646.353,59.398,12.800,3.871,-2.117
-744.917,667.578,60.739,11.810,3.908,-1.816
-735.393,696.006,53.224,9.687,4.007,-1.600
-735.498,701.634,47.894,6.964,4.136,-1.367
-741.604,663.911,50.970,3.653,3.988,-0.739
-737.903,635.480,47.191,2.141,4.285,-0.765
-723.053,655.943,38.479,4.118,4.910,-1.766
-715.662,700.356,27.743,6.074,4.791,-2.147
-722.780,718.943,19.124,5.158,4.028,-1.812
-731.203,680.021,15.289,2.250,3.629,-1.059
-737.000,623.000,8.000,0.210,3.850,-0.630
-734.703,607.272,2.461,1.580,3.948,-1.074
-732.959,627.848,0.598,4.554,3.630,-0.879
-736.451,653.325,5.275,6.111,3.230,-0.057
-735.956,674.198,14.724,5.744,2.927,0.379
-735.064,681.204,17.170,3.764,2.570,0.393
-741.060,668.478,16.775,0.979,2.051,0.362
-751.723,640.475,13.764,-0.918,1.742,0.500
-755.245,609.671,16.302,-0.675,1.809,0.618
-747.638,605.068,26.377,1.703,1.892,0.773
-736.076,641.144,30.896,4.904,1.853,0.540
-731.469,699.049,33.548,6.358,1.703,0.105
-740.623,730.086,30.037,4.420,1.152,-0.043
-754.610,697.090,17.560,0.016,0.316,-0.065
-754.647,646.305,3.114,-3.568,-0.090,-0.198
-740.000,638.000,0.000,-3.780,-0.140,-0.910
-735.205,651.752,9.560,-2.559,-0.651,-1.012
-741.423,651.892,17.556,-2.407,-1.346,-0.189
-739.094,642.063,24.767,-2.673,-1.568,0.169
-733.250,646.097,21.435,-2.369,-1.475,-0.001
-736.398,669.522,16.817,-2.375,-1.563,-0.439
-745.832,681.460,23.571,-3.436,-2.087,-0.317
-744.267,676.730,23.714,-4.309,-2.306,0.076
-731.760,679.574,21.025,-4.718,-2.237,-0.184
-728.800,676.792,22.198,-5.462,-2.311,-0.274
-735.422,642.669,28.225,-6.313,-2.261,0.196
-740.356,592.385,37.030,-6.371,-2.162,0.969
-739.827,574.921,35.548,-4.234,-1.719,1.129
-733.756,617.466,24.232,-0.704,-1.607,0.642
-730.119,685.712,16.452,0.921,-2.196,0.867
-737.000,726.000,17.000,-1.260,-2.660,1.610
-740.772,726.406,18.653,-5.590,-2.984,1.793
-731.800,703.111,23.337,-8.950,-2.983,1.345
-725.909,667.505,32.591,-9.889,-2.890,0.915
-725.820,635.337,37.394,-7.995,-2.785,0.607
-724.336,630.724,32.115,-3.518,-2.455,0.303
-727.434,660.507,27.955,1.276,-2.197,0.011
-737.925,691.746,31.148,2.675,-2.267,-0.066
-746.751,705.483,26.725,0.265,-2.946,-0.059
-745.198,705.439,18.650,-3.526,-3.622,-0.256
-740.285,689.957,20.031,-7.630,-3.903,-0.267
-736.414,672.918,29.281,-10.381,-4.129,-0.408
-731.645,657.889,39.095,-10.769,-4.192,-0.643
-728.093,646.415,46.249,-9.476,-3.971,-0.736
-728.512,645.589,53.884,-7.266,-3.665,-0.945
-735.000,655.000,51.000,-4.970,-3.430,-1.120
-741.151,659.750,38.483,-3.604,-3.410,-1.147
-747.786,635.015,32.684,-4.127,-3.494,-0.856
-751.616,604.006,31.599,-4.483,-3.043,-0.723
-742.737,597.997,41.679,-2.782,-2.205,-0.804
-732.977,614.237,65.791,-0.157,-1.499,-0.743
-729.434,642.893,85.546,2.210,-0.930,-0.801
-730.369,668.589,93.036,3.075,-0.539,-0.998
-738.397,681.600,82.622,2.207,-0.479,-1.300
-742.132,682.399,56.510,0.700,-0.674,-1.765
-742.663,680.362,31.637,-0.697,-0.693,-2.266
-750.033,666.363,23.583,-1.673,-0.853,-2.380
-755.030,622.378,31.444,-2.394,-1.336,-1.864
-748.728,579.803,39.113,-1.874,-1.296,-1.295
-735.033,590.661,48.784,1.598,-0.675,-1.642
-729.000,647.000,58.000,5.600,-0.420,-2.030
-732.905,704.419,58.601,6.046,-0.768,-1.667
-742.334,725.731,50.425,2.736,-1.243,-1.413
-752.329,687.887,36.679,-2.245,-1.726,-1.050
-753.380,631.471,35.074,-5.752,-1.700,-0.946
-750.363,609.001,42.081,-4.935,-1.095,-1.316
-741.301,613.964,56.171,-0.772,-0.933,-1.041
-733.898,622.767,72.867,2.780,-1.042,-0.146
-736.775,639.172,77.004,4.102,-0.549,0.163
-738.309,664.779,73.742,3.782,0.090,-0.377
-743.985,682.294,53.950,2.144,-0.045,-0.611
-748.735,689.123,28.168,-0.018,-0.674,-0.456
-743.436,693.124,19.234,-1.869,-0.994,-0.459
-733.920,701.054,26.781,-2.704,-0.964,-0.711
-726.130,691.552,42.131,-3.713,-1.092,-0.648
-722.000,662.000,48.000,-4.690,-1.400,-0.140
-718.869,640.588,40.916,-3.476,-1.374,0.441
-724.561,627.232,25.907,-1.384,-1.014,1.274
-735.293,638.125,13.696,0.056,-0.790,1.677
-741.238,666.220,20.272,-0.298,-1.053,1.931
-741.602,668.373,38.676,-2.929,-1.774,2.401
-742.522,643.059,43.509,-5.830,-2.423,2.511
-743.903,617.597,41.176,-7.160,-2.586,2.282
-741.065,609.848,49.224,-6.174,-2.399,1.906
-744.540,620.006,57.496,-3.836,-2.194,1.884
-747.888,646.226,63.296,-1.850,-2.158,1.745
-744.354,669.880,61.280,-1.364,-2.159,1.457
-742.143,680.171,51.372,-1.914,-2.021,1.326
-742.532,672.588,46.181,-2.727,-1.831,1.041
-748.019,637.658,47.595,-3.392,-1.660,1.077
-751.000,603.000,53.000,-2.520,-1.610,1.120
-746.047,594.166,56.558,-0.324,-1.402,0.881
-739.102,623.840,60.921,2.436,-0.878,0.594
-732.699,678.147,67.200,4.603,-0.745,0.307
-729.832,714.863,65.230,3.663,-0.954,0.314
-730.524,722.531,50.192,0.457,-1.120,0.159
-735.504,699.960,35.461,-2.268,-1.400,-0.304
-741.217,654.303,29.757,-3.526,-1.622,-0.415
-738.541,613.316,29.652,-2.494,-1.745,-0.351
-731.308,597.368,38.359,0.702,-1.674,-0.350
-726.018,621.916,48.326,4.720,-1.352,-0.435
-720.835,683.484,54.812,7.437,-1.234,-0.803
-723.998,736.943,60.172,6.087,-1.456,-0.862
-735.051,744.430,62.203,1.572,-1.632,-0.674
-737.815,715.854,59.084,-2.932,-1.510,-0.887
-737.000,662.000,53.000,-5.950,-1.330,-1.050
-738.984,608.832,58.207,-5.748,-0.947,-0.996
-735.547,598.753,68.505,-1.284,-0.046,-0.806
-726.606,622.379,70.777,4.810,0.941,-0.454
-723.626,654.024,66.854,8.362,1.473,-0.316
-729.567,681.138,52.696,8.323,1.544,-0.387
-735.039,696.146,43.441,6.057,1.645,-0.530
-740.443,695.372,47.247,2.587,1.585,-0.713
-743.114,681.426,43.649,-0.769,1.026,-0.835
-740.397,657.429,37.908,-2.742,0.560,-0.807
-739.005,624.803,39.498,-2.851,0.312,-0.640
-735.075,617.501,36.395,-1.137,0.374,-0.741
-734.969,647.269,39.335,1.300,0.684,-1.024
-740.625,679.025,50.802,2.556,0.511,-1.012
-744.579,688.599,48.951,1.790,-0.006,-0.803
-747.000,671.000,45.000,-0.420,-0.350,-0.560
-742.014,647.127,45.321,-2.209,-0.368,-0.580
-739.021,643.986,43.449,-2.006,-0.303,-1.016
-742.454,654.612,46.586,-0.983,-0.583,-1.126
-742.493,659.230,45.005,-0.580,-0.951,-0.782
-746.389,657.600,41.070,-0.905,-1.239,-0.568
-752.619,646.253,40.980,-1.746,-1.632,-0.363
-747.300,632.580,41.093,-2.240,-1.902,-0.124
-740.287,642.293,42.113,-1.562,-2.019,0.060
-736.936,667.465,38.521,-0.538,-2.240,0.089
-734.419,685.679,41.128,-1.242,-2.552,0.067
-740.025,680.026,50.753,-3.784,-2.793,0.279
-740.424,656.818,52.952,-6.086,-2.912,0.167
-734.572,639.896,51.739,-6.857,-2.939,-0.006
-734.082,635.695,50.717,-6.188,-2.950,0.167
-734.000,657.000,49.000,-4.620,-3.080,0.350
-737.138,685.036,54.450,-3.984,-3.036,0.998
-742.133,684.732,62.712,-6.183,-2.993,1.470
-743.699,673.369,59.420,-9.820,-3.365,0.987
-743.940,666.095,53.020,-12.885,-3.555,0.496
-743.444,660.149,50.079,-15.284,-3.792,0.405
-739.833,660.202,50.848,-17.322,-4.397,0.325
-735.847,653.831,59.939,-18.996,-4.453,0.285
-735.122,627.614,72.256,-19.195,-3.834,0.472
-731.262,595.815,75.450,-16.747,-3.203,0.588
-726.959,587.761,67.301,-11.373,-2.671,0.340
-729.144,610.915,69.582,-4.960,-2.106,0.076
-739.496,639.735,80.163,-1.147,-1.805,0.126
-750.509,647.568,77.676,-0.259,-1.850,0.224
-751.617,637.279,69.139,-0.502,-1.884,0.207
-748.000,634.000,72.000,-1.190,-1.750,0.140
-743.858,645.362,81.317,-1.213,-1.618,-0.212
-736.650,665.745,80.199,-0.439,-1.601,-0.567
-729.593,686.658,72.488,0.114,-1.694,-0.756
-733.910,689.100,65.438,-0.062,-1.995,-0.885
-744.417,671.549,62.647,-0.923,-2.075,-0.803
-746.712,644.095,64.749,-1.409,-1.825,-0.875
-743.732,618.729,70.643,-0.335,-1.511,-0.987
-739.408,619.670,80.306,2.662,-1.080,-1.230
-734.021,643.154,87.105,5.973,-0.809,-1.494
-730.877,665.921,89.304,7.376,-0.630,-1.226
-732.127,681.481,87.580,6.467,-0.481,-1.059
-734.961,687.427,84.198,4.046,-0.319,-1.035
-734.293,687.981,77.819,1.761,0.033,-1.075
-731.713,684.967,73.775,0.130,0.033,-0.912
-731.000,673.000,72.000,-0.770,-0.280,-0.210
-728.647,663.408,66.720,-0.308,-0.246,0.360
-724.589,664.092,61.263,0.949,-0.061,0.627
-724.635,667.225,47.188,1.889,-0.238,0.490
-730.832,674.358,34.842,1.497,-0.647,0.208
-738.183,679.605,35.667,0.092,-1.081,-0.008
-738.259,672.658,47.770,-1.787,-1.470,-0.057
-733.652,664.549,65.118,-3.284,-1.531,-0.087
-729.309,656.128,75.295,-3.324,-1.287,-0.408
-727.967,636.128,87.563,-2.819,-0.832,-0.277
-735.430,617.643,100.022,-1.750,-0.233,-0.156
-741.892,611.355,101.008,0.281,0.375,-0.250
-741.016,617.767,89.178,2.378,0.950,-0.208
-741.774,637.898,73.890,3.443,1.228,-0.422
-746.841,659.111,64.794,2.818,1.072,-0.390
-750.000,679.000,58.000,0.980,0.630,-0.210
-748.498,682.499,59.258,-1.872,0.143,0.012
-743.922,658.016,61.757,-4.985,-0.344,0.340
-738.048,645.677,58.669,-6.351,-0.738,0.171
-736.709,658.268,57.804,-5.502,-0.972,-0.118
-737.048,672.422,56.099,-4.197,-1.508,0.062
-741.784,669.696,54.966,-4.103,-2.049,0.628
-750.488,639.257,54.986,-4.952,-2.252,0.904
-751.297,614.704,56.618,-4.538,-2.379,0.523
-745.591,613.963,64.086,-2.218,-2.233,0.370
-739.206,621.098,70.550,0.219,-2.003,0.609
-737.152,644.782,74.887,1.884,-1.918,0.555
-736.259,670.344,82.866,1.946,-1.867,0.499
-736.427,670.735,85.681,0.451,-1.787,0.551
-737.959,662.051,79.900,-0.913,-1.664,0.198
-735.000,660.000,72.000,-1.050,-1.610,-0.350
-735.341,660.241,63.611,-0.256,-1.603,-0.621
-740.486,653.410,66.030,0.195,-1.708,-0.520
-743.778,631.552,74.283,0.224,-1.769,-0.165
-738.736,617.612,74.408,0.743,-1.462,-0.123
-728.596,634.563,78.983,2.133,-0.919,-0.485
-730.709,662.811,87.265,3.089,-0.821,-0.411
-738.313,677.512,84.302,2.258,-1.376,0.111
-737.280,678.165,71.122,0.238,-1.682,0.537
-735.013,678.545,60.447,-1.739,-1.560,0.665
-734.611,688.567,64.969,-3.087,-1.563,0.394
-732.369,699.805,78.363,-3.999,-1.695,0.232
-732.318,687.806,86.866,-3.987,-1.750,0.527
-734.770,641.388,87.485,-3.376,-1.489,0.812
-737.375,598.998,83.150,-2.345,-0.965,0.458
-739.000,601.000,77.000,0.280,-0.490,-0.280
-741.337,630.854,72.355,3.107,-0.277,-0.452
-745.503,663.713,71.229,3.366,-0.487,-0.159
-744.712,689.516,70.171,0.758,-0.989,0.068
-740.414,698.156,70.834,-2.905,-1.348,-0.078
-736.807,689.783,74.504,-6.180,-1.554,-0.647
-737.396,664.835,77.356,-7.781,-1.794,-0.936
-736.719,632.923,73.282,-6.672,-1.730,-1.070
-733.034,621.466,62.487,-2.943,-1.359,-1.442
-736.027,643.354,65.258,1.371,-1.070,-1.710
-737.641,683.216,76.032,3.346,-1.173,-1.832
-735.819,710.802,79.145,2.343,-1.612,-1.716
-736.272,707.605,77.239,-0.916,-1.988,-1.563
-737.176,683.784,70.024,-4.379,-2.474,-1.511
-736.784,659.881,70.439,-6.435,-2.825,-1.295
-735.000,647.000,68.000,-6.510,-2.870,-1.190
-736.473,645.904,65.898,-5.082,-2.992,-1.032
-739.568,643.650,74.697,-4.396,-3.068,-0.689
-737.901,640.015,76.772,-3.669,-3.055,-0.609
-728.368,646.919,83.605,-2.467,-2.699,-0.666
-725.610,655.511,84.227,-1.639,-2.414,-0.879
-734.563,658.449,76.660,-0.615,-2.779,-1.049
-745.804,658.848,71.412,-0.299,-3.252,-0.822
-751.884,651.797,63.306,-0.975,-3.616,-0.825
-751.351,642.941,64.181,-2.096,-3.826,-0.935
-747.795,641.947,67.889,-3.282,-3.958,-0.758
-740.757,650.531,79.367,-4.428,-4.282,-0.658
-737.261,661.564,91.490,-5.712,-4.590,-0.589
-729.761,649.326,100.361,-7.084,-4.434,-0.431
-732.166,620.411,110.943,-8.010,-3.716,-0.273
-734.000,595.000,109.000,-6.370,-2.800,-0.560
-734.471,595.856,104.076,-2.233,-2.046,-1.073
-743.055,620.634,93.942,1.875,-1.624,-1.241
-742.023,642.310,89.865,3.824,-1.390,-1.239
-748.710,654.184,92.801,2.559,-1.311,-0.908
-741.647,655.637,88.387,0.537,-1.342,-0.805
-739.586,676.547,91.228,-0.514,-1.447,-0.994
-733.042,680.004,94.079,-2.199,-1.859,-0.741
-732.050,663.285,95.061,-4.413,-2.231,-0.435
-736.133,641.186,88.708,-5.182,-2.113,-0.415
-726.400,635.863,80.316,-3.229,-1.700,-0.929
-739.283,657.822,85.001,-0.315,-1.345,-1.139
-733.066,649.667,92.834,1.076,-1.230,-0.726
-744.414,670.393,102.900,1.745,-0.997,-0.741
-730.105,662.722,107.433,2.094,-0.305,-0.666
-737.000,652.000,112.000,1.470,0.140,-0.560
-745.466,639.363,108.734,0.471,0.080,-0.637
-731.792,615.085,97.771,0.065,0.109,-0.560
-757.154,634.753,85.717,0.563,0.170,-0.566
-725.782,618.931,70.062,1.212,0.046,-0.304
-764.181,670.344,76.016,0.880,-0.278,0.046
-730.362,653.914,80.734,-0.779,-0.519,0.236
-748.399,676.798,96.805,-2.087,-0.480,0.119
-744.484,669.105,104.075,-2.385,-0.295,-0.128
-695.533,612.748,94.283,-1.751,-0.192,-0.377
-837.823,725.929,103.020,-0.104,-0.295,-0.811
-341.246,294.631,40.281,0.284,-0.139,-0.377
