acc_x[mg],acc_y[mg],acc_z[mg],gyro_x[dps],gyro_y[dps],gyro_z[dps]
-86.376,836.92,524.6,-0.91,2.66,2.87
-93.208,840.824,525.576,-0.98,2.59,3.29
-92.72,841.312,521.672,-0.91,2.59,3.99
-94.184,838.384,525.088,-0.77,2.52,4.55
-96.136,839.848,527.04,-0.7,2.45,5.53
-93.696,841.312,529.48,-0.56,2.31,6.37
-89.304,842.288,530.456,-0.49,2.03,7.0
-89.304,838.872,529.968,-0.42,1.75,7.56
-85.888,835.456,525.088,-0.49,1.4,8.05
-87.84,827.648,522.648,-0.7,0.98,8.12
-80.52,812.032,523.136,-1.12,0.56,7.56
-75.152,804.224,527.04,-1.82,0.21,6.93
-70.272,800.32,522.648,-2.52,-0.14,7.42
-72.712,800.808,521.184,-3.36,-0.49,8.54
-72.712,803.736,516.792,-3.85,-0.84,9.45
-71.248,805.2,517.28,-4.2,-1.26,9.87
-71.248,821.304,520.208,-4.27,-1.54,10.57
-78.08,844.728,528.504,-3.92,-1.61,12.11
-80.52,872.056,533.872,-3.29,-1.68,13.86
-93.696,887.184,546.56,-2.24,-1.61,15.33
-107.36,920.368,559.248,-1.05,-1.26,16.52
-121.512,950.136,571.936,0.42,-0.77,17.01
-144.448,973.072,569.984,2.03,0.0,15.33
-162.992,1004.304,579.256,3.57,1.12,10.36
-203.984,1009.672,581.696,4.62,2.66,1.82
-200.568,1011.136,577.792,4.97,4.62,-10.99
-180.072,1026.264,606.096,4.76,6.58,-25.97
-157.624,1025.288,622.688,4.13,8.47,-38.29
-106.872,1009.184,633.912,3.57,10.08,-45.15
-89.792,1000.4,623.176,3.22,11.06,-45.01
-90.28,967.216,576.816,3.15,11.76,-40.04
-86.376,923.784,539.24,3.15,12.18,-34.09
-89.304,892.552,520.696,2.45,12.18,-29.19
-169.824,886.208,547.048,0.56,11.69,-26.74
-145.424,848.632,527.528,-2.66,11.06,-27.58
-132.736,810.08,593.896,-7.77,10.85,-24.36
-123.464,751.032,560.224,-14.21,10.99,-14.98
-124.928,738.832,553.392,-21.49,10.99,-6.44
-131.272,732.976,545.096,-28.35,10.92,0.49
-134.2,729.072,551.44,-34.3,10.85,5.74
-140.544,738.832,540.704,-39.06,10.64,8.33
-148.84,744.2,527.528,-42.56,10.29,8.05
-148.84,751.52,527.528,-44.73,9.94,5.11
-143.96,748.592,529.48,-45.5,9.38,0.91
-141.032,760.304,534.36,-45.08,8.82,-3.01
-139.568,751.52,534.848,-43.61,8.4,-5.53
-130.784,741.76,532.896,-41.23,7.98,-6.93
-127.368,749.568,530.944,-38.15,7.63,-7.14
-127.856,756.888,532.408,-34.23,7.28,-6.23
-125.904,767.136,536.8,-29.82,7.0,-5.67
-120.536,777.872,542.168,-24.78,6.58,-6.65
-114.68,787.632,543.632,-19.53,6.09,-8.82
-109.8,794.464,541.68,-14.0,5.46,-10.64
-96.136,788.608,542.656,-8.47,4.83,-11.41
-85.888,782.264,539.24,-3.01,4.06,-11.2
-83.936,784.216,532.896,2.24,3.36,-9.66
-89.792,784.704,528.504,7.28,2.8,-7.49
-89.792,775.92,522.648,11.76,2.17,-6.65
-87.352,777.872,517.28,15.75,1.61,-7.28
-80.52,776.896,515.328,19.04,0.98,-8.19
-77.592,772.016,513.376,21.7,0.42,-8.33
-77.104,769.088,512.4,23.66,0.0,-7.49
-80.52,758.84,504.104,24.99,-0.42,-5.81
-82.472,758.352,506.056,25.62,-0.7,-3.92
-85.4,763.232,508.008,25.62,-0.91,-1.96
-88.816,771.528,513.864,25.13,-0.98,-0.07
-94.184,786.656,527.528,24.36,-0.98,2.17
-100.528,794.464,540.216,23.31,-0.91,4.55
-103.944,804.712,549.976,21.98,-0.77,6.44
-114.192,812.032,562.176,20.51,-0.63,7.49
-124.44,818.864,567.056,18.83,-0.35,7.91
-133.224,831.064,576.328,16.94,0.0,8.33
-141.52,844.24,582.672,15.05,0.56,8.82
-147.376,847.656,581.208,13.3,1.12,9.38
-154.208,854.976,583.648,11.55,1.75,9.73
-159.088,857.904,588.528,9.73,2.38,9.8
-161.528,854.0,589.504,8.05,3.01,9.31
-163.968,850.584,589.504,6.37,3.57,9.03
-160.552,846.192,583.16,4.83,4.13,9.31
-162.016,836.432,580.72,3.29,4.62,10.36
-163.968,829.112,574.376,1.82,5.11,11.9
-168.848,825.696,566.568,0.42,5.6,13.09
-176.656,827.648,557.296,-0.91,6.02,13.51
-182.512,822.28,558.76,-1.96,6.3,12.88
-183.488,818.864,561.2,-2.87,6.65,11.48
-183.488,813.496,562.176,-3.57,6.79,10.08
-178.608,807.152,562.664,-4.06,7.0,8.96
-172.752,800.808,562.176,-4.41,7.07,8.54
-170.312,797.392,557.296,-4.55,7.07,9.17
-165.92,797.88,554.368,-4.48,7.0,10.57
-161.528,794.464,554.856,-4.34,6.86,11.76
-159.088,799.344,557.296,-3.92,6.58,12.67
-161.528,806.176,565.592,-3.36,6.3,13.3
-164.456,815.936,571.936,-2.66,5.88,13.3
-170.312,828.624,575.84,-1.82,5.46,12.18
-170.312,830.576,582.184,-0.98,4.97,9.94
-170.8,836.92,586.576,-0.21,4.55,7.84
-166.408,839.36,589.992,0.56,4.13,7.56
-165.92,839.36,590.968,1.33,3.85,9.17
-167.384,851.56,591.944,2.03,3.57,11.76
-171.776,863.272,589.016,2.66,3.29,13.58
-176.656,865.224,585.112,3.22,3.01,13.44
-183.0,863.272,578.28,3.5,2.8,11.76
-178.608,854.488,569.984,3.43,2.52,9.52
-170.312,836.92,562.664,2.94,2.31,7.35
-157.136,821.792,558.272,2.17,2.1,5.88
-145.424,802.272,555.832,0.98,1.82,5.46
-135.664,792.512,554.856,-0.35,1.47,6.3
-130.784,785.68,556.32,-1.89,1.12,8.26
-130.296,783.728,552.416,-3.57,0.7,10.64
-130.296,783.24,549.488,-5.25,0.35,12.32
-139.08,793.488,551.44,-6.93,-0.07,12.88
-141.52,801.784,556.32,-8.4,-0.35,12.53
-142.984,813.496,558.76,-9.73,-0.56,11.55
-148.352,820.328,562.664,-10.85,-0.77,10.29
-145.912,823.256,565.592,-11.55,-0.84,9.59
-146.4,831.552,565.104,-12.25,-0.91,9.38
-149.816,839.848,566.08,-12.53,-0.84,9.66
-149.328,847.168,564.616,-12.53,-0.7,9.45
-156.648,856.44,567.056,-12.39,-0.56,8.33
-160.064,858.392,558.76,-11.97,-0.42,6.3
-157.624,856.928,553.88,-11.48,-0.21,3.22
-152.256,862.784,551.928,-10.92,0.0,-0.28
-142.008,856.44,544.608,-10.22,0.21,-3.85
-134.688,854.488,541.68,-9.59,0.28,-7.0
-121.512,849.608,536.8,-8.89,0.35,-9.17
-109.312,844.728,532.896,-8.12,0.28,-10.01
-96.136,841.312,532.408,-7.42,0.14,-9.45
-84.912,843.264,535.824,-6.51,-0.21,-8.05
-77.592,846.192,539.728,-5.6,-0.77,-6.79
-76.128,843.264,537.776,-4.62,-1.61,-6.58
-67.832,834.968,531.432,-3.78,-2.52,-7.77
-60.512,825.208,522.16,-3.08,-3.71,-9.24
-43.432,824.72,520.208,-2.45,-5.18,-9.66
-25.376,815.448,518.256,-1.89,-7.0,-8.47
-7.808,820.328,513.864,-1.4,-9.17,-5.46
-1.952,824.232,503.128,-0.77,-11.76,-0.7
-7.808,832.04,491.904,-0.14,-14.56,4.48
-23.912,829.6,474.824,0.42,-17.5,8.68
-35.136,828.624,462.136,0.77,-20.51,10.78
-37.576,835.456,453.352,0.91,-23.59,10.15
-44.408,843.264,447.984,1.12,-26.88,7.7
-42.944,839.36,442.128,1.4,-30.17,4.69
-39.528,843.752,435.784,1.75,-33.46,2.17
-23.424,845.704,435.784,2.24,-36.68,1.05
-8.296,840.824,443.104,3.08,-39.97,1.75
10.248,847.168,454.328,4.2,-43.26,4.34
31.232,855.464,463.112,5.67,-46.55,7.91
35.624,861.32,479.704,7.56,-49.98,12.46
49.288,889.136,503.616,10.01,-53.2,17.71
48.312,902.8,518.744,13.02,-56.28,22.12
47.824,920.856,521.184,16.59,-59.15,24.5
39.528,931.104,525.088,20.51,-61.6,24.85
9.76,962.824,528.992,24.71,-63.49,23.38
-15.616,943.304,506.056,29.12,-64.54,19.11
-1.464,926.224,492.88,33.11,-64.96,10.78
2.928,901.336,488.0,36.68,-65.03,0.21
4.392,880.352,475.312,39.69,-64.33,-8.89
32.208,874.496,469.944,42.42,-63.07,-14.49
47.824,865.224,462.624,44.8,-61.25,-15.54
59.536,855.952,453.84,46.76,-59.08,-12.32
78.568,868.152,454.816,48.23,-56.77,-6.51
85.888,874.984,453.84,49.56,-54.46,-1.05
100.528,886.696,460.672,50.47,-52.36,2.03
105.408,879.864,457.744,51.1,-50.4,1.68
112.24,878.888,452.864,51.31,-48.58,-1.4
122.976,886.696,452.376,51.24,-46.83,-5.39
127.856,890.112,445.544,51.24,-45.08,-8.82
136.152,906.216,453.352,51.1,-43.12,-10.22
124.928,915.0,464.576,51.1,-41.16,-10.01
118.584,920.856,442.128,50.96,-38.92,-9.66
52.216,1019.92,445.544,50.19,-36.89,-11.69
-131.76,930.616,508.496,47.32,-35.63,-26.81
14.64,903.288,551.44,41.44,-35.21,-46.62
42.944,955.016,534.36,34.16,-36.33,-48.86
119.072,873.52,483.608,25.69,-38.08,-34.37
95.16,838.384,386.984,17.85,-40.39,-17.43
61.0,905.24,299.144,13.65,-42.35,-9.94
43.432,918.904,321.592,12.81,-43.33,-8.54
48.8,932.08,325.984,14.0,-43.82,-10.92
58.56,938.912,320.616,16.1,-43.89,-14.28
70.272,929.152,316.712,17.99,-43.54,-16.8
86.864,916.952,296.216,18.9,-42.84,-18.27
53.68,878.4,304.512,18.41,-41.79,-16.87
141.52,974.048,367.464,17.01,-40.39,-10.5
157.624,877.912,293.776,16.1,-39.83,-2.8
139.568,900.848,330.864,14.77,-39.55,4.9
122.0,931.592,362.096,13.72,-39.27,12.46
116.144,935.008,333.792,13.02,-39.27,17.78
100.528,943.304,324.032,12.39,-39.97,17.99
87.352,938.424,332.328,11.62,-41.09,13.44
100.528,942.816,338.672,10.78,-42.35,6.86
117.608,951.112,345.016,10.29,-43.33,0.77
120.536,954.528,347.456,10.01,-43.75,-2.38
134.688,961.36,350.384,9.94,-43.33,-1.82
124.44,960.872,361.12,9.94,-42.49,1.54
118.096,961.848,408.944,9.52,-41.02,6.16
106.872,958.432,429.928,8.82,-38.99,9.03
79.544,958.432,425.536,7.84,-36.54,8.54
55.632,948.184,404.552,6.37,-33.95,4.9
37.088,939.4,398.208,4.41,-31.43,-1.05
14.152,935.496,397.232,2.24,-29.12,-7.7
6.344,937.448,396.256,0.21,-26.88,-13.51
12.688,934.52,388.448,-1.47,-24.64,-17.85
14.152,928.664,385.032,-2.87,-22.47,-20.23
18.544,928.664,392.352,-3.71,-20.09,-20.37
28.304,927.2,396.256,-4.06,-17.57,-17.78
31.232,930.616,405.04,-3.99,-14.91,-13.58
27.328,938.912,408.456,-3.5,-12.25,-8.96
23.424,947.208,411.872,-2.66,-9.8,-5.18
25.864,958.432,409.432,-1.68,-7.77,-3.29
35.624,963.312,410.408,-0.63,-6.09,-3.43
44.896,957.456,413.824,0.14,-4.76,-5.04
61.0,952.088,427.488,0.42,-3.57,-6.72
77.592,936.96,429.928,0.14,-2.45,-7.14
89.792,925.248,423.584,-0.42,-1.33,-6.72
92.72,914.512,419.68,-1.12,-0.14,-6.3
95.648,913.048,416.752,-1.75,0.84,-6.51
93.696,915.488,411.384,-2.17,1.54,-7.42
93.208,911.584,404.064,-2.31,1.89,-8.19
88.816,910.12,400.648,-2.24,1.96,-7.98
84.912,915.0,396.256,-2.03,1.82,-6.23
87.84,920.368,387.96,-1.54,1.68,-3.36
86.376,920.856,386.984,-0.98,1.47,0.0
82.472,925.248,387.96,-0.42,1.26,3.78
78.08,935.984,387.96,0.07,1.05,7.35
75.64,938.424,385.52,0.56,0.84,10.43
70.76,942.328,387.472,0.77,0.56,12.67
68.32,935.496,380.152,0.56,0.49,14.21
75.152,928.176,365.512,-0.14,0.56,14.49
78.568,924.272,363.56,-1.4,0.7,13.23
85.888,925.736,363.072,-2.94,0.84,10.64
96.136,928.176,363.072,-4.83,0.91,7.56
101.504,933.544,358.192,-6.65,0.84,4.41
105.408,938.912,348.432,-8.4,0.7,1.82
103.456,945.744,333.792,-10.01,0.42,-0.07
96.624,958.92,324.032,-11.41,0.14,-1.54
94.184,959.408,314.272,-12.67,-0.35,-3.99
105.896,959.896,318.664,-13.93,-1.05,-7.98
109.312,967.704,319.152,-15.05,-2.38,-13.16
123.464,956.48,318.664,-16.1,-4.06,-19.11
137.616,945.744,309.88,-17.22,-6.3,-25.13
142.008,932.08,294.752,-18.34,-8.82,-30.31
153.232,930.616,277.672,-19.32,-11.55,-34.44
162.016,927.2,267.912,-20.23,-14.56,-37.38
174.704,927.688,275.72,-21.07,-17.85,-39.13
176.656,931.592,275.72,-21.7,-21.42,-39.97
166.896,936.96,277.184,-22.26,-25.13,-40.18
171.776,953.552,284.992,-22.61,-29.05,-40.53
162.016,972.096,298.656,-22.54,-33.11,-41.37
145.912,990.64,314.272,-21.98,-37.24,-42.14
127.856,1016.992,328.912,-20.86,-41.09,-42.91
104.432,1026.264,344.04,-19.32,-44.87,-44.17
102.48,1019.432,355.752,-17.43,-48.44,-46.48
99.064,1004.304,371.856,-15.68,-52.08,-49.35
82.96,989.176,374.784,-14.35,-55.72,-51.66
52.216,959.408,365.512,-13.37,-59.08,-52.71
32.208,927.688,334.768,-13.23,-61.95,-52.78
-6.344,928.176,325.496,-13.58,-64.47,-52.01
-59.048,930.128,334.768,-14.14,-66.29,-50.75
-97.6,917.44,347.456,-14.77,-67.62,-50.75
-106.872,924.272,324.032,-15.82,-68.39,-53.97
-161.04,933.056,313.784,-17.08,-68.81,-59.85
-205.936,921.344,360.632,-18.69,-68.18,-65.24
-213.256,949.16,378.2,-20.3,-66.5,-69.3
-294.752,932.08,387.472,-21.49,-64.12,-72.8
-349.896,895.968,409.92,-22.33,-60.34,-77.14
-369.416,789.096,426.024,-23.24,-55.79,-82.88
-399.672,664.168,436.76,-25.13,-50.54,-88.76
-418.216,608.536,401.136,-28.28,-44.8,-94.08
-449.936,590.48,363.56,-31.92,-38.78,-98.91
-468.48,593.408,318.664,-35.35,-32.48,-103.11
-458.72,598.776,300.12,-38.43,-26.74,-107.52
-476.288,655.384,289.872,-40.95,-22.26,-112.42
-505.568,740.296,285.968,-42.63,-19.11,-116.06
-545.096,768.112,311.832,-43.33,-16.73,-115.92
-523.136,799.832,330.376,-43.82,-14.42,-112.07
-455.792,849.12,351.36,-44.03,-12.88,-107.94
-395.28,865.712,400.16,-44.45,-12.46,-104.93
-311.832,851.56,500.2,-45.22,-13.16,-102.97
-281.088,875.96,605.12,-46.69,-15.12,-102.2
-339.16,932.568,618.296,-48.02,-17.92,-103.6
-415.776,1037.488,588.528,-48.09,-20.79,-106.96
-491.904,1078.48,552.904,-46.34,-23.1,-109.97
-503.616,1111.664,568.032,-43.4,-24.57,-111.3
-489.952,1169.248,585.6,-39.55,-25.55,-110.46
-539.728,1210.728,605.608,-34.72,-25.97,-105.84
-568.52,1181.936,616.832,-29.54,-25.48,-98.49
-537.776,1135.088,584.624,-24.71,-24.71,-92.12
-544.12,1061.4,524.112,-20.86,-24.43,-88.62
-563.64,996.496,459.208,-18.06,-24.43,-87.85
-573.4,970.144,412.36,-15.89,-24.78,-89.46
-591.944,938.912,357.704,-13.93,-25.27,-91.56
-619.76,930.616,341.6,-11.9,-25.41,-91.84
-648.064,930.616,292.312,-10.01,-25.34,-89.88
-678.32,863.272,231.8,-8.26,-25.41,-87.43
-676.368,798.856,177.632,-7.28,-26.46,-87.57
-694.424,786.656,129.808,-6.65,-28.91,-89.39
-667.584,780.312,123.952,-5.88,-32.27,-91.07
-538.752,779.824,142.984,-4.69,-36.47,-93.59
-465.552,809.104,82.472,-2.94,-42.0,-95.41
-402.6,765.672,91.744,-0.28,-48.65,-90.16
-454.816,787.632,91.744,2.8,-56.35,-76.02
-457.256,772.504,66.368,6.72,-64.47,-56.84
-449.936,734.44,25.864,10.85,-73.64,-37.24
-529.48,720.776,-51.728,15.05,-83.79,-18.34
-504.592,718.824,-62.952,19.39,-94.92,-2.24
-434.808,735.416,-73.2,24.22,-107.94,10.43
-365.512,766.16,-139.568,29.68,-123.41,22.82
-274.256,806.176,-171.776,35.91,-141.05,36.75
-103.944,857.904,-174.704,42.84,-160.86,54.39
54.168,891.576,-99.064,49.91,-183.05,76.86
244.488,894.992,-53.68,55.65,-206.85,101.85
299.632,907.192,-51.728,59.57,-231.49,125.86
196.176,1048.712,31.232,63.21,-255.15,140.7
14.152,1181.936,124.928,67.97,-276.85,136.15
-96.136,1187.304,164.456,72.87,-296.38,119.56
-225.456,1190.72,135.664,76.86,-314.23,98.7
-219.6,1309.304,225.944,80.85,-330.33,75.18
-160.064,1408.368,416.752,85.82,-345.52,54.32
18.056,1447.896,568.032,90.37,-360.22,42.35
182.024,1381.528,669.048,92.96,-375.06,36.05
366.976,1229.272,732.976,91.77,-389.76,30.17
478.728,1049.688,713.944,85.89,-403.55,24.5
519.232,886.696,601.704,75.53,-414.96,21.28
528.016,786.656,493.368,61.39,-423.5,17.99
599.752,727.12,400.16,45.08,-429.38,10.29
670.512,708.576,308.904,28.35,-433.23,-5.46
737.856,713.456,267.912,12.39,-435.19,-25.27
768.6,680.272,186.904,-2.17,-435.26,-41.09
743.224,685.64,76.616,-15.33,-433.65,-49.63
721.752,690.032,-38.064,-27.51,-430.57,-52.36
777.872,780.312,-113.704,-38.99,-427.07,-53.2
857.416,752.984,-200.568,-49.35,-424.41,-62.79
813.496,795.928,-228.872,-58.59,-422.17,-79.03
772.504,830.088,-315.736,-66.29,-418.18,-84.28
833.504,868.152,-312.32,-74.13,-412.37,-77.21
969.168,950.136,-415.288,-82.95,-406.63,-70.14
1057.008,969.656,-390.888,-91.91,-401.94,-64.26
1114.592,954.04,-346.48,-101.5,-397.74,-53.2
1046.76,925.736,-322.08,-111.72,-393.61,-37.17
892.552,854.976,-345.504,-122.22,-388.5,-22.05
691.496,804.224,-324.032,-133.0,-381.43,-12.95
538.752,815.448,-313.296,-143.01,-372.47,-10.01
437.248,825.208,-302.56,-151.2,-362.11,-14.49
399.672,843.752,-318.664,-157.15,-351.26,-26.11
447.496,835.456,-356.24,-160.72,-340.83,-43.26
549.488,798.368,-384.056,-162.19,-331.45,-61.88
721.752,715.408,-427.0,-162.61,-323.33,-72.94
821.792,596.336,-452.864,-163.24,-316.47,-71.68
825.696,518.256,-448.472,-165.2,-309.75,-60.76
828.136,447.008,-494.832,-168.35,-302.54,-45.57
819.352,349.896,-528.016,-172.62,-294.77,-28.63
859.856,338.184,-514.84,-177.87,-286.16,-8.19
890.112,318.664,-542.656,-182.98,-277.48,11.27
806.176,384.056,-629.032,-187.53,-268.59,22.82
710.04,405.528,-782.264,-190.47,-259.0,20.09
675.392,438.712,-1023.336,-191.52,-249.2,0.14
690.032,482.144,-1346.392,-190.4,-240.1,-31.29
699.792,548.024,-1616.256,-186.55,-231.49,-62.16
739.32,739.32,-1919.304,-179.83,-222.74,-81.83
764.696,978.928,-2336.544,-169.68,-213.15,-85.96
716.384,1155.584,-2759.64,-156.38,-201.81,-71.54
598.776,1423.984,-3179.32,-140.7,-186.9,-38.08
402.6,1658.712,-3655.608,-122.78,-167.79,4.2
218.624,1934.432,-4163.616,-102.62,-144.55,40.04
79.544,2181.848,-4605.256,-79.73,-118.58,57.05
25.376,2512.224,-4827.784,-52.92,-91.56,50.4
11.224,3112.464,-4851.696,-19.53,-64.26,27.79
82.96,3744.912,-4763.368,23.17,-36.82,0.07
179.096,4550.6,-4495.944,76.09,-9.73,-27.93
128.832,5265.032,-4268.048,139.72,17.22,-51.66
-270.84,6042.904,-4222.176,212.73,46.69,-64.26
-1022.36,7033.056,-3927.912,295.12,83.02,-59.01
-1661.64,8638.088,-3632.672,390.74,128.87,-34.23
-1791.936,9729.744,-2867.0,504.49,181.44,3.29
-1087.752,10481.752,-2262.368,632.59,231.84,23.66
-349.896,11171.296,-1230.248,769.79,273.84,17.57
-377.712,12311.264,-122.0,915.32,309.4,28.35
-1281.488,13786.0,920.856,1072.19,340.83,114.03
-2365.336,14909.376,1391.288,1240.82,356.65,254.17
-4175.328,15095.792,1943.216,1410.57,346.71,366.59
-5560.76,15242.192,3814.208,1566.04,322.56,375.69
-4666.744,3540.44,1177.056,1169.14,223.79,-635.04
-6636.312,4621.848,1121.424,559.44,130.41,-1243.9
-4736.528,2054.48,2019.832,662.48,400.54,-117.88
-7273.152,6340.584,2045.208,764.12,742.35,442.61
-4893.664,8277.456,2878.224,914.13,882.91,317.94
-3746.376,7811.904,3917.664,984.62,919.24,-219.38
-3717.584,5417.288,4339.296,928.13,993.93,-781.76
-2219.424,4437.384,4026.0,745.15,1124.62,-1106.63
-684.664,4367.112,4083.096,485.17,1233.05,-1202.32
479.704,4360.28,4816.56,204.4,1279.18,-1164.87
868.64,4267.56,4961.496,-54.46,1264.48,-1067.92
1231.224,4106.52,4021.12,-272.44,1207.71,-950.25
2077.904,3848.856,3036.336,-449.05,1117.34,-850.15
3027.064,3694.648,2196.0,-590.17,997.01,-780.85
2899.696,3579.968,1548.912,-694.12,857.15,-688.73
2863.584,3170.048,785.68,-757.05,719.88,-554.75
3057.32,2555.656,-292.312,-787.5,591.01,-428.61
2400.472,2246.752,-740.784,-795.55,472.01,-325.64
1799.744,2313.608,-905.24,-784.98,369.25,-243.46
1341.024,2418.04,-856.928,-757.26,280.84,-188.86
1005.768,2564.928,-995.52,-717.5,203.21,-162.05
719.312,2450.736,-1297.592,-669.41,134.47,-147.56
468.48,2383.392,-1558.672,-618.03,75.46,-125.65
589.992,1887.584,-1948.584,-566.02,25.27,-90.23
746.152,1245.864,-2262.856,-518.98,-20.51,-51.45
683.2,862.296,-2445.856,-478.87,-63.28,-13.72
559.248,650.504,-2333.616,-443.31,-101.64,22.4
217.16,801.296,-2181.36,-410.13,-135.1,47.6
-260.104,1033.096,-2066.68,-375.55,-161.49,67.13
-547.536,791.536,-2076.44,-340.48,-179.34,90.58
-806.176,520.696,-2213.568,-309.26,-190.96,112.28
-1076.04,526.064,-2207.224,-282.31,-198.38,121.94
-1158.512,511.424,-2177.456,-255.92,-203.7,111.93
-1052.128,528.992,-1926.624,-228.62,-210.28,81.55
-1153.144,667.584,-1828.536,-198.8,-217.91,52.22
-1204.384,548.512,-1711.904,-166.25,-222.46,49.98
-1278.56,557.784,-1551.352,-134.54,-222.95,76.79
-1421.056,681.248,-1330.288,-103.6,-219.73,115.22
-1458.144,797.88,-1060.912,-73.22,-214.41,143.85
-1477.176,867.664,-982.344,-43.26,-209.37,154.07
-1459.12,849.12,-838.384,-14.07,-205.45,146.44
-1404.464,863.272,-670.024,14.07,-203.28,119.98
-1329.312,749.08,-576.816,41.65,-202.09,83.16
-1180.96,660.752,-388.936,67.62,-200.97,50.19
-1063.84,741.272,-242.048,92.33,-199.5,32.97
-887.672,872.544,38.552,116.62,-197.75,34.23
-753.96,884.256,305.488,139.79,-196.91,46.55
-739.808,848.632,513.864,160.02,-196.98,62.79
-862.784,812.52,627.08,176.68,-196.77,78.54
-884.744,922.32,828.136,190.33,-195.44,87.36
-874.008,999.912,980.392,202.72,-193.83,86.31
-810.568,1013.088,1016.504,213.78,-192.08,79.94
-751.52,979.904,1081.896,223.09,-190.33,72.1
-693.936,975.512,1159.0,230.44,-188.58,63.0
-755.424,1025.776,1211.704,236.53,-186.41,53.76
-874.008,1094.096,1260.992,241.99,-182.42,47.88
-929.64,951.112,1249.28,246.54,-176.47,44.52
-860.832,686.616,1185.352,248.08,-169.68,37.38
-816.424,724.192,1175.592,246.61,-163.03,22.82
-863.272,922.32,1196.576,245.49,-155.89,6.58
-863.272,1110.2,1261.48,246.75,-147.35,-4.55
-731.512,1259.04,1517.68,250.25,-139.58,-10.01
-694.424,1283.44,2103.768,248.99,-140.35,4.2
-327.936,636.352,2018.368,234.92,-160.44,52.92
-107.848,633.424,1281.976,214.83,-194.11,41.72
-288.408,675.392,1257.088,205.17,-217.0,-19.88
-298.656,645.624,1223.904,204.33,-222.81,-62.3
-308.904,661.24,1153.632,208.88,-220.01,-83.65
-314.272,614.88,1024.8,216.3,-213.5,-85.4
-305.976,676.368,880.84,222.25,-205.73,-69.37
-368.928,352.824,870.104,223.65,-199.57,-46.69
-305.0,502.152,904.752,217.98,-195.16,-16.31
-342.088,310.856,818.864,211.47,-193.76,12.46
-378.688,453.84,805.2,204.61,-193.41,33.46
-306.952,551.44,907.192,200.13,-192.5,46.13
-269.864,674.416,1003.816,197.12,-190.47,52.57
-231.8,714.92,1077.016,194.81,-187.88,54.53
-188.856,673.928,1053.104,192.64,-185.29,48.3
-205.936,774.456,1001.376,190.68,-182.77,35.0
-84.912,824.232,955.016,189.63,-179.97,21.7
49.776,769.088,956.968,188.09,-178.08,15.12
125.416,734.44,1031.144,184.8,-177.38,17.08
126.392,713.944,1097.512,179.76,-177.45,25.55
51.24,781.288,1101.416,173.46,-177.45,34.72
-16.104,833.504,1064.816,167.02,-176.75,37.45
-10.248,876.448,1051.64,160.79,-175.28,31.01
102.968,915.0,1073.112,154.28,-173.46,18.13
117.608,919.88,1066.768,146.58,-171.57,5.95
187.392,990.64,1029.192,136.99,-168.77,0.42
300.12,948.184,996.984,125.37,-165.34,4.06
493.368,849.12,823.256,111.37,-162.89,9.52
170.8,739.808,843.264,94.85,-160.79,15.4
275.72,1047.248,835.456,77.42,-156.38,21.21
397.232,886.696,676.856,61.39,-152.81,18.62
368.44,911.096,523.136,44.66,-149.59,7.7
319.64,849.608,467.016,28.49,-145.67,-5.88
299.632,835.456,528.016,13.86,-140.7,-15.96
286.456,791.536,603.656,1.61,-134.68,-21.28
323.056,921.832,584.624,-8.19,-128.03,-20.86
372.344,1026.752,565.592,-14.42,-121.38,-14.14
361.608,887.184,593.408,-18.27,-115.22,-4.34
348.92,761.28,643.184,-22.12,-109.83,4.48
358.68,766.648,667.584,-26.18,-105.35,10.5
416.264,826.184,645.136,-29.33,-101.71,14.84
435.784,909.144,656.848,-30.87,-98.98,18.55
425.048,987.712,669.048,-30.94,-96.81,20.93
451.888,1072.624,651.48,-29.4,-94.99,21.42
395.28,1186.816,638.792,-26.04,-93.45,22.4
325.008,1274.168,630.496,-20.58,-91.56,27.09
318.664,1195.112,618.296,-13.72,-89.32,33.11
320.616,1112.64,614.392,-7.35,-87.57,35.14
323.544,973.072,564.616,-2.24,-86.52,31.78
305.488,909.144,486.048,0.84,-85.75,23.45
296.216,892.064,430.416,2.45,-84.91,12.53
274.744,848.632,413.824,2.94,-83.79,3.15
230.336,800.32,404.552,2.03,-82.04,-2.87
198.616,754.936,360.144,0.0,-79.73,-7.0
191.784,675.88,315.736,-3.22,-77.14,-11.9
167.384,618.784,286.944,-7.77,-74.83,-18.97
117.608,594.872,268.4,-13.44,-72.66,-28.7
91.256,571.448,247.416,-19.81,-70.49,-40.32
84.912,551.928,234.24,-26.53,-68.39,-51.45
105.896,599.752,240.096,-33.39,-66.36,-58.24
119.072,690.032,275.232,-39.41,-64.61,-59.22
108.824,756.4,299.632,-44.03,-63.07,-56.98
91.256,805.2,296.216,-47.39,-61.67,-54.6
71.248,872.544,317.688,-49.63,-60.2,-52.85
60.512,912.072,369.904,-50.61,-58.45,-51.45
30.256,949.648,398.208,-50.82,-56.35,-50.54
-5.368,988.2,411.384,-49.7,-54.18,-50.75
-7.808,978.44,424.56,-47.88,-52.36,-53.34
8.784,942.816,439.2,-45.99,-51.52,-57.96
-81.008,932.568,399.184,-44.59,-51.59,-62.09
-33.184,1127.768,468.48,-42.91,-51.59,-66.71
-57.584,1088.24,540.216,-39.76,-52.08,-69.72
-115.168,987.224,514.84,-36.89,-52.43,-71.89
-155.672,989.176,475.8,-34.93,-52.36,-75.11
-205.936,1084.824,435.784,-32.76,-51.94,-79.03
-234.728,1083.36,444.08,-30.1,-51.1,-82.11
-227.408,1094.096,466.528,-27.93,-50.26,-84.07
-233.264,1130.696,449.936,-26.11,-49.91,-87.99
-267.912,1188.28,411.384,-24.15,-50.05,-95.2
-289.872,1216.096,396.256,-21.77,-50.33,-104.93
-260.104,1247.816,390.888,-19.18,-50.75,-115.78
-265.96,1267.336,377.224,-16.59,-51.52,-124.67
-254.736,1303.448,391.864,-14.07,-52.15,-127.96
-231.312,1337.608,386.984,-11.83,-53.2,-124.04
-224.48,1336.144,361.608,-10.01,-55.02,-114.73
-213.256,1338.584,341.6,-8.82,-57.82,-104.09
-213.256,1295.64,300.608,-8.4,-61.46,-94.43
-192.76,1254.648,258.64,-9.31,-65.45,-85.19
-179.096,1232.2,206.424,-11.55,-69.72,-76.86
-117.608,1188.768,147.376,-14.77,-74.48,-72.03
-52.704,1148.752,93.696,-18.48,-80.29,-71.89
0.488,1146.312,56.608,-22.47,-86.87,-72.17
39.528,1081.408,43.432,-26.39,-93.87,-67.2
-9.76,974.048,52.704,-31.01,-100.8,-55.58
77.592,1022.36,33.184,-35.84,-107.52,-44.73
117.12,1037.976,27.328,-39.27,-115.22,-37.94
142.496,1059.448,28.304,-41.02,-123.83,-30.03
160.552,1057.008,16.592,-41.09,-133.21,-18.76
161.528,1007.232,87.352,-40.04,-143.22,-3.71
152.744,960.384,80.032,-38.92,-153.37,14.56
167.384,892.552,30.256,-38.64,-163.59,35.14
189.344,878.4,20.984,-39.76,-174.44,55.79
214.232,904.264,37.088,-41.51,-185.71,75.46
234.24,837.896,70.272,-43.68,-196.98,93.45
183.0,804.224,-62.464,-46.76,-207.41,107.52
149.816,680.76,-173.728,-50.68,-217.56,112.28
191.296,774.456,-152.744,-55.02,-228.9,103.74
48.8,931.104,-86.864,-57.05,-241.99,85.47
77.592,1043.344,-6.344,-56.0,-255.5,63.49
56.608,1176.08,92.72,-52.29,-269.64,44.1
66.856,1245.864,157.624,-46.69,-283.71,30.24
118.096,1270.264,268.4,-40.6,-297.36,20.16
182.024,1270.752,345.504,-35.0,-311.15,11.34
260.104,1262.456,427.0,-30.31,-324.87,3.36
326.472,1233.664,469.456,-26.67,-338.45,-3.5
358.192,1131.672,521.184,-24.64,-351.26,-7.63
303.048,1046.272,540.216,-24.78,-362.39,-8.26
260.104,959.896,532.896,-27.37,-371.0,-6.93
183.976,880.84,536.8,-32.2,-377.02,-5.95
101.504,812.52,481.168,-38.99,-380.31,-8.19
57.096,764.696,434.32,-46.97,-380.94,-13.3
67.344,748.592,375.272,-55.3,-379.68,-21.28
89.304,705.16,310.368,-63.63,-377.23,-35.14
147.864,678.808,197.64,-71.61,-373.59,-52.36
203.984,642.208,96.136,-79.17,-369.18,-69.86
355.264,639.28,-12.688,-86.45,-364.35,-86.52
507.52,617.32,-61.976,-93.1,-360.43,-98.07
636.84,610.0,-83.936,-99.47,-357.84,-106.33
699.304,609.512,-72.224,-105.42,-356.3,-111.58
706.624,672.952,-40.992,-110.88,-355.04,-114.66
755.424,656.36,-73.2,-115.92,-353.57,-123.2
862.296,681.736,-116.144,-120.68,-352.31,-136.78
1031.632,652.456,-196.664,-124.95,-351.54,-146.3
1128.744,578.768,-186.416,-129.78,-351.47,-144.13
1167.296,511.424,-186.416,-135.94,-351.12,-126.77
1129.72,525.576,-197.152,-144.13,-349.93,-99.61
1114.104,608.048,-234.728,-153.65,-347.55,-70.98
1186.328,689.544,-293.776,-163.17,-345.52,-58.8
1440.576,630.984,-416.264,-172.06,-346.71,-76.93
1597.712,600.728,-566.568,-179.27,-352.17,-112.35
1792.912,543.632,-670.024,-183.82,-359.66,-137.13
2070.096,440.176,-699.304,-186.83,-367.99,-135.17
2321.416,339.648,-778.848,-190.33,-376.81,-105.84
2449.76,348.92,-937.936,-195.44,-384.93,-56.14
2443.416,431.88,-1099.464,-202.23,-390.53,2.03
2328.736,580.232,-1284.416,-209.86,-392.21,54.39
2074.0,830.576,-1559.16,-216.58,-389.2,87.99
1808.528,1085.8,-1880.752,-219.59,-381.29,94.85
1473.76,1305.4,-2301.896,-216.86,-368.34,82.39
1126.304,1560.624,-2745.488,-207.48,-349.16,70.91
928.664,1654.808,-3226.656,-192.08,-323.33,68.67
976.976,1895.88,-3511.648,-172.13,-293.72,69.16
939.4,2249.192,-3751.256,-146.44,-263.69,67.06
872.056,2582.008,-4083.584,-113.82,-233.17,56.91
600.24,2845.528,-4501.8,-74.48,-201.39,39.2
45.384,3163.704,-4975.648,-28.98,-164.85,25.13
-432.368,3599.976,-5293.824,23.03,-121.1,18.34
-970.144,4315.872,-5474.384,83.02,-71.4,20.86
-1646.512,5085.448,-5449.008,154.07,-15.54,42.14
-1891.976,6251.28,-5094.232,238.07,45.15,90.72
-1796.328,7832.888,-4621.848,341.04,102.9,150.64
-1528.904,9538.937,-3958.168,467.39,150.08,192.36
-1257.576,11105.904,-2987.048,618.17,184.38,182.56
-155.672,12342.496,-1632.36,787.08,208.25,116.83
-148.352,13530.288,-382.104,966.0,226.45,43.89
-849.12,15155.816,904.264,1150.59,251.86,41.65
-2277.496,15770.208,2091.568,1339.1,278.39,120.75
-4495.456,15480.336,3140.28,1518.09,295.05,227.99
-6707.072,15189.977,4251.944,1675.38,301.28,282.73
-2940.2,3981.104,4564.752,1399.44,261.52,14.21
-3421.368,-3242.76,-1491.816,584.08,352.59,-532.98
-3001.688,-790.56,680.76,665.98,591.85,-444.22
-5109.36,4579.88,2668.872,771.68,777.14,-530.25
-4724.328,7445.904,4414.936,920.01,947.1,-836.29
-1718.736,7877.784,5665.192,860.86,1122.66,-1179.85
-856.928,7652.816,6504.552,647.01,1284.57,-1392.09
822.28,5494.88,5943.352,360.08,1397.48,-1390.13
1522.072,4149.952,4646.248,61.67,1433.25,-1227.87
2544.432,4378.336,3085.624,-187.39,1401.68,-1015.0
3138.328,4599.4,2448.296,-372.75,1319.5,-872.06
2709.376,5093.744,2273.592,-511.84,1205.33,-830.06
2405.84,5345.064,1801.208,-619.15,1075.13,-845.25
2250.656,5858.44,926.224,-700.42,934.78,-861.42
2290.184,5814.52,11.224,-753.41,789.25,-842.66
2444.392,5522.696,-1038.464,-777.7,646.17,-774.62
2362.408,5267.472,-1589.904,-773.99,512.26,-670.53
2482.456,4795.576,-2302.872,-745.85,392.28,-558.39
2979.24,3154.92,-3013.4,-706.65,281.61,-466.55
3213.968,2026.176,-3195.912,-672.14,172.06,-416.78
2740.608,1830.488,-3044.632,-640.29,65.24,-388.01
2023.736,1937.848,-2985.584,-602.28,-26.74,-326.41
1590.88,1945.656,-2935.808,-557.83,-95.2,-215.53
1654.808,939.4,-3235.928,-514.99,-144.13,-90.23
1604.544,207.888,-3136.864,-484.82,-183.68,1.61
1135.088,145.912,-2838.696,-464.73,-217.63,53.41
692.472,346.48,-2648.376,-446.74,-243.67,85.75
80.032,782.752,-2637.64,-427.21,-261.59,108.36
-370.88,974.536,-2707.912,-403.97,-270.27,128.94
-387.472,540.216,-2731.336,-380.59,-273.49,141.12
-336.72,264.496,-2636.664,-361.13,-277.48,134.33
-391.864,309.88,-2427.312,-342.65,-283.29,118.58
-524.112,585.6,-2102.792,-321.16,-288.12,114.38
-712.968,975.024,-1875.384,-294.77,-289.45,132.02
-850.096,1276.12,-1611.376,-264.18,-286.37,165.55
-845.704,1519.632,-1273.68,-231.21,-281.4,194.04
-919.88,1563.552,-1133.136,-196.7,-277.48,203.0
-802.76,1411.296,-980.392,-163.1,-275.8,186.48
-831.064,1340.048,-958.432,-131.04,-277.62,150.36
-829.112,1287.832,-782.264,-99.68,-280.49,110.32
-831.064,1196.088,-649.04,-68.81,-283.01,77.77
-862.296,1142.408,-535.824,-39.55,-284.13,58.59
-869.616,1168.272,-420.168,-12.39,-283.36,54.18
-863.76,1169.248,-298.168,12.81,-281.26,60.62
-816.424,1101.904,-110.288,35.28,-278.81,68.04
-913.536,1175.592,5.368,55.23,-276.85,67.55
-897.432,1228.784,201.544,74.34,-274.75,52.5
-824.72,1282.464,445.544,93.52,-273.28,21.14
-794.952,1278.56,562.176,113.54,-271.95,-17.15
-708.088,1285.88,697.352,133.91,-269.29,-50.12
-601.216,1262.944,882.792,154.07,-265.37,-70.84
-525.088,1283.928,1050.176,173.18,-260.33,-76.93
-482.144,1303.448,1207.312,190.75,-254.24,-70.49
-496.296,1293.688,1333.704,205.94,-247.45,-57.05
-636.352,1183.4,1346.392,218.4,-239.75,-42.7
-641.72,1074.576,1367.376,227.15,-231.0,-34.51
-364.048,882.304,1513.776,232.68,-223.44,-40.39
-236.68,852.048,1552.328,235.41,-218.61,-59.99
-205.448,1010.16,1596.248,237.65,-214.2,-82.04
-205.448,1227.808,1741.184,241.85,-208.6,-95.2
-279.624,1229.272,1821.704,247.87,-201.46,-96.11
-332.816,1105.32,1806.088,253.05,-192.78,-87.71
-344.528,1009.184,1716.784,256.06,-183.54,-74.97
-294.264,805.2,1687.016,256.76,-174.79,-62.16
-287.432,763.232,1872.944,250.39,-167.16,-41.3
-161.04,814.472,1606.496,235.62,-161.21,-7.42
-209.84,746.152,1602.592,215.88,-157.5,9.03
-209.84,665.144,1516.704,194.81,-154.21,11.97
-246.928,683.2,1371.768,174.79,-151.2,-2.87
-313.784,718.824,1170.224,158.9,-147.63,-34.16
-411.872,681.736,1000.888,148.82,-142.38,-76.09
-417.24,578.768,855.952,143.5,-135.66,-112.91
-339.648,515.816,740.296,140.77,-128.45,-134.75
-281.576,462.624,638.792,139.23,-121.03,-136.64
-146.888,370.88,644.16,137.62,-114.1,-120.82
75.64,291.824,707.112,132.58,-112.07,-73.64
2.928,371.856,551.44,124.46,-117.32,-14.84
-201.544,482.144,562.176,119.7,-121.45,-7.07
-246.44,616.344,526.552,118.37,-122.29,-30.87
-232.776,583.648,553.88,119.07,-122.22,-62.86
-198.128,552.904,570.96,119.49,-121.45,-93.38
-152.744,589.992,585.112,119.42,-119.98,-114.59
-113.704,561.688,659.776,118.79,-118.02,-121.66
-31.72,567.056,711.016,116.69,-115.99,-114.94
44.408,524.112,707.6,112.98,-114.59,-98.84
58.072,523.624,729.072,107.38,-113.96,-77.07
15.616,570.96,771.04,100.66,-113.19,-52.43
-7.32,662.704,822.768,93.45,-112.14,-30.87
28.304,835.456,952.576,86.73,-111.16,-18.27
5.856,880.352,1023.336,81.06,-110.32,-16.73
-31.232,929.152,1017.968,75.6,-108.64,-24.57
-77.104,937.448,976.976,70.14,-105.56,-36.82
-100.528,911.584,930.128,64.4,-100.94,-49.0
-93.696,917.44,917.44,58.45,-94.92,-56.77
-71.736,954.04,924.76,52.85,-87.99,-56.84
-43.432,1007.72,924.272,48.02,-80.64,-50.19
-28.304,1028.216,968.68,44.03,-73.43,-40.04
-60.512,1099.464,1184.864,37.31,-69.23,-18.9
25.864,952.576,1181.936,23.94,-73.15,16.31
14.64,999.912,1060.912,8.54,-84.14,24.92
-112.24,1097.024,988.2,0.28,-92.33,1.33
-110.776,1140.456,969.656,-1.19,-94.99,-26.39
10.736,1101.416,987.712,0.91,-95.13,-46.76
51.728,1062.376,973.56,4.62,-95.2,-56.56
47.824,1009.184,966.24,8.82,-95.06,-56.98
23.424,953.064,983.32,12.25,-94.57,-52.08
0.0,1056.032,946.232,14.98,-93.59,-43.82
-74.176,903.776,885.72,17.92,-92.12,-31.57
-60.024,885.232,833.992,20.51,-90.02,-19.04
-99.064,884.744,831.552,24.01,-87.29,-7.49
-112.24,885.72,820.816,28.07,-83.44,0.49
-103.944,863.272,822.28,32.41,-78.82,2.94
-104.432,809.592,827.16,36.05,-73.85,1.19
-120.048,751.52,821.792,38.29,-68.81,-1.47
-119.072,684.664,813.008,38.57,-63.7,-3.08
-103.944,612.928,794.464,36.82,-58.8,-3.71
-89.792,550.464,761.768,33.74,-54.18,-4.55
-90.28,502.64,717.36,30.24,-49.7,-6.58
-105.896,481.656,670.024,26.95,-45.36,-9.66
-108.336,452.864,621.712,24.15,-41.16,-12.74
-100.528,421.144,593.408,21.63,-37.59,-15.47
-86.376,386.984,554.368,19.04,-34.51,-16.66
-90.768,370.88,545.096,16.1,-31.99,-15.19
-86.376,374.296,531.92,13.09,-29.61,-11.27
-92.232,373.32,526.552,9.94,-27.58,-7.7
-80.52,374.296,523.624,6.44,-25.76,-6.3
-48.312,405.528,488.976,2.45,-24.22,-7.63
-60.024,439.688,482.632,-1.68,-22.89,-9.03
-47.824,476.288,491.416,-6.02,-21.21,-8.96
-49.288,526.064,484.584,-10.29,-19.46,-8.54
-40.016,576.816,484.096,-14.35,-17.5,-8.05
-24.888,655.384,492.392,-17.71,-15.54,-6.72
-20.008,738.832,510.448,-20.09,-13.51,-3.57
-48.312,775.432,531.92,-21.56,-11.48,0.21
-87.352,821.792,528.504,-22.47,-9.45,2.87
-134.2,870.592,504.104,-22.68,-7.42,4.41
-207.4,918.904,471.408,-21.98,-5.81,5.53
-269.864,999.912,444.08,-20.16,-4.69,7.56
-325.496,1050.176,414.312,-17.01,-4.13,10.99
-390.4,1081.896,376.736,-13.23,-4.06,13.79
-434.808,1128.744,372.344,-9.38,-4.55,14.28
-445.544,1173.152,358.192,-5.39,-5.67,12.81
-454.328,1185.352,364.536,-1.68,-7.35,11.2
-432.856,1205.36,371.368,1.82,-9.38,10.5
-403.576,1200.48,390.888,5.32,-11.62,10.22
-380.152,1195.6,412.36,8.82,-13.58,9.24
-366.976,1185.352,437.736,12.18,-14.98,7.84
-358.68,1164.368,448.472,15.26,-15.89,7.28
-348.432,1135.576,449.448,17.78,-16.73,7.84
-337.208,1082.384,428.952,19.46,-17.78,8.33
-332.328,1029.192,398.696,20.02,-19.39,7.21
-308.416,990.64,379.176,19.25,-21.42,4.27
-280.6,951.112,366.976,17.57,-23.87,0.28
-254.736,932.568,333.792,15.05,-26.46,-3.78
-233.752,941.352,324.52,12.46,-29.12,-6.79
-212.768,938.912,331.84,10.15,-31.64,-7.56
-195.688,925.248,332.328,8.12,-34.09,-6.72
-179.096,922.808,323.544,6.37,-36.68,-6.09
-169.336,937.936,313.296,5.18,-39.48,-6.51
-150.304,994.544,339.648,4.83,-42.42,-8.68
-187.88,1020.408,341.112,5.46,-45.57,-13.93
-219.112,1047.248,329.888,6.44,-48.44,-23.52
-247.416,1073.112,275.232,7.77,-51.24,-37.38
-255.712,1115.08,255.224,9.52,-54.18,-55.02
-209.352,1244.888,265.96,12.18,-57.75,-73.85
-273.768,1281.976,269.864,15.68,-62.23,-88.06
-264.984,1343.952,280.112,18.83,-67.27,-94.85
-305.0,1433.256,259.128,21.0,-73.71,-92.54
-252.784,1474.736,251.808,22.12,-81.2,-82.67
-221.064,1485.96,249.368,21.42,-89.6,-73.15
-254.248,1556.72,169.336,18.76,-98.63,-72.45
-65.88,1659.2,102.48,15.4,-108.43,-86.03
-34.16,1644.072,82.96,11.97,-121.31,-112.28
170.312,1583.072,17.568,7.98,-136.78,-140.21
333.304,1427.888,-60.024,3.22,-155.12,-158.62
494.832,1348.832,-99.552,-2.24,-175.21,-160.79
650.504,1305.4,-114.68,-7.21,-196.7,-151.69
783.728,1240.008,-189.344,-10.92,-219.52,-142.45
822.28,1165.344,-217.648,-13.02,-243.39,-136.85
813.496,1092.144,-257.664,-13.23,-266.42,-129.99
797.392,1057.008,-213.256,-11.34,-287.63,-116.55
718.824,1039.44,-118.584,-7.91,-306.53,-94.36
647.576,1076.04,21.96,-3.71,-322.42,-65.1
447.496,1161.928,43.92,0.98,-336.07,-39.76
230.824,1157.048,136.152,6.72,-348.74,-30.94
95.16,1157.536,189.344,14.07,-361.48,-40.11
58.56,1108.736,272.304,23.17,-373.38,-56.28
129.808,1044.808,341.112,32.48,-384.23,-64.89
241.072,998.448,426.512,40.53,-394.87,-65.59
356.24,975.512,536.8,46.97,-405.65,-60.9
457.744,985.272,617.32,51.59,-416.36,-53.06
512.4,952.088,660.264,54.67,-426.86,-45.92
563.152,814.96,643.184,55.37,-436.8,-44.38
620.248,674.904,636.352,53.06,-446.04,-49.63
645.624,639.28,662.704,48.02,-454.02,-55.23
649.04,597.312,715.408,40.67,-460.04,-53.34
635.376,587.552,733.464,30.66,-464.24,-46.34
628.056,560.712,752.984,17.78,-466.55,-40.6
667.096,452.864,767.624,2.38,-467.39,-39.48
596.336,358.68,749.568,-14.91,-466.97,-45.36
517.768,318.664,669.536,-32.62,-464.24,-52.01
425.536,295.728,687.592,-49.14,-458.99,-50.68
353.312,414.8,667.584,-63.98,-451.43,-43.54
286.944,391.376,568.52,-76.51,-442.26,-42.77
171.776,396.256,441.64,-87.43,-431.27,-56.42
311.344,466.528,211.304,-96.25,-418.6,-80.57
636.84,454.816,146.4,-101.92,-406.77,-103.18
902.8,597.8,126.392,-105.21,-396.62,-111.65
1174.616,740.296,63.44,-105.91,-387.52,-106.33
1295.152,822.28,18.056,-104.93,-379.26,-92.4
1263.432,799.344,63.44,-103.39,-370.37,-72.8
1177.056,843.264,-5.856,-102.76,-359.8,-50.75
1164.368,846.192,-152.256,-102.69,-348.11,-30.31
1167.296,903.776,-234.24,-103.18,-337.26,-18.69
1305.888,1033.584,-486.048,-103.18,-328.23,-19.81
1404.464,1001.864,-577.304,-101.64,-321.79,-36.82
1516.704,1046.76,-625.616,-99.12,-316.54,-59.5
1737.28,996.008,-739.808,-95.2,-311.71,-71.54
1971.52,1039.928,-756.888,-91.14,-307.86,-67.27
2222.352,1026.264,-837.896,-87.08,-305.2,-47.32
2482.456,981.856,-732.488,-83.86,-304.01,-12.88
2442.44,945.744,-862.784,-82.39,-303.66,35.84
2047.648,866.2,-1174.616,-83.16,-300.72,92.47
1382.504,906.704,-1576.728,-86.24,-291.55,139.72
868.152,1144.848,-2113.528,-88.97,-275.1,152.81
733.952,1408.368,-2713.768,-87.78,-255.01,117.11
859.856,1780.712,-3310.592,-80.08,-235.55,46.27
1064.816,2050.088,-3724.416,-64.19,-217.98,-27.51
1405.44,2286.28,-4086.512,-41.65,-201.46,-73.92
1536.224,2480.016,-4402.248,-13.79,-184.52,-75.39
1457.656,2655.696,-4451.048,18.06,-164.64,-34.23
1156.56,3053.416,-4236.328,53.97,-140.21,34.86
419.192,3495.056,-4104.568,96.53,-110.04,111.09
-319.64,4002.576,-4012.824,147.14,-72.38,169.89
-1114.592,4750.192,-4130.432,208.32,-27.72,192.78
-1549.4,5855.512,-4222.176,283.5,23.45,172.34
-2225.28,7228.744,-4229.008,377.58,81.97,119.07
-2393.152,8781.072,-3495.544,493.15,151.97,64.82
-2912.384,9884.44,-2548.336,630.35,231.77,45.22
-3273.504,10643.28,-1439.112,781.55,318.85,70.56
-3852.272,11509.48,-361.608,940.1,403.83,115.57
-4706.76,12754.368,636.84,1100.47,481.25,160.86
-5928.712,14375.017,1523.536,1258.39,551.18,178.01
-7737.24,12827.08,2008.608,1397.27,624.89,146.02
-5493.904,5502.2,2358.016,1406.16,710.99,108.71
-4632.096,4185.088,920.368,834.89,648.97,339.01
-7606.456,2054.48,146.888,685.23,739.48,16.24
-7049.648,7030.616,2519.056,728.14,868.63,-437.78
-3495.544,6392.312,2612.264,689.92,1022.7,-597.87
-1387.872,3945.48,1272.216,600.11,1122.73,-419.86
2347.768,3840.072,-883.768,532.7,1148.28,-63.77
2753.784,4206.072,-2448.296,521.5,1092.98,249.2
3111.976,4950.272,-3621.936,544.25,993.16,430.5
2166.232,4984.432,-4322.704,574.63,876.19,524.37
-210.816,4158.248,-4959.056,594.37,766.64,603.47
-3660.976,3241.784,-4343.688,598.57,687.19,679.0
-4828.272,3055.856,-2886.52,589.68,640.01,652.47
-4352.96,3120.76,-1626.992,564.76,609.7,442.26
-3343.288,2704.008,-839.36,515.97,594.02,131.88
-2081.32,2213.08,-800.808,440.3,592.55,-125.86
-1358.104,1833.416,-958.432,349.44,594.72,-244.23
-1666.52,1880.752,-1021.384,262.78,594.58,-213.71
-1706.048,2285.792,-1152.168,198.59,592.06,-91.91
-1537.2,2787.944,-1211.216,162.82,581.0,29.26
-1289.296,3147.112,-1449.848,148.12,559.09,92.82
-1149.728,2997.296,-1576.728,142.73,528.01,94.29
-1428.864,2157.936,-1600.152,134.33,492.94,70.63
-1960.296,1322.968,-1653.832,116.9,460.88,61.04
-2149.64,907.68,-1663.592,93.38,433.16,76.65
-2041.304,905.728,-1627.968,68.81,404.25,85.68
-1607.472,903.288,-1632.36,43.89,369.32,49.91
-1221.464,921.832,-1548.912,16.52,326.62,-22.05
-661.24,939.888,-1334.192,-12.25,279.3,-85.4
-161.04,969.168,-1228.296,-38.57,228.06,-114.31
-35.136,1057.008,-992.592,-58.8,176.4,-96.25
-48.8,1272.216,-953.552,-71.05,127.82,-51.17
22.448,1613.816,-670.512,-75.18,81.48,-18.06
77.104,1861.72,-541.68,-72.31,35.91,-12.39
115.656,1925.16,-525.088,-64.96,-8.19,-17.64
68.808,2141.344,-456.768,-54.88,-48.86,-7.07
12.2,2263.344,-301.584,-42.21,-85.05,16.03
-173.728,2279.448,-203.984,-28.77,-116.48,34.93
-334.768,2334.104,-101.016,-16.17,-141.54,43.75
-467.992,2253.584,3.904,-4.76,-160.65,44.03
-503.128,2352.648,33.672,4.97,-175.21,42.0
-345.504,2376.072,274.744,14.63,-188.51,37.24
-252.296,2358.016,390.4,23.87,-203.21,24.99
-290.848,2283.84,382.104,32.48,-217.91,11.69
-402.6,2207.224,373.808,39.9,-230.23,5.25
-505.568,2049.112,299.632,45.71,-239.05,3.71
-523.136,1784.128,236.192,48.86,-244.86,1.05
-459.696,1600.152,190.32,48.93,-248.85,-4.97
-358.192,1443.992,246.44,47.11,-252.14,-13.51
-204.472,1339.56,271.328,44.38,-255.08,-25.13
-93.208,1303.936,288.408,41.3,-257.74,-37.03
-0.488,1339.56,308.416,39.27,-259.7,-43.89
56.608,1428.376,365.024,38.85,-260.61,-41.93
87.84,1498.16,485.072,40.25,-260.54,-31.99
80.52,1497.184,593.896,42.91,-259.49,-19.67
35.136,1439.112,668.56,45.85,-257.39,-9.94
-25.864,1375.672,703.208,48.65,-254.1,-5.32
-138.104,1269.288,686.616,51.1,-249.27,-7.63
-194.712,1194.624,615.856,53.13,-242.62,-16.17
-200.568,1092.144,589.504,55.3,-234.92,-28.49
-166.408,986.248,548.024,57.33,-226.59,-41.72
-127.368,892.064,506.544,59.15,-218.05,-53.62
-111.264,769.088,468.968,60.55,-209.51,-63.35
-108.824,665.144,414.312,61.11,-200.76,-71.47
-96.624,586.576,471.896,60.69,-191.94,-77.49
23.912,651.48,696.864,55.09,-182.98,-80.5
119.072,423.096,688.568,40.67,-174.23,-55.51
189.344,247.904,644.648,20.37,-168.07,-21.49
39.04,291.336,456.28,3.43,-163.38,-17.15
-145.912,330.376,412.848,-6.65,-157.85,-40.18
-137.616,351.848,391.864,-11.41,-150.92,-74.34
-139.568,323.544,366.0,-12.81,-143.5,-107.17
-116.632,323.056,333.792,-12.18,-135.31,-130.83
-106.384,314.272,331.352,-10.57,-126.84,-143.64
-79.544,296.704,359.168,-8.75,-118.23,-147.07
-94.672,283.528,360.144,-7.14,-110.11,-143.78
-291.336,262.056,348.432,-6.37,-103.39,-136.15
-184.464,337.696,244.0,-6.23,-99.05,-126.42
-172.752,341.112,268.888,-5.81,-98.28,-117.11
-157.624,345.992,331.84,-5.81,-99.75,-107.03
-132.736,383.08,415.288,-6.51,-102.55,-94.15
-82.96,496.784,480.68,-7.21,-105.77,-79.87
-9.272,612.44,537.776,-6.44,-108.71,-68.53
-16.104,617.808,589.016,-4.41,-110.53,-61.46
-63.44,585.6,623.176,-2.87,-110.74,-56.35
-75.152,553.392,622.688,-2.73,-109.41,-51.38
-59.048,541.192,626.104,-3.99,-107.73,-47.74
-58.072,545.096,652.944,-6.23,-106.47,-46.34
-85.888,561.688,702.72,-8.82,-105.49,-46.27
-121.512,631.472,783.24,-11.62,-104.93,-46.06
-169.824,759.328,910.12,-14.14,-104.79,-43.75
-214.232,877.424,1055.544,-15.89,-105.0,-38.57
-234.728,980.392,1190.232,-16.94,-105.14,-31.43
-258.152,1124.84,1291.736,-17.29,-105.42,-23.87
-280.112,1219.024,1413.248,-16.87,-105.63,-16.03
-309.392,1230.736,1516.704,-16.66,-105.63,-6.79
-323.056,1225.368,1596.248,-17.64,-104.93,3.85
-292.312,1224.392,1681.16,-20.09,-103.39,13.37
-280.6,1182.912,1728.008,-23.52,-100.66,18.41
-295.24,1118.496,1725.08,-27.86,-96.46,17.78
-325.496,1044.32,1680.184,-32.55,-90.93,11.41
-354.288,974.048,1603.08,-37.1,-84.14,-0.07
-372.832,922.32,1516.216,-41.02,-76.51,-13.86
-372.344,883.768,1438.624,-44.1,-68.32,-26.46
-354.288,855.464,1368.352,-46.2,-59.99,-35.28
-340.136,829.112,1304.912,-47.39,-51.87,-39.41
-306.952,822.28,1247.816,-47.53,-44.17,-39.9
-278.16,801.784,1196.088,-46.48,-37.24,-38.5
-244.488,769.088,1147.776,-44.66,-30.94,-36.26
-194.224,753.96,1093.608,-42.14,-25.41,-33.81
-162.992,715.408,1051.64,-38.78,-21.0,-31.57
-153.232,674.904,999.912,-34.93,-17.36,-29.05
-156.16,646.6,930.616,-30.8,-14.28,-26.32
-119.072,618.784,870.592,-26.18,-11.76,-24.01
-87.84,577.304,822.768,-21.14,-10.01,-22.4
-72.224,521.184,774.456,-16.03,-8.96,-20.93
-60.024,471.896,721.264,-11.13,-8.26,-18.62
-43.432,432.368,669.536,-6.58,-7.98,-15.54
-45.872,391.376,629.032,-2.31,-7.77,-11.41
-45.384,368.44,595.36,1.75,-7.42,-6.58
-32.208,372.344,565.104,5.74,-7.14,-1.82
-19.032,393.328,545.584,9.94,-7.0,2.1
-22.448,394.792,536.312,14.35,-6.79,5.74
-55.632,376.736,526.552,18.76,-6.23,9.94
-85.4,363.072,494.344,22.82,-4.97,14.77
-102.968,371.856,474.336,26.46,-3.29,18.9
-116.632,370.88,453.84,29.89,-1.47,21.21
-135.664,392.352,429.44,33.18,0.35,21.49
-140.544,443.592,409.432,36.4,2.1,19.74
-142.984,512.4,408.456,39.69,3.92,16.52
-162.504,561.688,430.904,42.98,5.81,13.37
-201.544,613.904,418.216,46.06,8.19,11.13
-227.896,625.616,379.176,48.51,11.13,9.24
-193.248,659.288,333.304,50.19,14.35,6.3
-117.12,693.936,267.912,51.38,17.08,1.26
-81.496,673.928,231.8,52.01,18.69,-5.81
-89.792,647.576,250.832,51.94,19.18,-14.14
-134.2,607.072,284.504,50.68,18.97,-22.61
-167.384,687.104,338.184,48.23,18.13,-29.4
-173.728,894.016,380.64,46.41,16.66,-32.06
-155.184,1174.616,395.28,46.55,14.63,-28.28
-114.68,1371.768,410.408,49.77,12.32,-17.5
-87.84,1407.392,450.912,54.39,9.94,-0.49
-74.664,1352.248,472.384,58.03,7.7,21.77
-6.832,1308.328,470.92,58.94,5.18,46.97
84.912,1292.224,481.168,56.91,1.96,71.54
146.4,1269.776,514.84,52.15,-1.68,91.77
189.344,1282.464,542.656,45.08,-5.04,104.72
203.496,1331.264,531.92,36.96,-7.49,108.85
171.776,1354.688,500.688,28.84,-8.54,104.23
113.216,1342.488,468.48,21.14,-7.91,92.26
65.88,1306.376,432.856,13.93,-5.74,75.11
19.52,1252.696,380.152,7.21,-2.38,56.14
-16.592,1202.432,357.216,1.12,1.96,40.88
-30.744,1146.8,333.304,-4.27,6.79,30.94
-37.088,1074.088,318.664,-8.96,11.76,25.97
-20.496,1005.28,306.952,-13.16,16.31,24.57
-8.784,940.864,300.608,-16.8,20.23,25.2
-4.88,876.448,306.464,-20.02,23.45,26.6
8.296,836.92,314.76,-22.75,26.18,28.14
5.856,799.344,316.712,-24.71,28.49,29.54
6.832,763.232,328.912,-26.04,30.52,30.59
-2.928,727.12,339.648,-26.67,32.34,31.22
12.2,724.192,354.776,-26.88,34.23,31.36
10.736,709.064,356.728,-26.32,36.05,30.52
-4.392,671.488,355.752,-25.34,37.94,28.63
5.368,649.04,353.312,-24.22,39.9,25.34
30.256,681.736,348.92,-22.61,41.79,21.14
49.288,719.8,340.624,-20.3,43.26,16.94
50.264,746.64,352.336,-17.08,44.45,13.86
52.704,782.264,387.96,-13.09,45.36,12.46
60.024,836.92,430.904,-8.4,45.92,12.95
61.0,883.28,473.848,-3.22,45.92,14.98
68.32,915.0,501.176,2.31,45.5,18.06
58.56,924.76,523.624,7.84,44.66,21.56
51.24,927.2,549.488,13.02,43.61,24.99
58.56,934.52,589.992,17.78,42.42,27.79
78.08,970.144,632.936,22.26,40.95,29.75
93.696,997.96,681.248,26.67,39.41,31.36
95.648,1000.888,724.192,30.66,37.8,32.55
99.064,949.16,729.56,33.74,36.26,32.76
117.12,901.336,721.264,35.14,34.86,31.36
137.128,853.512,711.504,34.93,33.32,28.7
155.672,815.936,691.008,33.53,31.64,25.27
169.336,790.072,668.072,31.15,29.96,21.42
178.12,778.36,639.28,28.42,28.07,17.78
159.576,743.224,628.056,25.48,26.11,14.42
162.016,712.968,603.168,22.19,24.08,10.78
162.504,710.04,574.376,18.76,21.63,6.3
147.376,701.744,567.056,15.54,18.76,1.12
162.016,689.544,563.152,12.46,15.61,-5.32
177.632,683.2,563.152,9.59,11.83,-12.6
172.264,672.952,552.416,6.79,7.63,-18.69
180.56,665.144,527.04,4.13,3.08,-22.4
193.248,667.096,507.52,1.75,-1.82,-23.45
190.808,671.0,494.344,-0.14,-6.86,-22.19
173.728,675.392,480.68,-1.68,-11.97,-19.11
163.968,691.008,464.576,-2.87,-16.94,-16.66
175.68,698.328,463.6,-3.57,-21.98,-16.73
184.952,707.112,459.696,-4.13,-27.3,-19.18
196.664,711.016,448.472,-4.69,-32.83,-22.4
212.768,719.312,434.808,-5.39,-38.36,-24.71
222.04,727.608,418.704,-6.02,-43.75,-25.34
203.984,747.128,419.68,-6.65,-48.93,-24.01
209.84,776.408,418.216,-7.0,-53.76,-21.7
205.936,793.488,408.944,-6.93,-58.66,-20.3
201.544,824.72,418.216,-6.72,-63.49,-20.51
199.592,840.824,431.88,-6.3,-68.25,-21.77
204.472,859.368,441.64,-5.88,-73.01,-23.59
213.744,875.472,447.984,-5.46,-77.7,-26.11
169.336,901.824,405.528,-4.97,-82.25,-30.31
180.56,970.144,394.304,-4.13,-86.59,-36.05
187.88,961.848,400.648,-2.73,-91.14,-42.77
205.936,954.04,436.272,-1.54,-96.25,-49.28
207.888,989.664,465.552,-0.49,-102.13,-53.41
190.808,1020.408,481.656,0.91,-108.5,-53.97
133.712,994.056,496.784,2.17,-114.94,-50.4
58.072,1011.624,516.304,2.52,-120.75,-43.96
21.472,1085.8,522.16,2.24,-125.79,-37.59
-67.832,1107.76,525.088,2.03,-129.99,-34.58
-103.456,1125.328,546.072,1.33,-133.21,-37.24
-128.344,1155.584,536.8,0.56,-135.94,-45.78
-153.232,1238.056,491.904,0.14,-138.25,-57.89
-81.496,1327.848,523.136,0.63,-140.28,-70.63
67.832,1354.2,609.024,1.4,-143.36,-80.43
164.944,1323.944,595.848,1.19,-148.26,-84.49
181.536,1263.432,532.896,-0.35,-154.49,-80.71
234.728,1202.92,497.76,-3.29,-161.77,-71.68
361.12,1138.992,415.288,-7.28,-170.87,-63.14
418.704,1044.808,330.376,-12.11,-182.49,-57.26
433.344,979.416,250.832,-17.85,-195.16,-51.24
482.632,980.88,182.024,-24.08,-208.39,-45.01
535.824,959.408,153.72,-30.03,-222.25,-40.11
620.736,976.0,181.048,-35.42,-236.32,-35.21
691.008,985.272,187.88,-39.55,-250.25,-28.14
702.232,960.384,188.368,-42.21,-263.34,-16.52
653.432,896.944,156.648,-44.38,-274.68,0.49
557.296,852.048,117.608,-47.18,-283.71,21.0
509.96,761.768,45.384,-51.45,-290.5,40.6
499.712,674.904,22.936,-58.03,-295.96,55.37
451.4,659.776,91.744,-66.64,-300.51,69.23
228.872,725.656,102.968,-76.02,-304.22,81.97
99.552,789.584,133.712,-84.84,-309.19,82.04
-35.624,811.056,234.24,-93.1,-316.33,71.68
-117.608,879.864,308.416,-100.87,-324.38,55.23
-122.976,923.296,370.88,-107.38,-332.43,31.36
-148.352,935.984,479.216,-111.93,-340.34,6.51
-110.776,961.848,571.448,-114.66,-347.27,-9.66
-39.528,953.552,662.216,-116.27,-353.08,-16.66
62.952,916.464,745.176,-117.6,-358.19,-18.9
173.728,837.408,813.496,-119.7,-362.95,-19.67
243.512,732.488,861.808,-123.2,-367.22,-21.49
287.92,639.768,854.0,-128.38,-370.65,-25.9
272.792,551.928,827.648,-134.68,-372.47,-28.98
254.736,534.848,836.92,-141.89,-371.49,-26.25
246.44,592.432,775.432,-149.03,-367.78,-19.39
272.304,627.568,751.52,-155.68,-361.76,-13.37
351.36,608.536,664.656,-161.84,-354.83,-15.47
442.616,617.808,601.216,-167.86,-347.76,-23.45
512.888,603.656,511.912,-173.04,-340.9,-32.62
504.592,612.928,480.68,-177.31,-333.83,-41.37
570.472,728.096,386.496,-180.53,-325.92,-46.48
686.128,789.584,213.256,-182.35,-318.36,-54.04
806.664,870.104,103.944,-182.91,-312.2,-64.82
945.744,892.552,33.672,-182.07,-307.23,-71.75
974.048,853.512,72.712,-180.6,-303.03,-73.43
926.712,836.432,92.232,-178.99,-298.34,-68.74
899.384,837.408,85.4,-177.1,-292.53,-61.46
975.024,857.416,40.992,-175.07,-286.79,-55.65
1070.672,927.688,-45.872,-172.48,-282.38,-52.43
1192.672,999.424,-203.984,-169.4,-279.51,-51.38
1358.104,1019.432,-347.456,-166.18,-277.83,-52.71
1501.576,950.136,-468.968,-163.59,-277.13,-52.29
1620.648,860.344,-628.544,-162.54,-276.78,-41.23
1729.96,761.28,-758.84,-163.59,-276.15,-16.31
1772.904,684.176,-802.76,-166.53,-275.31,17.78
1717.272,674.416,-788.608,-170.66,-273.91,51.94
1593.808,781.288,-794.952,-174.37,-271.39,76.44
1513.776,942.816,-888.648,-175.56,-267.75,83.44
1645.048,1107.76,-1047.736,-172.83,-264.74,67.9
1886.608,1195.6,-1218.048,-165.55,-264.67,34.58
2112.064,1302.96,-1388.36,-154.0,-267.75,1.05
2138.904,1368.84,-1524.024,-138.6,-271.81,-13.44
1958.344,1439.6,-1803.648,-120.96,-273.21,-1.26
1603.08,1482.544,-2162.816,-102.76,-269.29,29.61
1264.408,1579.168,-2553.704,-85.19,-259.14,61.53
1018.456,1773.392,-2973.384,-66.99,-244.09,76.16
889.136,1921.256,-3304.248,-46.27,-226.1,64.47
813.984,2114.504,-3513.6,-21.7,-206.01,29.68
841.312,2131.584,-3689.28,7.42,-183.47,-12.88
986.736,2016.416,-3850.808,38.92,-158.83,-43.89
959.896,1925.648,-4121.16,70.28,-131.88,-46.83
793.976,1854.4,-4292.448,100.52,-101.64,-20.44
366.976,2128.656,-4530.104,130.34,-67.41,24.22
-360.632,2592.744,-4736.528,163.73,-27.58,71.61
-751.52,3064.64,-4637.952,203.91,18.62,102.06
-1149.24,3952.8,-4623.8,254.1,67.97,105.91
-1456.192,5208.424,-4371.992,319.76,120.61,89.46
-1847.568,6562.136,-4067.48,403.97,176.96,63.28
-1930.528,7418.576,-3547.76,504.56,237.44,38.92
-2246.752,8128.616,-2863.584,615.23,299.81,34.3
-2760.616,8888.92,-1917.352,732.76,363.44,60.55
-3616.08,9256.872,-946.232,854.91,425.6,100.94
-4493.016,9553.576,11.712,974.47,484.89,128.24
-5699.352,9369.601,621.712,1083.25,542.99,119.28
-7114.552,8975.784,1076.04,1171.17,609.98,75.39
-2344.352,993.08,511.424,1046.22,647.99,409.71
-2533.208,-1911.008,-1830.976,496.44,378.63,1732.57
4073.824,1492.792,1703.12,671.23,140.98,852.04
-5254.296,4103.592,-327.936,986.79,139.23,-607.04
1066.768,7384.416,-1285.392,1009.47,390.32,-1290.59
-1291.248,5206.96,-1009.184,891.73,639.45,-1188.53
1068.72,3901.072,-1320.528,753.55,812.07,-591.29
1989.088,4190.456,-2805.512,688.52,870.87,178.78
1234.64,5161.576,-4430.552,716.03,820.12,733.81
812.52,5530.992,-4868.776,778.82,710.92,911.68
-2567.856,5456.816,-4140.192,820.33,596.82,817.04
-4070.408,5131.32,-2680.584,827.33,535.29,592.48
-3681.96,4060.16,-1427.4,799.4,525.35,291.2
-3114.904,3137.352,-930.128,733.53,551.32,-12.88
-2106.696,2399.496,-516.304,635.25,599.62,-228.2
-1288.808,1991.04,-385.52,516.74,645.19,-327.6
-734.928,2177.456,-509.472,396.27,673.4,-325.85
-179.584,2374.608,-739.32,292.25,679.0,-256.55
-27.328,2610.8,-965.752,213.08,663.53,-156.94
-20.496,2736.704,-1080.92,159.74,634.55,-49.21
-338.184,2713.768,-1297.592,127.47,596.82,40.95
-803.736,2443.904,-1441.064,107.8,555.73,99.68
-1121.424,2295.552,-1482.544,92.47,513.8,114.8
-1345.416,2199.416,-1465.952,76.02,471.38,86.45
-1441.064,2137.928,-1447.408,57.05,429.52,29.75
-1502.064,1870.504,-1397.144,35.49,389.9,-17.43
-1342.488,1564.528,-1285.392,13.23,353.29,-24.99
-1107.272,1413.248,-1122.888,-7.14,316.96,0.56
-1050.664,1375.672,-1054.568,-23.59,279.44,38.43
-1090.192,1354.2,-997.96,-36.54,241.71,67.06
-1227.808,1289.296,-994.056,-47.67,203.91,74.27
-1288.32,1327.36,-967.216,-57.68,167.23,68.25
-1021.872,1383.968,-850.584,-66.08,130.55,51.03
-865.224,1510.848,-746.152,-71.47,92.05,27.37
-800.808,1556.232,-546.072,-73.57,54.53,12.25
-680.76,1473.272,-429.44,-73.01,20.44,10.43
-582.184,1412.272,-292.8,-71.05,-10.85,20.23
-524.6,1479.128,-65.88,-67.97,-39.83,39.9
-467.016,1549.4,41.968,-63.14,-66.99,57.05
-420.168,1571.848,113.704,-57.4,-92.4,60.76
-439.2,1701.656,201.544,-51.1,-114.73,53.55
-446.52,1684.088,280.112,-43.89,-132.72,43.82
-494.344,1631.872,252.296,-37.1,-146.3,35.28
-446.52,1670.424,317.2,-30.8,-156.17,28.56
-441.152,1611.864,336.72,-24.64,-164.22,17.36
-349.408,1573.8,319.64,-18.83,-171.08,-3.36
-273.768,1430.328,339.16,-13.37,-177.45,-32.83
-244.0,1302.96,314.76,-8.75,-182.63,-62.37
-176.168,1182.424,286.944,-4.48,-186.13,-81.34
-78.08,1139.968,299.632,-0.7,-188.37,-84.07
32.208,1092.632,331.84,2.94,-190.19,-73.64
128.832,1083.848,335.256,6.16,-192.29,-57.89
177.632,1031.144,345.992,8.96,-194.74,-44.17
218.624,985.272,346.968,10.92,-197.26,-37.03
223.504,946.232,386.496,12.46,-199.71,-36.4
249.368,985.272,445.544,14.07,-201.81,-40.39
257.176,1088.24,530.944,16.87,-203.56,-46.13
180.56,1161.928,608.048,21.35,-204.47,-50.61
104.92,1199.992,611.952,26.88,-203.7,-53.62
55.632,1204.384,598.288,32.97,-201.46,-55.93
31.232,1204.872,590.968,38.92,-198.24,-58.03
17.08,1189.744,569.008,44.66,-194.46,-61.46
66.856,1218.048,579.256,50.19,-190.54,-67.41
75.152,1255.624,604.144,56.07,-187.18,-74.41
22.936,1261.48,601.216,62.37,-183.61,-80.01
2.44,1280.512,598.288,68.88,-179.41,-83.23
-38.552,1261.968,599.264,75.46,-174.93,-85.05
-137.128,1222.44,683.2,80.71,-170.38,-89.81
-51.728,1522.072,838.872,80.92,-166.88,-90.72
-146.4,1040.416,991.616,71.96,-167.23,-52.08
23.424,1214.632,854.488,56.21,-173.18,-30.24
-140.544,1231.712,768.6,47.39,-180.95,-44.87
-203.984,1199.016,709.064,45.22,-185.78,-75.46
-205.448,1141.432,655.872,47.46,-187.74,-106.19
-200.568,1070.672,632.448,51.52,-188.51,-128.31
-183.488,971.12,624.64,55.72,-188.02,-138.25
-231.8,868.152,601.216,59.22,-186.69,-138.6
-203.008,882.304,505.08,62.09,-185.22,-134.68
-245.952,708.576,464.088,64.26,-184.45,-127.47
-247.904,671.976,417.24,63.56,-183.12,-115.22
-256.2,533.384,417.728,60.97,-181.86,-99.12
-212.768,495.32,406.504,56.0,-180.18,-78.54
-186.416,458.72,425.536,49.7,-177.94,-54.46
-147.376,410.408,434.32,41.86,-175.0,-30.03
-128.832,393.328,445.544,32.55,-171.57,-8.19
-103.456,400.16,486.536,22.61,-168.0,7.14
-85.888,426.024,520.208,13.02,-164.85,12.74
-110.288,427.488,550.952,4.55,-162.19,9.31
-128.344,425.536,584.136,-2.94,-159.53,0.14
-134.688,438.224,599.752,-9.31,-156.73,-11.13
-173.728,425.048,581.208,-14.84,-153.86,-21.98
-172.264,441.64,560.224,-19.95,-150.78,-31.57
-179.584,468.48,537.288,-24.5,-147.7,-40.25
-185.44,470.432,531.432,-28.21,-144.83,-48.02
-204.96,472.384,525.088,-31.29,-141.96,-53.97
-189.344,411.872,519.232,-33.88,-139.02,-58.45
-156.16,360.144,565.104,-36.68,-136.43,-62.16
-170.312,406.016,544.608,-39.62,-134.47,-63.56
-162.016,495.808,539.24,-41.72,-132.3,-62.3
-75.64,535.824,596.336,-42.63,-129.99,-59.22
-51.728,563.64,633.912,-42.84,-127.96,-52.43
-98.576,661.728,639.28,-42.28,-125.86,-40.25
-23.912,868.64,657.336,-40.25,-123.2,-22.89
38.552,1064.816,698.328,-35.49,-121.17,-3.85
28.304,1198.04,720.776,-28.35,-119.56,12.32
113.704,1240.008,759.328,-19.6,-118.72,21.98
131.76,1332.24,872.544,-9.94,-118.44,26.04
169.824,1481.08,963.312,1.05,-118.16,28.07
-5.368,1848.544,1085.312,16.31,-117.95,33.67
37.088,1350.296,1198.528,32.06,-115.22,45.85
231.8,1551.352,1106.296,45.64,-112.91,50.54
358.68,1248.792,1158.512,56.49,-112.07,47.46
330.376,1246.352,1159.976,62.86,-111.51,46.97
272.304,1205.36,1079.944,68.25,-110.18,48.65
221.552,1030.168,997.96,71.54,-107.8,48.37
286.944,950.136,875.472,72.24,-104.86,42.7
317.688,849.12,835.944,70.84,-101.71,33.04
242.048,846.68,764.696,67.27,-97.79,21.84
235.216,884.256,721.752,62.58,-92.54,9.03
261.08,903.776,708.576,57.47,-87.01,-7.84
244.976,815.936,655.872,51.73,-81.69,-28.49
260.104,751.52,605.608,44.52,-76.02,-46.62
259.128,717.36,543.632,35.98,-70.28,-57.89
251.808,655.384,516.792,26.74,-64.4,-62.58
264.984,628.544,471.896,16.87,-58.73,-63.91
191.296,629.032,452.864,7.42,-53.41,-63.35
109.8,621.224,460.184,-1.05,-48.16,-62.02
73.688,583.648,452.376,-8.82,-43.05,-61.95
17.08,607.072,403.088,-15.96,-38.36,-61.39
-59.048,577.304,413.824,-22.33,-33.39,-58.59
-63.44,581.208,428.464,-28.14,-28.14,-57.12
13.664,633.424,498.736,-33.18,-23.94,-61.6
50.752,663.68,528.016,-36.82,-21.77,-71.05
25.376,653.432,488.976,-39.55,-21.35,-82.32
94.184,649.04,444.08,-42.0,-21.98,-93.38
81.496,617.808,422.12,-44.8,-24.01,-99.75
85.4,647.088,389.912,-48.3,-26.32,-96.88
43.92,665.144,302.072,-51.73,-29.26,-88.76
-21.472,809.104,179.096,-54.74,-32.97,-80.99
-90.768,1025.288,116.632,-56.28,-37.38,-77.49
-74.176,1321.504,122.976,-55.44,-42.42,-82.11
31.232,1587.464,165.432,-51.73,-48.86,-96.18
143.472,1594.296,202.032,-46.76,-57.33,-115.29
332.816,1558.672,240.584,-43.33,-68.11,-131.25
427.976,1511.824,227.408,-41.58,-81.48,-137.27
494.344,1498.16,155.672,-40.6,-96.32,-132.3
509.96,1483.52,76.128,-39.34,-111.58,-120.47
497.76,1425.448,22.448,-37.52,-126.21,-105.77
522.16,1301.984,-18.056,-36.19,-139.79,-91.84
524.112,1159.0,-30.744,-36.47,-152.53,-77.07
548.512,1076.528,7.808,-38.71,-163.94,-56.77
641.72,1031.632,29.768,-42.42,-174.58,-33.74
710.528,1060.424,34.648,-45.99,-185.64,-13.58
744.2,1049.2,40.504,-47.95,-197.47,3.64
760.304,1008.208,17.568,-48.44,-209.79,20.16
766.648,975.512,-30.256,-48.09,-221.69,38.99
707.112,961.36,-43.432,-47.53,-232.61,63.84
592.92,1043.344,-32.208,-47.53,-242.06,93.73
427.488,1087.752,-28.304,-47.88,-250.53,117.39
377.712,1180.472,-33.672,-48.37,-259.07,122.43
137.616,1190.232,-20.984,-48.51,-268.24,109.27
-18.544,1194.136,-19.52,-47.95,-278.25,75.95
-156.648,1199.992,67.344,-45.5,-289.17,31.15
-203.008,1086.776,141.032,-41.51,-298.9,-1.33
-221.552,1034.072,193.736,-38.36,-306.67,-14.0
-217.648,1031.632,238.632,-36.54,-312.69,-13.23
-171.776,1093.12,279.624,-35.56,-318.01,-10.92
-103.944,1190.72,340.624,-34.44,-323.19,-12.95
27.816,1272.216,384.056,-32.69,-328.72,-21.35
205.448,1308.816,389.912,-30.59,-335.02,-37.8
386.008,1265.872,369.904,-28.91,-342.02,-58.45
513.376,1167.296,359.168,-28.42,-348.88,-75.46
617.808,1072.136,350.384,-30.03,-354.62,-82.6
713.456,1023.336,362.584,-33.6,-358.96,-79.17
760.792,971.12,353.312,-39.27,-362.32,-72.8
745.664,857.416,317.2,-47.25,-364.49,-73.43
683.688,723.704,284.016,-57.33,-364.7,-80.57
606.096,600.24,253.272,-68.74,-362.18,-86.94
535.824,485.072,251.808,-80.99,-356.93,-88.13
504.104,447.496,224.968,-93.66,-349.58,-82.88
534.848,438.712,165.92,-105.84,-341.46,-80.71
558.272,477.264,123.952,-116.97,-333.48,-86.59
586.576,461.648,12.688,-126.77,-325.57,-97.23
569.008,460.672,-88.816,-135.73,-317.59,-114.8
630.984,487.512,-197.152,-143.64,-308.91,-132.93
783.728,523.136,-292.312,-150.01,-300.65,-146.51
925.248,587.552,-345.504,-154.7,-293.65,-153.65
1064.328,686.128,-370.392,-157.43,-287.98,-149.73
1138.016,764.208,-406.016,-158.62,-283.36,-137.55
1247.816,844.24,-512.888,-159.18,-279.65,-126.35
1335.656,867.176,-543.632,-159.18,-277.27,-119.0
1387.872,890.6,-543.144,-158.9,-276.01,-111.16
1433.256,881.816,-587.552,-158.41,-275.52,-103.25
1447.896,874.496,-647.088,-157.99,-275.73,-96.6
1435.696,823.744,-697.84,-157.78,-276.36,-91.28
1413.248,808.128,-737.856,-157.92,-277.2,-87.85
1424.472,813.008,-764.208,-157.92,-277.97,-85.54
1470.832,755.912,-765.184,-157.22,-279.02,-80.92
1499.136,720.288,-719.8,-155.96,-280.0,-67.2
1483.032,725.656,-793.0,-153.93,-280.42,-45.43
1386.408,743.224,-914.512,-151.41,-280.07,-24.5
1298.568,789.584,-1078.968,-148.26,-278.53,-12.81
1270.264,778.36,-1280.512,-143.85,-276.36,-11.06
1288.32,828.624,-1427.888,-138.18,-273.7,-12.32
1285.88,963.8,-1602.592,-130.48,-270.55,-11.62
1253.672,1124.84,-1806.088,-120.19,-266.35,-8.47
1167.296,1192.672,-2070.096,-107.17,-260.47,-5.39
1017.48,1234.64,-2320.928,-92.54,-252.35,-3.36
776.896,1354.2,-2552.728,-76.02,-241.22,-1.75
528.016,1760.216,-2681.072,-55.93,-226.03,-0.7
350.384,2230.648,-2763.544,-29.54,-206.64,-2.52
210.816,2527.352,-3040.728,3.43,-183.54,-9.31
81.496,2657.648,-3410.632,40.6,-156.87,-19.53
61.0,2780.136,-3689.28,79.66,-126.91,-28.63
140.056,3006.08,-3714.656,120.33,-95.34,-35.63
147.376,3334.016,-3646.824,164.01,-63.35,-40.25
-20.984,3663.416,-3624.864,211.82,-29.47,-40.25
-150.304,4123.112,-3467.728,264.32,7.84,-35.91
-514.84,4703.832,-3450.16,322.98,49.0,-23.38
-855.464,5511.472,-3233.0,389.41,95.2,4.83
-1091.656,6406.464,-3030.48,466.34,143.36,43.82
-1181.448,7443.464,-2559.072,555.59,189.63,83.65
-1321.016,8287.216,-2098.4,657.79,230.37,109.76
-1579.168,8919.664,-1467.904,769.23,266.07,119.14
-1946.632,9483.304,-862.296,885.43,298.76,121.94
-2225.28,10058.168,-233.752,1003.03,329.42,129.99
-2213.568,10132.832,-13.664,1118.18,354.76,142.66
-2356.064,10716.968,137.616,1227.52,370.79,178.99
-2789.408,10070.856,1637.24,1329.93,372.54,247.1
-3599.976,1538.664,-2373.144,724.22,323.12,-33.53
-4421.28,3970.856,-1366.4,266.0,383.74,-62.86
-4467.152,1744.6,549.976,553.35,475.37,174.16
-4920.992,5739.856,1534.272,821.59,511.0,154.0
-3783.952,7984.168,1938.336,940.87,549.43,-70.98
-3677.568,6372.792,1933.456,983.99,612.85,-354.48
-1561.112,4235.84,1789.496,949.55,706.3,-585.55
-546.56,3818.112,1726.544,852.11,802.83,-730.66
-113.704,3556.056,1624.552,714.0,886.34,-776.51
385.52,3087.576,1607.96,559.58,945.49,-738.01
544.12,2769.4,1816.824,409.64,973.0,-648.69
770.552,2363.872,1780.712,275.45,974.54,-546.42
858.392,2004.704,1536.712,156.8,956.48,-451.64
1120.936,1647.976,1019.92,53.27,925.33,-354.41
1692.872,1217.072,282.064,-33.88,882.21,-245.7
1760.216,1132.16,-344.04,-101.5,828.45,-121.66
1579.168,1292.712,-871.08,-147.14,770.91,-3.99
1053.104,1215.608,-1431.792,-174.16,714.84,87.22
237.656,791.048,-1673.84,-191.59,664.93,146.44
-295.24,514.84,-1776.808,-208.6,622.09,159.81
-299.144,463.112,-1732.4,-229.46,581.21,117.67
-54.656,586.576,-1603.08,-253.96,537.18,50.26
376.248,632.936,-1597.224,-279.09,489.3,0.7
349.896,419.192,-1680.184,-301.14,439.67,-6.3
7.32,468.48,-1687.016,-318.01,395.92,35.98
-291.824,495.808,-1693.36,-325.78,361.97,99.54
-296.216,600.728,-1697.752,-325.78,335.3,148.61
-274.744,994.544,-1706.536,-318.99,310.17,171.99
-213.744,1420.568,-1644.56,-304.22,283.5,178.01
-171.288,1651.392,-1513.288,-281.89,253.61,171.71
-450.424,1738.744,-1519.144,-254.66,221.76,162.12
-713.456,1759.728,-1435.208,-224.28,191.8,159.11
-851.072,1523.536,-1419.104,-193.06,164.01,160.09
-924.272,1270.752,-1461.56,-164.64,137.41,158.06
-977.464,1321.504,-1416.664,-139.09,111.44,156.66
-1038.464,1379.576,-1387.872,-114.1,86.17,158.97
-1063.84,1559.648,-1243.424,-89.11,61.32,162.47
-1204.872,1734.84,-1199.016,-63.56,36.75,161.42
-1318.576,1737.768,-1157.536,-38.08,13.02,147.77
-1288.32,1813.408,-931.592,-14.21,-10.5,116.83
-1188.28,1743.624,-743.712,8.33,-34.93,74.69
-1045.296,1682.136,-635.864,28.98,-59.71,37.45
-814.472,1724.104,-435.784,47.95,-84.28,18.69
-588.528,1691.408,-212.768,66.08,-108.99,17.78
-548.024,1741.672,-47.824,82.6,-133.28,28.84
-577.304,1886.12,138.592,98.0,-155.61,47.81
-531.92,2001.288,326.472,112.91,-176.05,63.56
-429.44,2035.448,511.912,126.91,-196.0,65.24
-366.976,2073.024,663.192,139.65,-215.32,54.18
-371.368,1937.848,796.416,151.27,-233.1,38.08
-305.488,1789.984,908.656,160.44,-248.08,20.02
-214.232,1803.16,1008.208,167.58,-260.82,4.34
-144.936,1764.608,1159.488,174.09,-271.46,-2.59
-109.8,1719.224,1188.768,179.48,-279.93,-2.73
-87.84,1665.056,1163.88,183.19,-286.09,0.0
-43.92,1554.28,1122.4,185.22,-290.29,1.75
7.32,1352.248,1060.424,184.8,-292.88,-0.56
71.736,1197.552,1006.744,181.72,-294.21,-8.19
164.456,1017.968,986.736,176.68,-294.49,-21.14
257.176,967.216,992.104,170.66,-293.86,-37.73
374.296,1072.624,1019.432,165.55,-292.32,-50.96
477.752,1159.488,1100.928,162.61,-290.15,-54.95
513.864,1193.16,1129.232,161.28,-287.63,-48.58
507.032,1122.888,1150.704,160.16,-284.48,-33.74
505.568,1021.384,1184.864,157.5,-280.91,-16.73
504.104,892.552,1189.256,152.74,-277.41,-4.55
474.824,786.168,1199.504,145.95,-273.56,0.63
382.104,736.392,1188.768,137.76,-268.66,2.38
292.312,739.808,1146.8,128.94,-262.01,4.2
408.456,845.216,1524.512,111.86,-254.17,27.79
515.816,166.408,1538.664,76.23,-246.75,133.63
276.208,406.016,1249.28,31.99,-245.21,180.81
-121.512,592.432,1198.528,2.03,-243.18,131.81
-260.104,436.272,963.312,-17.43,-236.32,52.57
-193.248,388.936,897.432,-30.24,-226.73,-19.39
-125.904,485.56,842.288,-37.03,-215.95,-68.46
-55.632,527.04,814.96,-39.48,-204.05,-88.48
29.768,553.392,804.224,-39.83,-191.73,-82.95
104.92,584.136,777.384,-39.13,-180.04,-60.41
188.368,589.504,746.64,-38.22,-169.68,-28.63
274.256,575.84,747.616,-37.24,-160.65,6.72
367.952,577.304,746.152,-35.84,-152.88,41.3
352.824,666.12,724.68,-33.32,-145.74,72.1
237.656,869.616,721.264,-28.35,-139.86,93.73
259.128,892.064,844.728,-20.51,-136.22,98.84
344.528,996.008,907.68,-11.27,-135.31,86.52
205.448,1259.04,917.44,-1.75,-136.36,59.5
-26.352,1189.744,1054.08,5.53,-138.88,14.91
-30.256,1183.4,1121.912,7.63,-142.94,-27.79
300.12,1100.44,1243.424,7.63,-149.59,-45.85
469.456,1004.792,1292.224,8.19,-155.89,-53.06
446.032,980.392,1283.928,11.06,-156.31,-58.52
468.48,983.808,1269.288,15.61,-150.57,-56.07
510.448,960.872,1273.68,20.23,-141.89,-48.93
558.272,888.648,1303.448,23.52,-132.51,-43.12
592.432,853.024,1304.912,24.99,-123.27,-39.41
602.192,850.584,1253.672,25.06,-114.45,-36.4
584.136,842.288,1189.256,24.57,-106.96,-34.09
507.52,835.456,1097.024,23.31,-101.43,-32.27
422.608,826.672,1027.728,21.98,-97.58,-30.52
363.56,782.264,958.92,21.0,-94.43,-30.38
338.672,764.208,855.464,20.23,-91.28,-32.9
366.488,714.92,772.504,19.95,-87.99,-35.0
287.92,587.552,769.088,19.18,-84.77,-31.92
285.48,532.408,801.296,17.5,-80.92,-24.08
252.784,513.864,752.496,15.33,-77.07,-15.19
210.816,523.136,700.768,13.44,-73.15,-7.84
201.544,577.792,653.92,12.18,-69.23,-3.29
239.608,666.608,636.84,12.04,-65.73,-0.07
238.144,680.272,635.864,13.16,-62.93,3.15
209.352,626.592,602.192,14.56,-60.48,7.21
173.728,617.808,559.736,15.89,-57.96,13.02
134.688,495.808,543.632,17.15,-55.16,20.79
30.744,293.288,551.44,16.87,-51.8,27.16
83.936,247.904,542.656,14.35,-48.09,27.37
198.128,319.152,522.648,10.85,-45.64,19.74
254.248,420.656,541.68,7.56,-45.01,6.58
182.512,430.904,565.592,4.83,-45.36,-9.59
178.608,484.584,541.68,2.24,-45.22,-26.18
126.392,514.84,489.464,0.14,-44.45,-40.53
123.464,503.616,452.864,-1.96,-42.56,-51.38
123.952,510.448,412.848,-4.41,-39.76,-58.94
161.04,540.216,366.976,-7.28,-36.33,-63.7
191.784,569.984,349.896,-10.22,-32.83,-65.52
187.88,636.84,333.304,-13.16,-29.4,-63.21
161.528,702.72,309.88,-15.68,-25.69,-56.91
170.8,767.136,315.736,-17.85,-21.98,-49.14
213.256,826.184,332.328,-19.53,-18.76,-43.26
204.96,890.112,334.768,-21.0,-16.66,-41.23
213.256,963.312,313.296,-21.91,-15.33,-41.79
225.456,1023.824,316.712,-22.12,-14.98,-43.47
195.688,1073.112,293.776,-21.77,-15.75,-45.78
141.52,1103.368,261.568,-21.0,-17.08,-49.42
110.288,1138.016,252.296,-20.16,-18.76,-53.9
109.8,1159.488,237.168,-19.25,-20.37,-58.24
108.824,1160.464,213.744,-18.62,-21.91,-61.11
123.952,1138.016,218.136,-18.69,-23.38,-61.67
151.28,1126.792,207.888,-19.46,-25.27,-59.78
145.424,1156.56,175.192,-20.58,-27.86,-56.49
143.96,1224.392,223.992,-21.35,-30.66,-53.9
131.272,1295.152,299.144,-21.56,-33.67,-53.83
94.672,1300.032,352.336,-21.49,-36.54,-53.83
60.024,1253.184,291.336,-21.77,-39.06,-56.7
21.96,1253.672,300.12,-22.96,-41.09,-61.53
-3.904,1293.688,298.656,-24.64,-42.49,-65.1
-8.296,1316.624,266.936,-26.04,-43.47,-66.99
-55.144,1326.384,248.392,-26.95,-44.31,-67.9
-61.488,1340.536,251.808,-27.44,-45.08,-68.04
-49.776,1336.144,258.64,-27.44,-46.2,-68.88
-50.264,1303.448,255.224,-27.3,-47.74,-70.91
-37.088,1278.56,248.392,-27.58,-49.49,-73.64
-10.248,1255.136,227.896,-28.14,-51.59,-75.6
-19.52,1205.36,204.472,-29.12,-53.83,-74.34
-13.664,1148.752,196.176,-30.59,-55.86,-68.18
-11.224,1096.536,185.44,-32.62,-57.68,-58.8
16.592,1088.24,139.568,-35.0,-59.78,-50.33
18.544,1072.624,91.256,-37.52,-62.58,-45.57
24.888,1055.544,47.824,-39.97,-65.87,-44.8
29.768,1042.856,1.952,-42.14,-69.37,-45.29
40.992,1012.112,-34.648,-43.96,-72.8,-43.47
100.04,1006.256,-41.968,-45.29,-76.44,-36.82
138.104,1019.432,-52.704,-45.92,-80.85,-25.76
193.248,1007.232,-70.76,-45.43,-85.96,-13.16
250.832,1003.328,-124.928,-44.31,-92.05,-3.36
297.192,1048.712,-159.088,-42.49,-99.19,2.1
353.8,1054.568,-180.072,-39.69,-107.1,3.5
435.296,1058.96,-197.152,-36.19,-115.85,1.75
490.44,1055.056,-190.808,-32.27,-125.3,1.26
584.136,1067.256,-166.408,-28.21,-135.31,7.14
600.728,1049.2,-145.912,-24.71,-146.09,18.27
655.384,1032.608,-160.064,-22.68,-157.08,28.56
611.952,1041.392,-168.848,-21.63,-168.35,34.65
570.96,1040.416,-191.784,-21.42,-179.41,36.61
557.296,1086.288,-168.848,-22.19,-190.68,36.33
541.192,1049.2,-175.68,-22.89,-204.12,22.96
479.216,1047.248,-179.096,-21.7,-219.73,-4.9
498.248,988.688,-185.928,-18.76,-235.41,-27.79
570.472,996.008,-198.616,-15.68,-250.39,-34.16
663.192,1017.48,-140.056,-13.09,-264.95,-27.44
800.32,1026.752,-0.976,-11.48,-279.79,-15.26
873.52,1037.0,147.864,-10.85,-295.4,-5.25
883.768,1049.2,241.56,-11.13,-311.29,-3.01
875.472,1025.288,263.52,-12.25,-326.62,-12.53
850.584,913.536,272.792,-14.49,-340.97,-32.69
852.048,860.344,266.448,-17.99,-353.5,-54.11
893.528,800.32,288.408,-22.12,-364.0,-71.05
907.68,767.624,309.88,-26.67,-372.68,-81.62
933.544,751.52,355.264,-31.5,-379.19,-81.62
937.448,715.896,393.328,-37.17,-383.6,-73.29
898.408,657.336,403.088,-44.52,-386.05,-67.83
837.408,620.736,386.496,-53.55,-386.12,-69.72
813.984,606.584,388.448,-63.42,-383.88,-75.32
828.624,631.472,406.016,-73.22,-379.75,-80.78
853.512,664.168,422.12,-82.25,-374.5,-82.25
819.84,623.664,436.76,-90.51,-368.48,-81.48
793.976,617.808,400.16,-98.56,-361.62,-84.49
817.888,555.344,378.2,-106.12,-354.41,-90.86
798.856,536.8,371.856,-113.19,-347.27,-96.25
870.104,554.368,373.808,-119.63,-339.85,-95.83
1040.416,573.4,386.008,-125.37,-333.62,-90.37
1179.984,570.96,388.448,-130.62,-329.63,-83.86
1240.496,556.32,380.64,-135.8,-327.53,-79.94
1258.064,551.44,358.68,-140.98,-326.55,-79.17
1317.112,574.376,350.384,-145.88,-325.99,-80.08
1413.248,616.344,315.736,-150.22,-325.92,-79.38
1522.56,677.832,324.032,-153.86,-325.99,-71.82
1711.904,733.464,230.824,-156.94,-326.2,-56.84
1880.264,745.176,150.304,-159.74,-326.97,-41.93
2028.128,788.12,33.672,-162.33,-328.37,-32.55
2140.368,799.344,-63.44,-164.01,-330.54,-29.47
2197.464,757.864,-169.824,-164.99,-333.55,-30.1
2189.656,727.608,-360.144,-165.41,-336.49,-27.09
2188.192,743.224,-616.832,-165.13,-338.24,-12.6
2162.328,820.816,-844.24,-163.94,-338.45,14.14
2083.76,1022.36,-1118.984,-161.07,-337.05,43.75
1962.248,1313.696,-1321.992,-154.84,-333.9,62.23
1903.2,1621.136,-1546.96,-143.36,-329.63,60.41
1858.304,1914.912,-1812.432,-125.79,-325.08,38.85
1640.168,2030.08,-2287.256,-102.48,-319.13,10.71
1400.072,2028.128,-2833.816,-76.02,-308.91,-11.2
1215.12,2234.064,-3333.528,-48.02,-293.09,-23.87
1004.792,2486.848,-3821.528,-16.73,-271.32,-27.23
1080.92,2798.192,-4166.544,18.34,-243.81,-23.1
1183.4,3151.992,-4575.488,57.68,-213.78,-14.56
1204.384,3533.608,-4949.296,102.2,-182.35,2.52
788.12,4479.352,-5216.232,153.65,-148.68,34.79
229.848,5786.704,-5103.504,218.68,-108.85,76.09
48.8,7152.128,-4683.336,301.98,-63.07,112.35
-316.224,8962.608,-4008.432,406.21,-13.65,149.8
-1007.232,11232.296,-3181.76,536.06,39.62,197.54
-2894.328,13805.521,-1993.968,696.64,98.28,264.25
-4794.6,15410.064,-124.928,886.76,164.5,334.53
-5635.424,15814.616,1675.304,1090.6,227.36,346.36
-6462.096,15770.208,3875.208,1286.6,283.99,261.52
-7833.864,13908.977,5530.016,1454.74,355.74,127.26
-4957.592,7835.816,7473.232,1549.73,459.13,34.44
877.912,403.576,-2848.944,901.88,363.86,1010.87
-3074.888,4216.808,-496.296,547.89,237.79,738.22
935.984,3768.336,3235.928,773.57,251.65,-457.87
-4394.928,6463.56,2616.656,1015.56,422.45,-1091.16
-2864.072,8326.744,1840.736,1140.44,689.64,-1021.86
-4691.144,5832.576,2907.504,1104.81,896.84,-607.67
-3353.536,4739.944,2180.872,1072.47,1005.62,-195.09
-3031.944,5035.184,1743.624,1066.66,1028.58,-27.72
-3074.4,4705.296,2203.32,1054.62,1019.27,-123.55
-2341.424,4182.16,2886.52,994.84,1027.74,-368.83
-1841.712,4006.48,3543.368,881.3,1063.09,-619.43
-966.24,4393.952,3811.768,724.29,1113.49,-779.45
-864.736,4183.624,3652.68,546.84,1154.72,-832.37
204.472,2810.88,2953.376,361.2,1173.69,-809.55
1191.208,1555.744,1739.72,174.09,1153.04,-728.84
1701.656,1212.68,1074.576,10.08,1096.48,-585.76
1976.888,1287.832,433.832,-114.8,1011.99,-466.27
2084.248,1412.76,-112.728,-209.79,907.76,-441.21
2079.368,870.592,-562.664,-294.56,787.78,-497.21
1869.04,1037.488,-1482.544,-374.71,656.67,-551.95
1615.768,1209.752,-1731.424,-436.24,524.37,-547.96
1506.944,1288.808,-2230.648,-471.45,398.58,-487.27
1369.816,1120.448,-2456.104,-481.46,285.88,-380.52
1044.32,809.592,-2446.832,-473.9,191.17,-244.58
752.496,644.16,-2437.072,-456.05,114.73,-115.43
345.992,702.72,-2243.824,-432.95,52.36,-21.91
-131.76,790.072,-2189.168,-406.42,1.47,32.13
-496.784,671.976,-2124.752,-379.19,-39.83,54.04
-820.816,768.112,-2052.04,-353.43,-72.94,59.22
-1146.8,944.28,-1986.16,-327.67,-97.93,60.9
-1282.464,1172.176,-1843.664,-301.07,-115.92,54.25
-1240.008,1333.704,-1650.904,-272.51,-131.04,30.38
-1156.072,1445.456,-1419.592,-242.06,-145.6,-1.54
-1115.568,1484.008,-1259.528,-210.07,-158.76,-26.39
-1040.416,1486.936,-1162.416,-178.01,-169.61,-41.09
-950.624,1529.88,-964.288,-146.93,-178.36,-51.03
-887.672,1677.744,-799.832,-116.41,-185.43,-56.84
-777.872,1729.96,-731.024,-85.75,-191.17,-59.99
-536.8,1671.888,-554.856,-56.0,-196.91,-65.52
-370.392,1621.624,-382.104,-27.86,-203.91,-69.51
-387.472,1599.176,-270.352,-1.19,-210.7,-64.89
-395.768,1551.84,-175.192,23.87,-215.6,-49.49
-398.208,1455.704,-122.976,46.27,-219.24,-30.87
-369.416,1367.376,-49.776,65.24,-222.18,-15.33
-342.576,1365.912,35.136,81.13,-224.91,-3.64
-406.992,1405.44,109.8,94.85,-227.08,5.53
-434.808,1452.776,173.24,107.38,-228.2,9.59
-361.12,1510.848,334.768,119.49,-229.39,1.05
-373.32,1557.208,409.432,133.0,-231.98,-25.55
-336.72,1424.472,417.728,147.98,-234.71,-61.32
-221.064,1279.048,463.6,161.98,-236.04,-89.74
-118.584,1249.28,537.288,173.95,-235.76,-101.57
-34.16,1242.448,590.968,183.96,-234.01,-95.06
52.216,1242.448,648.552,192.08,-231.7,-76.51
136.64,1231.224,661.728,198.17,-230.16,-56.7
219.112,1177.056,696.376,202.3,-230.02,-44.31
260.104,1059.448,724.68,204.61,-231.21,-41.86
296.704,980.88,751.032,204.89,-232.89,-47.39
326.96,928.176,808.616,204.12,-234.57,-55.86
401.136,963.8,858.88,203.35,-236.11,-63.98
452.864,1053.592,941.84,203.21,-237.65,-68.88
479.704,1115.08,989.176,204.05,-238.98,-68.67
488.0,1011.136,1033.584,205.31,-239.96,-63.56
479.704,817.4,1131.184,204.61,-240.52,-55.44
463.6,691.496,1215.608,201.39,-240.66,-45.64
438.224,569.008,1288.32,196.0,-240.45,-34.65
414.8,539.24,1362.008,189.0,-239.61,-24.01
395.768,608.536,1393.24,181.44,-238.35,-13.16
362.096,693.936,1416.664,174.37,-236.6,0.42
279.624,666.608,1401.536,167.37,-234.22,15.4
183.0,571.936,1382.504,159.32,-230.93,27.37
119.56,511.424,1377.136,150.01,-226.66,33.6
30.256,495.808,1322.48,140.28,-221.34,34.86
-99.552,492.88,1318.576,131.04,-214.69,34.44
-287.432,568.52,1372.744,121.31,-206.78,28.35
-194.224,873.032,1656.272,105.42,-199.22,36.33
-108.824,547.536,1504.992,79.94,-193.9,91.63
-150.792,618.784,1180.96,53.62,-192.43,98.7
-300.12,745.664,1269.776,39.83,-188.58,56.7
-287.92,858.392,1166.808,34.44,-181.72,-0.91
-114.68,914.024,1152.656,34.86,-174.02,-52.36
-14.152,1002.84,1222.44,39.13,-165.97,-87.5
66.368,1054.568,1238.544,45.85,-157.36,-105.7
127.856,1116.544,1204.872,53.9,-148.26,-110.25
57.584,1140.944,1201.456,62.86,-139.79,-104.72
80.032,1281.488,1137.04,72.03,-132.65,-95.69
-50.752,1229.272,1118.984,80.64,-128.38,-87.71
-84.424,1207.8,1134.6,85.54,-125.16,-80.36
-60.512,1128.744,1091.656,86.94,-123.9,-72.45
29.768,1079.456,1016.992,85.89,-124.18,-64.05
125.904,1036.512,948.672,83.79,-124.32,-56.07
180.56,1009.672,894.016,81.06,-122.92,-50.61
202.52,999.424,885.232,77.77,-119.63,-46.13
236.68,988.688,905.24,74.13,-114.94,-42.28
260.592,976.488,855.464,70.28,-110.46,-41.3
253.272,998.936,750.056,66.36,-106.61,-42.07
225.944,962.824,743.224,62.65,-103.53,-40.95
193.736,876.448,782.264,58.38,-101.01,-36.05
179.584,806.664,770.552,52.99,-98.98,-29.47
181.536,745.176,725.656,46.62,-97.65,-24.08
207.4,705.648,669.536,39.69,-96.81,-20.58
212.28,660.752,655.384,32.41,-96.18,-17.22
228.872,613.904,660.752,24.5,-95.27,-12.32
249.368,579.256,647.576,16.03,-93.8,-6.51
238.632,610.0,606.096,7.49,-91.84,-1.54
173.24,633.424,567.056,-0.35,-89.53,1.19
171.776,594.872,540.216,-7.35,-86.73,0.28
191.296,563.64,517.28,-13.86,-84.28,-4.2
198.616,515.328,482.144,-20.02,-82.6,-10.36
223.016,531.432,441.64,-25.76,-81.27,-15.68
234.24,535.824,400.648,-30.66,-80.01,-17.92
180.072,489.952,392.84,-34.65,-78.19,-16.31
102.968,447.984,376.736,-38.29,-75.32,-12.32
95.16,420.656,363.072,-41.86,-71.54,-7.7
147.376,468.968,336.72,-45.15,-67.55,-3.15
72.712,516.792,386.984,-47.74,-63.91,0.21
212.768,533.384,494.344,-49.7,-60.27,0.98
230.336,734.928,532.408,-50.61,-58.24,-3.92
179.584,723.704,496.296,-49.49,-57.05,-16.59
117.608,637.328,434.808,-48.37,-55.86,-33.39
101.504,663.68,417.728,-48.23,-54.46,-49.7
143.96,703.208,389.424,-48.37,-52.99,-62.79
172.752,713.456,327.448,-48.65,-51.8,-71.12
199.592,742.736,310.856,-49.35,-50.82,-74.9
268.4,832.528,326.472,-50.12,-50.4,-75.6
368.44,919.88,340.136,-50.19,-51.1,-74.55
408.944,974.536,366.488,-49.14,-53.13,-71.96
376.248,1015.04,419.192,-47.04,-56.21,-66.78
379.176,1179.984,412.36,-43.82,-59.92,-59.22
321.592,1154.608,434.808,-38.08,-64.33,-47.81
274.744,1150.216,511.912,-32.13,-68.74,-32.9
325.008,1258.064,593.896,-25.97,-73.57,-19.11
313.296,1302.96,662.216,-18.9,-79.1,-7.35
306.952,1367.376,714.92,-11.2,-84.63,3.99
253.272,1425.448,735.904,-3.01,-89.74,15.89
118.096,1454.728,757.376,5.81,-94.01,25.69
-55.144,1470.344,780.8,15.05,-96.18,30.38
-81.008,1296.616,787.144,23.8,-95.69,31.22
-139.08,1291.248,744.688,30.24,-93.38,30.1
-141.52,1166.808,681.248,35.07,-89.67,25.2
-146.4,898.408,572.424,36.61,-85.33,16.38
-218.624,839.848,488.0,33.74,-80.71,6.23
-255.712,919.392,485.56,28.84,-75.18,-3.29
-297.68,922.808,513.376,23.8,-68.6,-11.41
-284.992,971.608,528.992,18.69,-61.11,-19.81
-300.12,988.688,522.16,13.86,-53.48,-29.26
-306.464,971.608,503.128,9.31,-45.99,-40.32
-283.04,932.08,462.624,4.34,-39.48,-53.83
-273.768,976.488,411.384,-1.19,-34.23,-67.34
-233.264,997.96,404.552,-6.3,-30.03,-77.63
-201.544,1033.584,388.448,-11.06,-26.81,-84.42
2.44,1121.424,467.992,-14.91,-25.27,-88.55
-90.768,937.448,520.696,-18.27,-25.69,-84.35
-81.008,996.496,460.672,-22.61,-26.25,-73.01
-106.384,1017.48,377.712,-25.97,-27.44,-60.48
-139.08,1018.944,365.512,-28.21,-28.91,-48.51
-118.584,1035.048,347.944,-29.75,-30.87,-38.22
-136.64,994.544,340.624,-30.8,-33.53,-31.15
-140.056,992.104,341.6,-31.92,-36.75,-28.98
65.88,1068.72,363.56,-32.62,-41.09,-32.97
52.704,1032.608,303.048,-32.62,-47.88,-40.81
78.08,1014.064,248.392,-32.55,-55.09,-46.9
136.152,972.584,240.096,-32.27,-61.95,-46.13
176.168,905.728,233.752,-32.06,-68.25,-37.24
248.392,856.928,162.016,-32.48,-74.13,-23.24
292.312,800.808,114.68,-33.74,-80.57,-7.35
272.792,770.552,64.904,-35.98,-87.5,9.73
254.736,755.424,15.128,-38.92,-94.71,25.9
221.552,793.0,-9.76,-42.21,-102.06,38.99
261.08,787.144,2.928,-45.36,-109.27,47.32
183.976,847.656,-90.768,-48.79,-116.27,51.52
81.496,832.528,-58.072,-52.08,-122.64,49.42
99.064,908.656,-111.752,-54.88,-128.52,39.62
-0.488,959.896,-165.432,-56.56,-134.33,26.74
33.184,972.096,-174.216,-58.17,-139.93,15.89
-39.04,1113.616,-184.952,-58.1,-147.42,-4.48
-33.184,1204.872,-157.624,-53.06,-156.17,-35.7
57.096,1250.744,-113.704,-44.24,-165.2,-60.55
142.496,1273.68,-75.152,-33.53,-174.09,-68.67
221.064,1290.272,-1.952,-22.4,-182.49,-63.07
296.704,1283.44,67.344,-11.9,-190.96,-53.69
383.08,1301.496,159.088,-2.45,-199.92,-48.37
464.088,1293.2,219.112,5.95,-209.65,-49.77
509.96,1228.784,257.664,12.95,-219.52,-54.88
544.608,1141.92,269.376,17.99,-228.83,-58.73
600.728,1049.688,269.864,20.65,-237.09,-59.71
615.368,1011.136,260.592,20.93,-244.44,-57.54
622.688,960.384,244.0,19.67,-250.46,-52.43
597.8,939.888,263.032,17.08,-255.22,-45.64
590.48,951.112,275.232,13.65,-258.65,-39.69
588.04,974.048,279.624,9.87,-261.03,-39.9
576.816,955.992,264.496,5.81,-262.64,-49.35
564.128,970.144,237.168,1.61,-262.85,-62.44
605.12,967.216,230.824,-2.03,-261.73,-71.68
641.72,955.504,231.312,-5.18,-259.77,-75.39
682.712,938.424,214.72,-8.19,-257.53,-74.48
702.232,910.608,189.344,-11.34,-255.29,-71.26
669.048,872.544,168.36,-14.98,-252.84,-67.48
649.528,836.92,199.104,-19.25,-249.9,-64.26
633.424,821.792,198.616,-23.87,-246.54,-62.44
659.288,801.784,206.424,-28.42,-243.18,-63.07
639.768,763.232,171.288,-32.97,-240.1,-65.87
617.32,733.952,154.696,-37.87,-237.02,-68.81
614.392,696.864,143.472,-43.12,-233.8,-72.24
593.408,674.904,122.976,-48.51,-230.86,-77.07
603.656,658.8,121.024,-53.83,-228.13,-82.39
664.656,651.48,119.072,-58.73,-226.1,-88.76
728.584,630.984,103.944,-63.21,-225.19,-96.46
765.184,628.056,91.744,-67.48,-224.77,-100.03
783.728,606.096,106.384,-71.47,-224.28,-96.6
772.016,617.808,144.936,-75.53,-223.58,-88.62
754.448,634.4,156.16,-79.66,-222.81,-81.62
772.504,662.216,141.52,-83.72,-222.18,-80.15
831.064,700.28,116.632,-87.15,-221.83,-82.53
915.0,737.368,102.48,-90.23,-221.97,-84.84
1019.92,761.28,44.408,-93.03,-222.53,-88.34
1120.448,777.384,29.28,-95.41,-223.58,-94.64
1215.608,772.016,32.696,-97.37,-224.98,-101.43
1339.072,787.144,-40.504,-98.77,-226.59,-105.84
1500.6,784.704,-63.44,-99.54,-228.55,-103.6
1687.504,784.704,-124.928,-100.03,-231.35,-91.7
1837.32,748.104,-215.696,-100.66,-235.34,-72.31
1889.048,671.976,-283.04,-101.92,-240.45,-51.8
1845.128,649.04,-391.376,-103.95,-245.98,-36.61
1781.2,687.104,-504.592,-105.77,-251.23,-30.52
1769.976,821.304,-616.832,-106.12,-256.34,-35.14
1825.608,973.56,-783.728,-103.81,-261.8,-48.23
1925.16,1125.816,-855.952,-98.42,-267.61,-60.34
2009.096,1267.824,-963.312,-90.16,-273.21,-59.71
1941.752,1362.008,-1231.712,-79.94,-277.34,-43.4
1709.952,1403.976,-1643.584,-69.23,-277.76,-13.16
1574.776,1525.0,-2033.008,-58.8,-272.93,21.7
1629.92,1707.512,-2324.832,-47.74,-265.3,43.47
1673.84,2001.288,-2685.464,-34.3,-257.53,42.98
1662.616,2220.4,-3042.192,-16.87,-249.48,29.4
1540.128,2432.192,-3383.792,4.76,-239.61,14.98
1223.904,2713.768,-3627.304,30.94,-226.03,5.74
801.296,2924.584,-3791.272,62.37,-206.57,3.5
340.624,3245.688,-3910.832,99.19,-179.69,13.23
139.08,3687.328,-3688.304,142.59,-145.88,36.47
190.32,4120.672,-3560.936,193.55,-109.62,61.6
69.784,4635.512,-3516.528,252.7,-73.92,82.53
-427.976,5618.344,-3511.16,321.93,-36.75,105.56
-1221.464,6733.424,-3439.424,406.49,7.14,125.37
-1279.048,7939.272,-3167.608,507.29,58.24,120.54
-1744.112,9054.84,-2786.968,624.33,113.12,103.39
-2085.224,10173.824,-1805.112,755.51,173.88,116.48
-2343.864,10881.912,-806.664,897.26,232.19,149.73
-3052.44,11710.048,266.448,1043.0,281.89,191.8
-4020.632,12351.769,1315.16,1188.95,322.56,233.31
-4962.472,11976.008,1883.68,1326.71,355.46,247.1
-5287.968,11213.752,2533.208,1442.35,385.07,212.45
2281.888,-4065.528,1413.248,1006.67,271.32,949.62
1678.232,699.304,-4001.112,437.08,47.67,1401.05
-1348.344,4415.912,1666.52,651.98,-48.37,356.51
408.456,6235.176,-151.28,956.06,-33.88,-497.07
-1584.536,5369.952,14.64,1026.34,85.26,-688.31
-580.72,6400.608,-1355.664,1041.81,227.5,-477.96
468.48,5060.072,-1284.904,1030.61,326.41,-131.88
-419.68,4229.496,-1530.856,1005.48,352.94,85.54
-281.088,3595.584,-1591.856,966.56,356.93,55.86
-1147.776,2977.776,-1153.632,905.17,372.96,-157.78
-655.384,2960.208,-796.904,819.14,420.7,-407.4
-459.696,2690.344,-212.768,715.33,484.82,-563.01
-20.008,2193.56,40.016,602.0,544.39,-577.15
549.976,1861.72,177.632,491.05,580.65,-492.17
813.008,1614.792,228.872,394.73,587.79,-360.99
1171.2,1423.496,44.896,316.75,571.06,-224.77
1124.352,1258.552,-272.792,255.99,536.83,-102.41
1007.232,1550.864,-476.776,210.07,494.62,3.78
815.936,1808.04,-601.216,178.71,449.54,86.73
-0.488,1983.72,-777.384,157.99,407.4,150.36
-1041.88,2052.528,-816.424,144.55,376.11,206.99
-1539.64,2283.352,-781.776,136.43,356.51,244.44
-1630.896,2367.288,-717.848,132.3,341.46,245.35
-1606.496,2273.592,-738.344,127.75,327.11,211.75
-1545.496,2050.088,-711.016,119.42,312.97,164.57
-1589.416,1743.624,-664.168,106.19,299.95,127.33
-1621.136,1584.048,-556.32,88.83,289.17,108.5
-1579.656,1470.344,-478.728,70.21,279.79,100.87
-1454.728,1453.752,-516.304,51.45,270.13,91.7
-1345.416,1440.088,-558.272,33.46,259.07,78.54
-938.424,1367.376,-597.8,15.82,245.28,57.75
-641.72,1348.832,-606.584,-1.96,225.89,35.07
-357.216,1386.896,-562.176,-18.34,201.88,25.34
-196.664,1478.152,-481.656,-31.78,173.81,23.45
-183.0,1678.232,-371.368,-41.16,143.64,20.51
-228.384,1874.408,-307.928,-45.64,113.68,10.71
-96.136,1958.832,-281.576,-45.85,84.42,-9.59
-67.344,2141.344,-215.208,-42.77,55.37,-26.67
-74.664,2186.24,-111.264,-36.4,27.72,-25.34
-85.888,2140.856,-67.832,-27.93,1.61,-14.84
-155.672,2056.92,8.784,-18.9,-23.59,-7.0
-216.672,2045.208,144.448,-9.8,-47.6,-5.6
-208.376,1988.6,207.4,-0.21,-70.7,-18.62
-97.112,1913.936,238.632,9.52,-93.17,-44.59
-66.856,1949.072,305.976,19.53,-114.73,-65.73
-27.328,1844.152,358.192,30.24,-134.4,-70.98
-9.272,1730.448,372.832,39.9,-152.04,-69.79
24.888,1754.36,418.704,48.44,-167.58,-70.91
108.336,1723.128,488.0,56.98,-181.58,-80.78
176.656,1732.4,518.256,65.87,-194.32,-103.25
311.344,1746.064,563.64,75.88,-205.52,-133.77
406.992,1691.896,646.112,87.22,-215.6,-163.03
449.448,1522.56,707.6,98.84,-224.0,-184.45
512.4,1407.392,747.128,109.62,-230.23,-196.91
559.736,1329.8,771.04,119.77,-234.43,-201.25
594.384,1322.48,785.192,129.5,-236.88,-199.22
681.248,1408.856,811.544,139.44,-237.86,-193.34
844.24,1533.784,929.152,150.5,-238.56,-185.08
935.984,1544.52,1052.616,162.33,-239.96,-174.93
917.44,1405.44,1106.296,173.39,-241.36,-164.85
842.288,1188.28,1134.6,181.79,-241.64,-155.4
760.304,963.312,1188.28,186.69,-240.31,-145.53
663.192,799.344,1196.576,187.88,-237.44,-135.59
551.44,753.96,1188.768,186.13,-233.17,-127.54
473.848,824.72,1204.384,182.7,-227.36,-121.17
467.992,998.936,1247.816,177.52,-220.43,-113.47
374.784,638.304,1254.648,168.63,-213.01,-89.39
214.72,514.84,1268.8,153.16,-206.36,-63.84
188.856,484.096,1172.664,134.68,-200.76,-43.47
118.584,386.496,1202.92,114.17,-195.58,-33.67
109.312,425.536,1188.28,93.24,-190.33,-32.2
69.784,543.144,1234.64,74.62,-185.08,-42.35
58.56,638.304,1233.176,59.08,-179.27,-54.67
63.44,697.84,1165.344,45.78,-173.32,-63.91
51.24,717.848,1099.464,34.44,-167.3,-70.14
49.776,752.984,1049.2,24.71,-161.21,-74.62
14.64,821.792,989.664,17.01,-155.05,-78.68
21.96,917.928,925.736,11.83,-148.4,-82.32
38.064,962.336,869.128,9.17,-141.68,-85.47
64.416,964.288,847.656,7.91,-135.17,-87.78
109.312,980.88,837.408,7.42,-129.5,-89.67
191.784,1033.096,924.272,8.05,-125.44,-90.79
258.152,1119.472,849.608,10.01,-122.92,-90.72
273.28,1162.904,895.968,13.44,-121.73,-90.09
239.608,1185.352,1018.456,17.57,-121.8,-85.12
256.2,1164.856,1064.328,22.05,-122.99,-74.13
247.904,1111.176,1084.336,25.97,-124.74,-59.99
218.624,1050.176,1083.36,29.12,-126.0,-44.73
211.304,989.176,1048.224,31.57,-126.14,-29.26
244.976,922.32,1034.072,33.11,-124.6,-14.07
203.008,884.744,1005.768,33.04,-121.45,1.12
156.648,828.136,982.344,31.36,-117.32,11.62
121.512,817.888,965.264,28.42,-112.77,12.32
96.136,801.296,923.296,25.62,-107.66,6.3
69.784,763.72,887.672,22.89,-101.92,-3.15
56.608,729.56,845.704,20.09,-95.83,-12.95
58.56,707.6,809.104,17.22,-89.53,-20.09
50.264,701.744,807.152,14.42,-83.23,-22.19
43.92,710.04,805.2,11.97,-76.93,-19.6
35.624,698.328,796.416,9.73,-70.49,-14.35
31.232,694.912,779.336,7.49,-64.05,-8.26
9.76,680.76,759.328,4.83,-57.68,-2.66
11.224,681.736,738.344,1.82,-51.52,1.26
13.664,681.248,709.064,-1.19,-45.71,2.8
7.808,688.568,691.984,-3.85,-40.11,1.54
12.688,686.616,672.464,-6.51,-34.72,-2.45
27.328,677.832,647.576,-9.03,-29.82,-8.4
37.088,656.848,631.472,-11.55,-25.62,-15.12
45.384,646.112,600.24,-14.07,-21.77,-20.86
55.632,646.6,579.256,-16.45,-18.34,-24.57
63.928,650.504,562.176,-18.41,-15.26,-26.32
59.536,667.584,552.904,-20.02,-12.67,-26.39
40.992,688.08,540.216,-21.0,-10.36,-25.2
23.912,697.84,522.16,-21.42,-8.4,-23.66
28.304,712.968,483.608,-21.42,-6.79,-23.1
35.624,714.92,469.456,-20.79,-5.74,-23.8
52.704,758.84,479.216,-19.67,-5.11,-25.2
55.632,791.048,484.584,-17.64,-4.9,-27.16
50.264,819.352,488.488,-15.05,-4.69,-29.68
49.288,856.44,504.104,-12.18,-4.55,-32.48
50.264,874.008,521.672,-9.17,-4.2,-35.56
57.096,880.84,522.648,-6.3,-3.85,-38.92
57.584,876.936,511.912,-3.78,-3.57,-41.93
59.048,893.04,514.84,-1.4,-3.43,-43.89
61.0,895.48,529.968,0.77,-3.5,-44.73
67.344,910.608,529.48,2.8,-3.71,-44.38
70.76,915.0,528.992,4.62,-4.2,-42.28
66.368,919.392,533.872,6.02,-4.76,-38.08
61.976,900.848,526.552,6.93,-5.32,-32.9
69.784,902.312,513.864,7.14,-5.88,-28.14
60.024,873.032,514.352,6.51,-6.23,-24.85
53.68,854.488,501.664,4.9,-6.16,-23.1
52.216,855.952,471.896,2.38,-5.88,-22.61
45.384,841.312,441.64,-0.56,-5.18,-23.73
39.528,834.48,442.616,-3.85,-4.06,-25.27
26.352,841.8,447.496,-7.28,-2.45,-26.32
19.032,858.88,453.352,-10.43,-0.35,-27.02
6.832,889.624,452.864,-13.09,1.96,-28.28
-20.984,922.808,469.944,-15.12,4.55,-28.84
-31.232,948.184,501.176,-16.17,7.35,-27.79
-40.992,971.12,530.944,-16.45,10.15,-25.69
-58.072,968.192,549.488,-15.96,13.02,-22.89
-78.568,966.728,553.88,-15.12,15.96,-19.74
-87.352,953.064,558.272,-13.93,18.9,-17.29
-91.256,934.52,572.912,-12.46,21.63,-16.17
-98.576,929.152,582.184,-10.85,23.94,-16.59
-124.928,920.368,582.672,-8.82,25.83,-17.78
-149.816,920.368,582.672,-6.44,27.44,-19.04
-165.432,891.576,582.184,-3.85,28.7,-20.02
-162.016,868.64,589.016,-1.19,29.54,-21.42
-156.648,847.656,590.968,1.26,29.75,-22.75
-165.432,804.712,575.352,3.36,29.33,-23.24
-172.264,772.016,548.512,4.83,28.77,-22.12
-175.192,747.128,525.576,5.88,28.21,-19.18
-191.784,709.552,511.424,6.44,27.65,-13.86
-212.28,694.912,497.272,6.79,27.44,-6.51
-229.36,683.688,479.704,6.86,27.44,1.89
-233.752,682.224,448.472,6.79,27.72,9.31
-248.392,689.544,415.776,6.72,28.14,13.93
-259.616,696.376,404.064,6.51,28.77,15.54
-272.792,710.04,408.944,6.37,29.61,14.84
-281.088,720.288,409.92,6.16,30.59,12.67
-288.408,748.592,418.704,6.09,31.5,10.43
-296.704,777.384,433.344,6.02,32.41,9.24
-300.608,801.296,427.976,5.95,33.25,9.87
-300.608,825.208,428.952,5.88,34.16,11.55
-295.24,871.08,424.56,6.09,35.14,12.46
-299.144,913.048,427.0,6.65,36.12,12.53
-296.704,956.48,447.008,7.56,37.17,12.67
-291.336,1011.136,463.112,8.89,38.15,13.02
-290.848,1046.272,473.848,10.64,38.92,13.3
-295.24,1046.272,474.336,12.32,39.41,13.16
-284.016,1026.752,461.648,13.65,39.55,12.11
-273.28,995.52,436.272,14.28,39.34,10.36
-267.424,954.528,411.384,14.0,38.64,7.91
-254.248,921.344,381.616,12.88,37.66,5.11
-237.656,887.672,366.0,10.99,36.33,2.52
-233.264,863.272,354.288,8.61,34.86,1.12
-221.552,848.144,343.064,5.88,33.25,1.19
-218.624,818.864,321.104,3.08,31.64,2.24
-215.208,798.856,310.856,0.07,29.96,4.06
-217.648,792.024,306.464,-2.8,28.35,6.37
-221.064,794.952,304.024,-5.32,26.81,9.1
-228.872,801.296,312.808,-7.28,25.27,12.04
-239.608,804.224,318.664,-8.61,23.94,14.63
-247.904,804.712,313.296,-9.45,22.68,16.1
-250.832,804.712,312.808,-10.01,21.49,16.38
-253.76,806.176,311.344,-10.22,20.37,15.96
-256.688,810.568,315.736,-10.22,19.32,15.4
-262.056,817.888,325.984,-9.87,18.34,15.26
-256.688,827.16,340.136,-9.24,17.57,15.68
-249.856,827.648,349.408,-8.4,16.73,16.87
-250.344,834.968,362.096,-7.49,15.82,18.69
-255.224,833.016,366.488,-6.65,15.05,20.72
-254.736,838.872,367.464,-5.95,14.35,22.26
-254.248,842.288,370.392,-5.39,13.65,23.03
-257.176,844.24,381.128,-4.83,13.02,23.24
-254.248,855.952,394.304,-4.48,12.46,23.52
-258.152,872.544,407.48,-3.99,11.9,23.8
-270.84,858.88,407.48,-3.78,11.55,23.03
-277.184,853.512,406.992,-3.99,11.41,21.14
-273.768,850.096,412.36,-4.62,11.41,19.18
-267.424,850.096,415.288,-5.6,11.48,18.06
-264.984,855.464,428.464,-6.79,11.69,18.48
-266.448,869.616,441.152,-8.19,11.97,20.16
-269.376,889.136,450.912,-9.66,12.32,22.26
-271.328,908.656,458.72,-10.99,12.74,23.66
-277.672,924.272,461.648,-12.32,13.16,23.73
-272.792,934.032,461.16,-13.65,13.58,22.33
-269.376,951.6,460.184,-15.05,14.07,19.81
-268.4,959.896,468.48,-16.38,14.56,16.94
-265.96,972.096,466.04,-17.64,15.26,14.0
