acc_x[mg],acc_y[mg],acc_z[mg],gyro_x[dps],gyro_y[dps],gyro_z[dps]
-992.000,-48.000,139.000,-0.630,-0.910,-1.190
-1036.290,-50.320,142.213,-1.134,-1.062,-1.553
-945.186,-44.663,129.511,-1.560,-1.126,-1.550
-1040.060,-55.330,143.841,-2.235,-1.238,-1.721
-952.314,-58.248,131.424,-2.725,-1.135,-1.812
-1017.214,-64.538,140.926,-2.605,-1.116,-2.037
-973.892,-65.715,134.746,-2.029,-1.139,-2.002
-990.567,-66.181,137.696,-1.587,-1.265,-1.960
-993.660,-68.813,138.489,-1.348,-1.198,-1.781
-980.813,-71.465,137.474,-1.105,-1.183,-1.339
-1001.477,-72.809,140.857,-0.843,-1.126,-1.070
-975.920,-73.716,137.406,-0.393,-0.951,-0.823
-998.067,-72.985,142.249,0.211,-0.870,-0.602
-979.424,-68.942,139.688,0.660,-0.731,-0.322
-990.655,-67.913,140.433,0.673,-0.699,-0.031
-988.000,-67.000,139.000,0.420,-0.630,0.210
-986.900,-68.741,136.717,0.340,-0.617,0.407
-995.101,-67.514,138.253,0.453,-0.692,0.458
-983.588,-63.365,137.867,0.523,-0.728,0.618
-994.693,-63.156,140.296,0.404,-0.817,0.749
-987.345,-62.899,139.183,0.205,-0.856,0.791
-991.521,-64.611,139.461,0.036,-1.041,0.842
-986.258,-65.934,140.950,0.010,-1.271,0.762
-989.938,-62.404,137.378,0.378,-1.328,0.701
-995.857,-57.689,135.250,0.864,-1.377,0.702
-989.072,-55.946,140.366,0.767,-1.522,0.666
-991.827,-56.989,142.282,0.202,-1.768,0.555
-989.874,-61.201,139.370,-0.044,-1.964,0.440
-991.380,-64.856,134.410,0.169,-2.050,0.297
-988.399,-67.401,134.814,0.650,-2.110,0.115
-990.000,-68.000,141.000,1.330,-2.170,0.000
-992.260,-63.728,139.217,2.012,-2.172,-0.068
-990.472,-59.444,142.159,2.383,-2.205,-0.031
-988.924,-54.214,145.205,2.200,-2.291,0.081
-990.460,-50.303,143.151,1.858,-2.086,0.199
-993.404,-48.160,144.138,1.541,-1.812,0.170
-991.594,-46.936,139.652,1.089,-1.733,-0.064
-993.185,-46.946,138.179,0.829,-1.600,-0.377
-994.079,-46.001,140.929,0.651,-1.602,-0.743
-993.210,-46.887,140.336,0.341,-1.681,-1.055
-992.225,-46.344,139.123,0.161,-1.667,-1.350
-991.713,-46.331,139.428,0.131,-1.723,-1.658
-992.247,-47.002,139.710,0.164,-1.764,-1.963
-994.751,-45.527,137.490,0.220,-1.868,-2.252
-994.664,-44.974,140.953,0.105,-2.057,-2.486
-992.000,-45.000,145.000,-0.210,-2.170,-2.730
-991.080,-46.585,143.230,-0.516,-2.176,-2.971
-991.270,-49.821,142.429,-0.814,-2.155,-3.226
-993.760,-53.520,140.406,-1.096,-2.246,-3.383
-991.847,-57.040,140.911,-1.288,-2.379,-3.509
-987.746,-64.198,144.034,-1.451,-2.487,-3.722
-988.221,-69.322,145.027,-1.327,-2.515,-3.882
-989.097,-65.591,143.847,-0.710,-2.442,-3.995
-990.910,-62.097,142.902,0.030,-2.321,-3.934
-990.393,-62.415,145.473,0.159,-2.232,-3.744
-989.065,-66.170,146.312,-0.365,-2.336,-3.618
-987.612,-70.372,145.415,-0.739,-2.377,-3.487
-984.637,-73.308,144.787,-0.727,-2.244,-3.398
-985.625,-75.438,147.266,-0.457,-2.138,-3.337
-987.023,-76.118,151.376,-0.188,-2.012,-3.187
-986.000,-77.000,151.000,-0.280,-1.960,-2.870
-985.775,-76.899,149.331,-0.535,-1.856,-2.501
-987.687,-79.043,146.643,-0.554,-1.597,-2.189
-986.959,-80.793,146.061,-0.280,-1.487,-1.943
-985.330,-78.277,147.834,-0.004,-1.421,-1.850
-988.313,-74.378,147.859,0.231,-1.274,-1.640
-989.756,-70.175,148.145,0.349,-1.166,-1.345
-986.773,-69.036,149.085,0.112,-1.041,-1.177
-985.908,-69.935,149.980,-0.316,-0.981,-0.990
-987.655,-70.804,149.377,-0.710,-0.937,-0.970
-988.119,-71.210,147.137,-0.848,-0.804,-0.926
-987.130,-70.413,144.594,-0.827,-0.757,-0.697
-986.973,-69.785,146.713,-0.870,-0.788,-0.607
-988.385,-70.382,150.846,-1.076,-0.871,-0.530
-989.034,-72.232,149.478,-1.540,-0.902,-0.495
-989.000,-72.000,146.000,-1.680,-0.770,-0.560
-987.383,-71.007,144.932,-1.266,-0.700,-0.617
-985.719,-70.636,145.736,-0.854,-0.706,-0.699
-987.540,-67.914,146.570,-0.652,-0.665,-0.628
-989.903,-67.051,147.001,-0.655,-0.585,-0.521
-991.215,-68.391,145.114,-0.705,-0.570,-0.619
-990.480,-67.639,145.522,-0.594,-0.645,-0.818
-987.862,-65.885,148.121,-0.488,-0.624,-0.988
-987.897,-65.842,148.924,-0.609,-0.562,-0.985
-989.547,-69.224,149.420,-1.007,-0.558,-0.962
-990.963,-71.029,146.130,-1.418,-0.563,-1.074
-989.083,-71.785,144.931,-1.403,-0.534,-1.188
-985.454,-76.233,146.469,-1.128,-0.449,-1.328
-986.945,-77.888,145.631,-0.779,-0.427,-1.410
-990.390,-75.570,144.891,-0.182,-0.504,-1.399
-991.000,-73.000,144.000,0.280,-0.560,-1.400
-989.359,-72.736,144.681,0.413,-0.555,-1.396
-986.691,-74.658,147.246,0.360,-0.654,-1.455
-985.598,-75.442,148.325,0.040,-0.740,-1.446
-988.777,-76.781,144.461,-0.064,-0.635,-1.367
-989.365,-76.520,143.702,0.156,-0.673,-1.440
-987.908,-74.557,147.578,0.197,-0.782,-1.458
-989.031,-72.894,145.723,0.054,-0.768,-1.399
-987.173,-72.878,143.972,-0.251,-0.769,-1.403
-987.976,-74.718,144.196,-0.587,-0.810,-1.336
-990.792,-75.975,143.512,-0.657,-0.988,-1.377
-986.863,-79.022,145.617,-0.598,-1.075,-1.337
-987.005,-79.769,147.419,-0.707,-1.049,-1.068
-990.459,-78.933,146.664,-0.874,-1.159,-0.958
-988.668,-78.863,145.887,-0.821,-1.183,-0.814
-989.000,-77.000,145.000,-0.700,-1.120,-0.770
-989.311,-75.349,146.469,-0.631,-1.112,-0.786
-986.661,-72.597,149.146,-0.741,-1.215,-0.692
-984.915,-72.109,147.146,-1.131,-1.326,-0.736
-985.547,-74.228,145.375,-1.530,-1.320,-0.607
-989.593,-77.304,144.500,-1.702,-1.350,-0.588
-992.088,-78.881,144.221,-1.451,-1.420,-0.611
-990.897,-75.718,146.115,-1.101,-1.551,-0.486
-990.066,-73.158,147.732,-0.981,-1.612,-0.493
-988.493,-70.589,152.992,-1.147,-1.600,-0.419
-986.700,-69.396,153.300,-1.808,-1.633,-0.517
-988.141,-71.503,147.346,-2.462,-1.548,-0.540
-990.681,-74.423,145.814,-2.773,-1.589,-0.497
-988.880,-78.180,146.262,-2.879,-1.698,-0.559
-985.733,-81.411,148.266,-2.772,-1.673,-0.392
-986.000,-83.000,147.000,-2.450,-1.610,-0.350
-986.889,-82.294,146.454,-1.790,-1.485,-0.357
-987.682,-79.393,149.968,-1.216,-1.423,-0.338
-988.474,-74.613,148.752,-0.999,-1.313,-0.365
-988.960,-72.188,150.786,-1.050,-1.245,-0.333
-988.715,-71.716,151.046,-1.414,-1.245,-0.374
-989.030,-70.974,147.785,-1.632,-1.073,-0.435
-987.818,-72.090,151.322,-1.773,-0.981,-0.577
-986.003,-72.060,152.134,-2.265,-1.046,-0.824
-987.456,-71.875,151.032,-2.783,-1.014,-0.963
-989.289,-71.749,149.944,-3.079,-0.833,-1.059
-990.260,-69.504,148.740,-3.262,-0.716,-1.213
-988.716,-69.457,153.606,-3.668,-0.673,-1.293
-986.402,-71.638,154.152,-4.319,-0.480,-1.470
-986.082,-73.257,150.819,-4.647,-0.160,-1.618
-988.000,-75.000,152.000,-4.900,0.140,-1.610
-990.767,-74.291,148.074,-5.294,0.496,-1.621
-991.602,-73.968,143.109,-5.208,0.858,-1.461
-992.969,-78.265,143.735,-4.947,0.898,-1.308
-990.649,-81.381,144.173,-4.841,0.787,-1.174
-985.072,-86.957,145.240,-4.549,0.774,-0.987
-985.440,-97.372,141.736,-4.073,0.758,-0.889
-985.898,-104.304,139.078,-3.282,0.615,-0.759
-984.919,-104.317,141.013,-2.007,0.489,-0.580
-987.441,-97.738,139.196,-0.370,0.600,-0.193
-988.087,-91.914,140.267,0.923,0.653,0.361
-988.395,-90.058,140.658,1.094,0.591,0.825
-990.381,-87.922,140.457,0.787,0.519,1.046
-987.981,-86.912,144.113,0.809,0.369,1.031
-988.416,-85.481,146.282,0.913,0.175,0.977
-989.000,-80.000,148.000,0.700,-0.070,1.050
-985.973,-78.591,146.407,0.098,-0.148,1.180
-988.312,-81.024,144.988,-0.369,-0.084,1.193
-988.794,-80.409,144.238,-0.460,-0.036,1.196
-989.837,-82.684,141.587,-0.537,0.032,1.159
-990.320,-83.925,140.935,-0.559,-0.069,1.121
-987.526,-84.586,141.100,-0.688,-0.350,1.221
-988.083,-88.144,142.041,-0.997,-0.654,1.336
-988.028,-86.291,141.094,-0.935,-0.958,1.337
-988.676,-84.035,142.693,-0.557,-1.210,1.216
-989.087,-83.286,147.852,-0.403,-1.436,1.110
-988.612,-79.032,145.476,-0.466,-1.726,0.906
-988.922,-76.521,142.354,-0.504,-2.016,0.688
-988.968,-78.983,144.858,-0.601,-2.227,0.613
-988.907,-81.291,144.692,-0.708,-2.410,0.553
-987.000,-85.000,143.000,-0.630,-2.590,0.560
-984.321,-90.510,143.812,-0.290,-2.603,0.614
-983.002,-91.871,145.182,0.337,-2.524,0.777
-982.931,-92.441,148.938,1.066,-2.551,0.919
-982.765,-89.815,151.964,1.793,-2.638,0.883
-985.068,-83.674,150.137,2.500,-2.629,0.971
-986.985,-79.073,151.959,2.916,-2.385,1.153
-985.997,-77.018,154.996,2.693,-2.238,1.188
-987.815,-78.906,151.381,2.197,-2.183,1.185
-989.581,-77.129,148.158,2.035,-1.986,1.301
-991.880,-72.405,148.002,1.997,-1.959,1.388
-993.218,-68.548,147.843,1.879,-1.899,1.432
-992.661,-63.974,148.485,1.551,-1.789,1.478
-992.707,-61.314,150.747,0.764,-1.842,1.335
-989.393,-58.577,152.072,-0.213,-1.902,1.076
-988.000,-58.000,153.000,-1.050,-2.030,0.700
-990.622,-60.630,155.032,-1.951,-2.044,0.266
-991.484,-62.478,152.279,-2.790,-1.963,-0.053
-989.275,-64.601,150.064,-3.097,-1.972,-0.318
-989.208,-67.599,151.998,-3.214,-1.911,-0.551
-989.555,-69.476,151.838,-3.134,-1.753,-0.942
-987.604,-70.168,153.493,-2.695,-1.567,-1.330
-988.094,-71.053,152.769,-2.357,-1.386,-1.558
-988.077,-71.848,150.929,-1.931,-1.203,-1.804
-987.826,-75.777,152.233,-1.464,-1.068,-1.943
-987.198,-79.673,149.680,-1.242,-1.007,-2.009
-983.635,-80.225,149.724,-0.795,-0.914,-2.060
-985.735,-81.441,151.117,-0.094,-0.777,-2.154
-989.442,-78.632,149.700,0.529,-0.675,-2.267
-987.644,-75.973,151.417,0.946,-0.623,-2.318
-987.000,-78.000,153.000,0.840,-0.560,-2.380
-986.297,-81.278,152.239,0.517,-0.492,-2.438
-984.340,-86.565,150.464,0.432,-0.533,-2.518
-983.586,-90.160,149.345,0.415,-0.606,-2.451
-984.335,-91.207,148.336,0.691,-0.678,-2.327
-984.822,-88.664,148.378,1.117,-0.831,-2.293
-985.314,-86.973,150.234,1.167,-0.924,-2.110
-988.181,-86.915,148.853,0.960,-0.984,-1.795
-987.264,-86.772,149.716,0.656,-0.984,-1.490
-984.928,-91.379,152.894,0.335,-0.963,-1.289
-985.202,-90.522,152.111,0.172,-1.048,-1.174
-984.164,-88.208,152.909,0.057,-1.005,-0.995
-986.030,-89.150,154.143,-0.188,-0.989,-0.692
-986.675,-87.844,152.294,-0.282,-0.939,-0.417
-986.107,-91.884,150.867,-0.291,-0.749,-0.163
-987.000,-95.000,150.000,-0.350,-0.770,0.210
-986.054,-94.212,149.077,-0.069,-0.837,0.519
-986.140,-91.449,148.899,0.369,-0.845,0.810
-984.963,-87.479,149.767,0.733,-0.801,1.101
-985.529,-86.446,152.771,0.846,-0.759,1.278
-987.514,-81.736,153.600,0.580,-0.761,1.483
-989.346,-78.937,150.318,0.392,-0.690,1.632
-988.817,-78.850,151.268,0.185,-0.781,1.683
-986.976,-75.246,153.969,-0.187,-0.784,1.684
-988.035,-73.917,153.162,-0.347,-0.538,1.576
-986.789,-74.159,153.015,-0.373,-0.387,1.403
-988.375,-73.195,152.467,-0.537,-0.299,1.213
-990.070,-71.038,151.693,-0.673,-0.281,1.042
-990.192,-71.542,150.413,-0.727,-0.273,0.846
-990.934,-73.112,148.952,-0.955,-0.289,0.682
-990.000,-74.000,150.000,-1.190,-0.350,0.560
-991.090,-75.940,149.340,-1.260,-0.347,0.317
-988.071,-75.171,147.756,-1.182,-0.402,0.158
-986.778,-75.591,149.753,-0.969,-0.426,0.077
-988.012,-75.795,151.273,-0.898,-0.421,-0.089
-986.453,-77.269,148.898,-0.904,-0.403,-0.151
-988.476,-83.348,148.055,-0.806,-0.341,-0.243
-987.845,-86.072,147.936,-0.530,-0.352,-0.352
-986.995,-86.942,147.876,-0.040,-0.350,-0.287
-985.680,-86.470,149.833,0.456,-0.401,-0.227
-983.897,-84.802,149.740,0.839,-0.439,-0.088
-986.986,-86.391,151.277,0.908,-0.397,0.129
-987.486,-88.935,151.220,0.798,-0.458,0.277
-986.896,-88.613,148.525,0.900,-0.488,0.498
-985.567,-88.121,150.413,1.155,-0.497,0.732
-982.000,-90.000,151.000,1.190,-0.560,0.980
-981.637,-90.888,150.821,0.992,-0.563,1.344
-984.927,-92.375,151.444,1.100,-0.556,1.664
-987.062,-93.507,149.429,1.351,-0.566,1.975
-986.019,-91.998,149.367,1.431,-0.536,2.446
-986.372,-90.320,149.855,1.492,-0.458,3.025
-988.147,-86.946,148.961,1.565,-0.418,3.532
-986.859,-81.614,151.244,1.682,-0.419,3.871
-986.839,-78.152,152.163,1.435,-0.357,4.114
-988.939,-76.441,149.332,1.079,-0.283,4.259
-987.472,-74.542,149.470,0.967,-0.315,4.270
-987.550,-72.890,149.920,0.521,-0.399,4.299
-991.546,-68.696,147.973,0.188,-0.423,4.361
-991.440,-65.624,146.899,0.086,-0.420,4.314
-991.216,-65.899,148.366,-0.264,-0.419,4.171
-992.000,-62.000,150.000,-0.420,-0.420,3.920
-989.278,-58.900,149.071,-0.522,-0.474,3.673
-989.443,-61.109,149.729,-0.825,-0.598,3.408
-990.203,-63.783,149.210,-0.994,-0.648,2.991
-989.444,-66.133,146.995,-0.629,-0.614,2.585
-990.415,-64.685,146.992,0.164,-0.649,2.124
-992.366,-58.456,145.629,0.618,-0.731,1.763
-992.972,-53.795,146.152,0.700,-1.005,1.595
-992.064,-52.965,147.085,0.578,-1.190,1.289
-991.829,-53.822,145.297,0.369,-1.169,0.924
-993.009,-53.727,144.395,0.376,-1.334,0.526
-994.546,-51.545,143.147,0.522,-1.466,0.075
-992.354,-51.305,143.488,0.691,-1.645,-0.307
-990.981,-51.893,145.830,0.546,-1.876,-0.680
-990.593,-51.087,149.687,0.235,-1.973,-1.122
-985.000,-56.000,153.000,-0.140,-2.100,-1.610
-983.517,-63.191,153.068,-0.652,-2.229,-2.048
-987.219,-68.154,152.470,-0.676,-2.215,-2.281
-988.316,-74.258,150.524,-0.154,-2.063,-2.375
-986.473,-76.010,150.185,0.701,-2.015,-2.545
-984.447,-72.234,151.462,1.557,-1.901,-2.565
-986.639,-68.311,153.698,2.020,-1.814,-2.412
-988.030,-68.160,156.044,1.854,-1.735,-2.223
-988.912,-71.687,155.057,1.351,-1.486,-2.036
-987.987,-75.372,155.738,1.404,-1.309,-2.033
-983.411,-76.993,155.537,1.601,-1.060,-1.917
-983.658,-77.146,155.254,1.637,-0.906,-1.682
-985.348,-78.705,158.487,1.663,-0.752,-1.573
-986.283,-76.824,158.552,1.347,-0.600,-1.531
-987.035,-72.473,156.762,1.002,-0.449,-1.442
-987.000,-71.000,155.000,0.560,-0.140,-1.120
-986.253,-73.264,153.930,-0.057,-0.132,-0.861
-984.912,-78.137,154.379,-0.485,-0.062,-0.741
-985.509,-79.320,152.035,-0.613,0.078,-0.638
-986.217,-78.226,150.986,-0.454,0.055,-0.621
-989.305,-73.786,152.185,-0.309,0.080,-0.503
-990.765,-69.484,150.596,-0.293,0.067,-0.407
-988.938,-68.908,151.117,-0.599,0.068,-0.344
-989.036,-66.212,150.286,-1.214,-0.056,-0.342
-987.987,-64.956,147.045,-1.726,-0.237,-0.471
-989.167,-65.418,148.053,-2.104,-0.461,-0.528
-989.868,-67.375,146.046,-2.466,-0.686,-0.642
-990.645,-67.292,143.205,-2.781,-0.860,-0.723
-993.502,-64.079,144.629,-2.749,-1.137,-0.821
-991.452,-61.500,146.149,-2.579,-1.362,-1.097
-990.000,-58.000,146.000,-2.660,-1.610,-1.400
-993.530,-60.214,144.940,-2.784,-1.798,-1.760
-992.873,-64.329,146.929,-2.898,-2.003,-2.170
-986.941,-66.940,150.088,-3.018,-2.278,-2.647
-988.933,-71.144,151.327,-2.861,-2.277,-3.111
-990.512,-71.843,150.679,-2.102,-2.238,-3.498
-988.960,-72.330,151.262,-1.342,-2.235,-3.759
-989.953,-74.122,150.834,-1.029,-2.245,-4.015
-987.153,-75.842,148.984,-0.662,-2.308,-4.325
-988.338,-77.694,150.643,-0.290,-2.307,-4.404
-988.364,-79.493,151.416,0.080,-2.323,-4.490
-985.187,-84.086,154.107,0.320,-2.263,-4.609
-986.997,-85.912,156.286,0.432,-2.249,-4.633
-987.891,-81.263,154.588,0.971,-2.201,-4.714
-986.731,-77.799,156.519,1.335,-2.005,-4.670
-985.000,-79.000,159.000,0.910,-1.960,-4.480
-986.686,-82.381,159.106,0.171,-1.908,-4.293
-985.574,-87.120,158.198,-0.363,-1.788,-4.170
-981.718,-93.548,157.954,-0.789,-1.637,-3.989
-985.116,-97.121,157.597,-1.094,-1.430,-3.658
-984.964,-94.571,156.925,-0.806,-1.270,-3.296
-984.295,-91.351,158.410,-0.449,-1.070,-3.033
-985.994,-87.641,158.960,-0.584,-0.902,-2.854
-984.126,-84.054,158.069,-1.068,-0.843,-2.548
-984.430,-86.678,156.671,-1.848,-0.790,-2.228
-986.994,-92.336,152.634,-2.487,-0.707,-1.988
-987.775,-95.824,149.921,-2.580,-0.751,-1.734
-983.410,-97.778,152.232,-2.318,-0.912,-1.505
-982.713,-97.350,150.871,-2.117,-1.004,-1.249
-987.621,-92.000,147.914,-1.833,-1.151,-1.019
-988.000,-87.000,150.000,-1.610,-1.400,-0.840
-985.360,-85.096,150.943,-2.009,-1.649,-0.769
-983.928,-86.937,152.290,-2.500,-1.796,-0.775
-983.810,-94.885,153.910,-2.717,-1.888,-0.784
-980.830,-99.834,154.138,-2.607,-2.049,-0.930
-980.692,-101.905,155.589,-1.915,-2.092,-0.965
-984.517,-102.599,155.884,-0.971,-2.012,-0.907
-983.933,-97.600,156.125,-0.078,-1.956,-0.905
-984.900,-95.886,158.825,0.473,-1.896,-0.719
-983.777,-97.700,159.257,0.497,-1.791,-0.521
-981.838,-99.172,159.144,0.642,-1.568,-0.394
-985.007,-100.552,160.842,1.268,-1.340,-0.304
-985.476,-95.885,158.573,2.025,-1.203,-0.244
-985.032,-87.704,158.555,2.562,-1.082,-0.088
-986.196,-83.688,159.976,2.463,-0.964,0.005
-987.000,-83.000,159.000,1.960,-0.910,0.000
-986.218,-83.821,159.083,1.363,-0.919,-0.053
-985.529,-84.275,158.566,0.722,-0.768,-0.178
-987.735,-83.239,161.075,0.213,-0.594,-0.252
-988.949,-82.711,161.440,-0.449,-0.511,-0.335
-987.048,-81.533,159.564,-1.040,-0.369,-0.461
-987.224,-82.541,160.066,-1.633,-0.358,-0.493
-986.801,-85.180,158.857,-2.355,-0.346,-0.570
-983.177,-88.581,157.123,-2.713,-0.345,-0.634
-984.072,-94.819,156.001,-2.876,-0.369,-0.513
-986.974,-97.903,156.217,-2.618,-0.277,-0.482
-985.534,-97.628,155.113,-1.959,-0.331,-0.445
-984.992,-96.207,155.590,-1.334,-0.322,-0.270
-986.164,-94.492,155.387,-0.862,-0.286,-0.198
-985.988,-92.731,152.853,-0.589,-0.360,-0.125
-987.000,-92.000,154.000,-0.280,-0.420,-0.070
-987.257,-92.094,152.369,-0.141,-0.542,-0.075
-985.172,-91.753,152.212,-0.107,-0.653,-0.013
-986.203,-92.152,153.741,0.022,-0.833,-0.020
-988.795,-88.652,151.899,0.131,-0.972,-0.144
-986.636,-87.087,152.643,0.227,-1.112,-0.219
-986.384,-87.999,154.265,-0.023,-1.185,-0.100
-987.958,-88.132,155.036,-0.362,-1.119,-0.000
-985.195,-90.882,155.007,-0.294,-1.187,-0.067
-985.382,-90.309,155.682,-0.196,-1.139,-0.024
-986.567,-90.322,156.332,-0.333,-1.142,0.053
-984.546,-91.893,155.499,-0.573,-1.246,0.130
-985.864,-94.622,156.764,-0.773,-1.276,0.252
-986.825,-97.208,156.478,-0.726,-1.348,0.174
-985.970,-94.528,155.006,-0.534,-1.322,0.248
-986.000,-94.000,157.000,-0.420,-1.330,0.560
-983.478,-94.211,157.188,-0.245,-1.339,0.635
-981.666,-92.497,157.200,-0.071,-1.275,0.658
-983.934,-90.819,159.783,-0.150,-1.224,0.806
-987.293,-89.222,159.285,-0.228,-1.151,0.824
-985.426,-89.263,159.523,-0.230,-1.094,0.748
-982.844,-91.766,161.060,-0.496,-0.932,0.787
-985.219,-94.008,158.755,-0.622,-0.762,0.843
-986.059,-91.309,156.989,-0.369,-0.704,0.904
-985.794,-88.340,157.861,-0.226,-0.641,0.931
-986.165,-86.786,157.505,-0.122,-0.623,0.802
-985.264,-84.990,156.576,-0.052,-0.633,0.788
-986.967,-85.606,157.364,-0.265,-0.640,0.866
-987.417,-87.611,156.515,-0.450,-0.734,0.814
-983.486,-89.168,156.128,-0.405,-0.761,0.773
-984.000,-89.000,157.000,-0.280,-0.630,0.840
-986.832,-86.461,156.868,-0.095,-0.562,0.794
-987.020,-84.199,158.051,-0.035,-0.525,0.648
-986.534,-84.294,156.643,-0.192,-0.392,0.631
-984.616,-86.426,156.539,-0.397,-0.355,0.619
-983.813,-90.724,158.116,-0.646,-0.464,0.655
-983.845,-93.220,155.239,-0.562,-0.480,0.707
-984.154,-92.960,155.172,-0.105,-0.417,0.780
-986.902,-92.113,156.990,0.258,-0.419,0.906
-985.586,-90.386,156.205,0.517,-0.418,0.906
-984.806,-88.313,155.418,0.627,-0.459,0.964
-987.015,-84.743,154.126,0.631,-0.530,0.949
-986.521,-84.606,154.599,0.603,-0.602,0.916
-989.039,-86.082,156.235,0.417,-0.738,0.999
-989.640,-84.890,154.639,0.177,-0.769,0.974
-986.000,-86.000,154.000,-0.000,-0.840,0.980
-985.776,-85.439,155.827,-0.128,-0.973,0.927
-986.892,-82.553,156.083,-0.151,-0.976,0.845
-986.791,-81.278,155.967,-0.149,-0.997,0.841
-987.094,-80.992,155.871,-0.329,-0.930,0.843
-988.213,-83.168,156.298,-0.599,-0.945,0.814
-987.557,-86.766,157.001,-0.905,-1.066,0.666
-985.952,-89.125,155.906,-0.969,-1.049,0.633
-986.009,-89.173,155.907,-0.719,-1.114,0.634
-985.807,-85.076,157.007,-0.487,-1.082,0.613
-987.277,-82.452,155.869,-0.158,-1.003,0.698
-987.540,-84.073,153.917,-0.101,-1.179,0.656
-986.781,-83.471,154.705,-0.458,-1.273,0.648
-988.260,-84.831,156.273,-0.658,-1.275,0.704
-986.608,-85.734,155.893,-0.614,-1.425,0.611
-986.000,-82.000,156.000,-0.490,-1.470,0.560
-987.053,-80.874,157.713,-0.527,-1.402,0.624
-986.138,-82.276,158.484,-0.819,-1.444,0.595
-985.861,-84.926,156.321,-1.011,-1.521,0.497
-985.640,-86.643,157.059,-0.884,-1.529,0.502
-986.095,-87.137,159.393,-0.709,-1.427,0.461
-985.576,-86.834,157.502,-0.502,-1.408,0.424
-983.977,-87.123,158.173,-0.266,-1.393,0.496
-984.950,-88.935,159.072,-0.088,-1.266,0.554
-983.674,-89.517,158.657,0.172,-1.256,0.669
-981.487,-92.864,160.145,0.219,-1.228,0.791
-983.378,-93.724,159.011,0.318,-1.117,0.943
-985.413,-90.533,159.856,0.801,-1.002,1.137
-984.301,-88.184,160.904,1.094,-0.988,1.318
-983.048,-84.448,159.991,1.023,-0.965,1.490
-985.000,-83.000,161.000,0.770,-0.840,1.540
-984.397,-83.809,160.978,0.574,-0.840,1.596
-982.708,-85.466,161.817,0.514,-0.755,1.670
-984.111,-86.382,161.110,0.427,-0.598,1.711
-985.545,-85.217,159.094,0.483,-0.527,1.797
-987.525,-82.805,158.997,0.728,-0.470,1.817
-986.206,-79.430,159.162,0.838,-0.395,1.830
-984.049,-80.184,161.156,0.600,-0.274,1.894
-986.840,-81.110,161.145,0.226,-0.277,1.893
-985.808,-79.175,159.823,0.239,-0.239,1.833
-983.800,-79.569,161.459,0.274,-0.139,1.805
-987.193,-79.899,161.520,-0.161,-0.160,1.861
-986.537,-77.962,158.414,-0.407,-0.086,1.898
-983.677,-76.939,156.856,-0.434,0.019,1.882
-987.835,-76.839,156.941,-0.390,-0.011,1.798
-989.000,-74.000,156.000,0.000,-0.070,1.610
-986.716,-72.839,156.785,0.216,-0.071,1.540
-990.409,-73.392,157.236,0.074,-0.108,1.471
-988.941,-72.258,156.791,-0.183,-0.205,1.207
-985.819,-74.952,156.609,-0.305,-0.176,1.081
-987.458,-77.607,153.934,-0.125,-0.147,1.000
-986.524,-78.026,154.517,0.031,-0.225,0.791
-986.087,-76.805,156.006,0.312,-0.206,0.617
-987.870,-74.142,155.944,0.745,-0.205,0.434
-988.964,-72.527,156.326,0.909,-0.271,0.300
-988.230,-70.211,154.293,0.875,-0.314,0.196
-987.870,-70.641,154.528,0.764,-0.428,0.054
-989.577,-70.413,154.798,0.665,-0.537,-0.041
-987.731,-68.666,155.783,0.596,-0.681,-0.206
-983.698,-69.170,159.361,0.279,-0.769,-0.459
-986.000,-71.000,158.000,-0.210,-0.700,-0.700
-988.155,-72.967,155.112,-0.362,-0.755,-0.948
-986.854,-72.637,156.154,-0.276,-0.788,-1.095
-987.779,-75.362,158.255,-0.334,-0.750,-1.191
-986.849,-77.565,156.792,-0.311,-0.793,-1.339
-985.841,-76.836,156.217,-0.132,-0.736,-1.425
-987.209,-78.528,156.852,0.146,-0.703,-1.481
-986.932,-80.056,154.897,0.518,-0.696,-1.465
-986.053,-80.031,155.833,0.822,-0.630,-1.403
-985.867,-80.467,157.037,0.968,-0.686,-1.349
-986.055,-83.276,156.875,1.040,-0.674,-1.273
-985.431,-84.092,157.021,1.316,-0.572,-1.240
-986.519,-84.191,157.174,1.523,-0.564,-1.127
-986.647,-83.266,158.270,1.427,-0.555,-1.025
-986.091,-79.482,157.866,1.310,-0.563,-0.878
-987.000,-78.000,158.000,1.050,-0.560,-0.700
-986.837,-77.953,159.014,0.620,-0.556,-0.700
-988.210,-78.178,158.211,0.295,-0.572,-0.650
-985.341,-77.458,158.355,-0.019,-0.513,-0.626
-984.165,-80.060,159.131,-0.438,-0.484,-0.607
-988.200,-84.065,156.894,-0.685,-0.491,-0.545
-987.235,-83.719,156.240,-0.576,-0.490,-0.566
-983.791,-82.958,158.094,-0.257,-0.490,-0.559
-982.887,-82.080,158.051,-0.136,-0.489,-0.560
-986.105,-81.187,157.301,-0.210,-0.493,-0.516
-988.163,-80.616,155.519,-0.187,-0.483,-0.363
-986.751,-82.788,155.093,-0.321,-0.505,-0.130
-984.928,-86.469,156.654,-0.433,-0.445,0.096
-983.961,-86.483,156.984,-0.155,-0.309,0.246
-986.511,-82.161,156.978,0.358,-0.194,0.277
-988.000,-78.000,156.000,0.630,-0.140,0.280
-987.038,-78.669,154.973,0.403,-0.197,0.348
-987.128,-81.043,155.767,0.086,-0.302,0.301
-985.714,-84.282,155.697,-0.170,-0.481,0.272
-984.303,-84.320,154.148,-0.116,-0.613,0.277
-985.525,-82.883,154.289,0.313,-0.630,0.310
-987.248,-83.992,155.058,0.613,-0.629,0.448
-988.070,-79.498,155.022,0.861,-0.631,0.492
-988.972,-75.119,155.916,1.048,-0.632,0.555
-988.345,-73.658,156.800,0.909,-0.577,0.529
-986.922,-70.942,157.749,0.570,-0.510,0.339
-986.926,-72.850,157.679,0.159,-0.473,0.208
-986.390,-76.212,156.437,-0.231,-0.525,0.076
-986.022,-77.241,155.773,-0.359,-0.552,-0.020
-987.162,-78.060,154.940,-0.352,-0.482,-0.084
-987.000,-77.000,156.000,-0.350,-0.490,-0.210
-986.834,-75.861,157.020,-0.225,-0.438,-0.277
-987.906,-78.126,156.896,-0.239,-0.349,-0.315
-987.683,-79.986,156.806,-0.328,-0.391,-0.470
-988.300,-80.084,154.666,-0.145,-0.431,-0.646
-988.831,-81.709,154.186,0.216,-0.413,-0.710
-987.471,-81.666,155.090,0.559,-0.426,-0.696
-986.039,-79.930,155.001,0.785,-0.416,-0.702
-989.635,-80.003,155.032,0.969,-0.352,-0.762
-990.948,-78.636,154.186,1.009,-0.392,-0.884
-986.235,-76.244,153.818,0.808,-0.520,-0.933
-987.090,-76.369,154.420,0.517,-0.603,-0.880
-986.986,-77.398,155.447,0.216,-0.656,-0.971
-984.484,-78.468,156.209,0.034,-0.712,-1.062
-985.192,-81.603,157.107,-0.001,-0.694,-1.048
-986.000,-85.000,156.000,-0.000,-0.700,-1.050
-986.044,-86.747,153.217,0.054,-0.767,-0.999
-986.374,-88.105,152.865,0.209,-0.762,-0.794
-988.103,-86.083,153.707,0.459,-0.821,-0.500
-986.266,-81.706,156.910,0.614,-0.801,-0.382
-984.784,-79.243,157.407,0.468,-0.647,-0.310
-986.318,-77.733,154.520,0.129,-0.643,-0.187
-988.178,-78.120,155.133,-0.157,-0.704,-0.138
-988.290,-79.904,156.021,-0.337,-0.765,-0.137
-983.383,-80.202,155.219,-0.477,-0.783,-0.194
-985.641,-78.794,154.708,-0.429,-0.712,-0.286
-989.026,-76.467,155.655,-0.230,-0.723,-0.476
-986.755,-73.912,155.931,-0.289,-0.809,-0.593
-987.261,-75.059,156.142,-0.718,-0.842,-0.669
-986.818,-80.801,155.816,-1.168,-0.841,-0.870
-986.000,-82.000,155.000,-1.120,-0.840,-0.980
-985.854,-81.656,156.024,-0.636,-0.782,-1.039
-987.601,-83.505,154.476,-0.195,-0.719,-1.105
-986.983,-80.203,154.632,0.229,-0.627,-1.157
-985.482,-79.465,157.061,0.590,-0.500,-1.242
-987.580,-81.327,156.547,0.739,-0.502,-1.402
-986.378,-81.225,155.936,0.763,-0.472,-1.568
-984.989,-85.389,156.030,0.614,-0.422,-1.610
-984.992,-87.995,156.089,0.488,-0.488,-1.611
-986.345,-87.892,153.614,0.685,-0.441,-1.561
-987.720,-87.809,152.851,1.043,-0.400,-1.455
-984.651,-85.107,156.078,1.105,-0.443,-1.288
-983.997,-83.879,156.831,0.852,-0.379,-1.136
-983.428,-85.851,155.650,0.642,-0.361,-1.119
-983.382,-89.607,154.894,0.369,-0.427,-1.024
-987.000,-92.000,154.000,0.140,-0.420,-0.840
-985.427,-91.195,153.792,0.361,-0.420,-0.718
-985.069,-89.796,156.186,0.673,-0.378,-0.557
-987.203,-86.086,157.576,0.620,-0.321,-0.347
-985.847,-82.607,155.900,0.302,-0.403,-0.237
-986.511,-83.799,154.584,-0.077,-0.397,-0.192
-988.071,-85.144,153.888,-0.420,-0.352,-0.119
-986.856,-86.146,154.026,-0.644,-0.425,0.013
-985.098,-88.791,154.007,-0.827,-0.425,0.196
-984.756,-90.810,154.664,-0.882,-0.361,0.334
-985.742,-90.672,155.411,-0.546,-0.341,0.362
-985.274,-88.438,154.054,-0.054,-0.363,0.334
-984.952,-85.881,154.459,0.241,-0.319,0.396
-986.174,-85.106,154.880,0.264,-0.277,0.525
-984.621,-87.438,153.843,0.210,-0.275,0.559
-984.000,-89.000,153.000,0.350,-0.210,0.560
-986.733,-89.778,152.905,0.702,-0.262,0.675
-986.530,-90.004,153.208,1.179,-0.314,0.817
-985.381,-85.562,152.589,1.626,-0.144,0.873
-986.233,-83.893,153.784,1.781,-0.059,0.977
-985.248,-85.393,153.531,1.589,-0.205,1.070
-985.216,-84.764,153.166,1.457,-0.288,1.036
-987.154,-83.913,153.982,1.390,-0.361,0.975
-988.879,-81.327,153.026,1.264,-0.547,0.912
-990.004,-76.208,153.745,1.270,-0.632,0.956
-988.719,-72.283,154.535,1.081,-0.591,1.016
-986.785,-72.465,155.943,0.597,-0.512,0.850
-987.456,-73.403,154.721,0.185,-0.489,0.575
-989.501,-76.181,151.287,-0.078,-0.484,0.369
-989.889,-79.202,152.349,-0.408,-0.502,0.270
-988.000,-79.000,154.000,-0.700,-0.630,0.210
-986.889,-80.628,154.923,-0.657,-0.584,0.148
-987.964,-82.072,154.500,-0.476,-0.476,0.093
-986.722,-81.414,152.739,-0.289,-0.580,0.017
-985.640,-80.683,151.200,-0.153,-0.643,0.017
-987.673,-81.489,151.412,-0.147,-0.635,0.105
-987.599,-81.779,153.363,-0.121,-0.724,0.138
-985.956,-79.891,154.050,0.092,-0.769,0.061
-986.873,-79.941,154.990,0.339,-0.707,-0.063
-987.998,-80.115,152.950,0.405,-0.635,-0.125
-986.800,-79.828,149.822,0.515,-0.665,-0.229
-984.534,-80.433,151.495,0.578,-0.728,-0.311
-986.280,-81.525,153.748,0.557,-0.667,-0.249
-989.436,-81.891,153.821,0.534,-0.755,-0.322
-987.558,-80.897,152.882,0.313,-0.923,-0.426
-986.000,-82.000,153.000,0.210,-0.910,-0.420
-985.153,-84.736,153.139,0.213,-0.965,-0.427
-985.315,-84.719,152.047,0.274,-1.001,-0.322
-987.005,-82.357,152.919,0.532,-0.925,-0.224
-986.037,-82.310,154.839,0.461,-0.912,-0.186
-986.077,-83.429,154.834,0.199,-0.895,-0.112
-985.610,-85.639,155.150,0.135,-0.821,-0.056
-985.107,-86.942,154.891,0.146,-0.768,0.003
-986.971,-85.089,153.079,0.391,-0.769,-0.001
-986.056,-85.080,153.570,0.726,-0.771,0.099
-987.139,-82.801,155.001,0.804,-0.768,0.219
-987.549,-78.696,154.372,0.654,-0.772,0.185
-987.100,-77.956,154.126,0.316,-0.768,0.256
-989.275,-77.972,155.285,-0.011,-0.773,0.263
-986.459,-78.009,154.829,-0.157,-0.765,0.208
-987.000,-78.000,154.000,-0.280,-0.700,0.210
-989.210,-78.057,153.181,-0.296,-0.690,0.148
-987.084,-77.205,152.655,-0.202,-0.760,0.098
-987.679,-77.658,154.235,-0.319,-0.769,-0.020
-986.920,-80.694,155.561,-0.516,-0.777,-0.101
-985.742,-82.323,155.948,-0.533,-0.749,-0.194
-987.441,-81.560,154.614,-0.149,-0.692,-0.393
-989.072,-77.626,154.012,0.454,-0.702,-0.494
-988.189,-74.100,154.001,0.511,-0.762,-0.553
-986.682,-73.994,155.330,0.155,-0.889,-0.708
-988.656,-73.358,156.912,-0.212,-0.920,-1.042
-987.358,-73.055,153.723,-0.526,-0.928,-1.398
-985.399,-75.290,153.434,-0.721,-1.013,-1.637
-985.959,-79.429,153.791,-0.988,-0.939,-1.789
-984.921,-83.386,152.895,-0.934,-0.832,-1.910
-987.000,-83.000,151.000,-0.420,-0.840,-2.030
-989.114,-81.151,150.434,0.195,-0.842,-2.091
-986.799,-80.250,154.619,0.563,-0.835,-2.156
-985.280,-80.497,154.429,0.401,-0.851,-2.194
-986.485,-83.634,156.747,0.214,-0.792,-2.355
-987.061,-81.247,155.266,0.402,-0.640,-2.597
-987.910,-81.248,152.035,0.870,-0.550,-2.673
-983.545,-91.682,153.946,0.886,-0.562,-2.815
-983.401,-91.564,150.167,0.682,-0.564,-2.938
-992.304,-85.379,152.830,1.302,-0.498,-2.939
-989.309,-84.747,154.352,1.698,-0.524,-2.917
-986.087,-82.493,151.934,1.335,-0.583,-2.756
-988.473,-84.994,153.741,0.788,-0.549,-2.600
-986.158,-88.636,152.558,0.303,-0.697,-2.480
-986.051,-90.518,154.552,0.116,-0.848,-2.369
-984.000,-95.000,156.000,-0.140,-0.840,-2.310
-982.780,-96.030,154.896,-0.178,-0.848,-2.133
-983.965,-96.191,156.596,0.125,-0.737,-1.980
-984.452,-93.890,156.350,0.381,-0.680,-1.900
-987.234,-91.006,153.417,0.560,-0.711,-1.708
-985.577,-92.809,153.407,0.378,-0.705,-1.571
-984.086,-92.865,153.759,0.084,-0.794,-1.422
-986.132,-94.200,151.922,-0.077,-0.841,-1.173
-986.111,-95.123,152.836,-0.015,-0.901,-1.055
-984.326,-93.713,155.310,0.103,-1.027,-0.954
-983.553,-96.317,157.561,-0.176,-1.104,-0.752
-984.093,-95.988,153.750,-0.267,-1.110,-0.684
-983.624,-92.711,150.767,0.156,-0.977,-0.694
-986.049,-91.625,155.457,0.477,-0.913,-0.598
-987.937,-88.403,155.718,0.484,-0.991,-0.557
-986.000,-87.000,155.000,0.420,-0.980,-0.490
-986.722,-89.704,154.293,0.069,-0.914,-0.419
-987.343,-90.130,154.000,-0.185,-0.914,-0.433
-986.006,-90.734,157.145,0.050,-0.848,-0.366
-985.774,-93.321,155.338,0.213,-0.681,-0.359
-985.926,-94.145,154.034,0.457,-0.625,-0.314
-985.619,-95.462,155.242,0.555,-0.629,-0.183
-981.649,-98.259,157.230,0.567,-0.630,-0.057
-980.700,-101.809,158.246,0.568,-0.571,0.128
-986.167,-101.140,152.850,0.685,-0.431,0.245
-986.167,-95.598,153.200,1.482,-0.463,0.487
-984.108,-92.277,155.848,1.340,-0.476,0.860
-987.816,-90.224,152.241,0.688,-0.378,1.209
-988.411,-91.895,154.535,0.588,-0.337,1.439
-985.690,-91.303,158.101,0.133,-0.272,1.385
-985.000,-85.000,156.000,-0.070,-0.280,1.400
-985.736,-85.511,155.035,-0.227,-0.228,1.475
-987.090,-86.671,153.794,-0.524,-0.174,1.378
-985.916,-84.710,151.781,-0.620,-0.345,1.209
-986.703,-86.223,152.710,-0.814,-0.466,1.034
-987.726,-89.178,152.622,-0.949,-0.499,0.962
-985.409,-92.818,152.064,-0.959,-0.482,0.890
-985.091,-93.884,153.053,-0.589,-0.495,0.839
-986.848,-90.316,153.017,-0.097,-0.560,0.839
-988.733,-87.369,153.018,0.166,-0.502,0.886
-988.156,-85.647,152.783,0.298,-0.519,0.974
-984.186,-85.317,154.038,0.158,-0.613,0.973
-983.019,-91.238,154.842,-0.116,-0.632,0.981
-985.511,-93.664,152.131,-0.065,-0.628,0.854
-983.432,-90.871,152.315,0.432,-0.633,0.777
-983.000,-94.000,154.000,0.770,-0.630,0.910
-987.720,-94.454,153.118,0.995,-0.512,1.026
-986.041,-92.106,153.472,1.346,-0.420,1.213
-984.641,-91.428,154.933,1.406,-0.429,1.309
-986.550,-87.749,154.464,1.436,-0.389,1.384
-985.396,-85.410,154.083,1.440,-0.334,1.512
-987.808,-83.340,155.198,1.190,-0.370,1.536
-988.875,-80.904,154.954,0.801,-0.500,1.462
-987.001,-80.947,154.974,0.187,-0.560,1.399
-988.604,-81.773,154.416,-0.238,-0.560,1.417
-988.563,-82.316,152.919,-0.370,-0.528,1.262
-986.942,-81.112,153.569,-0.501,-0.430,1.134
-986.709,-81.793,154.078,-0.620,-0.445,1.098
-985.423,-85.031,153.746,-0.850,-0.498,1.039
-985.210,-88.616,151.604,-0.976,-0.488,1.052
-988.000,-92.000,150.000,-0.700,-0.490,1.050
-989.924,-89.838,148.363,-0.046,-0.544,1.162
-989.443,-84.276,147.837,0.601,-0.663,1.347
-987.905,-81.038,152.235,0.694,-0.778,1.503
-988.267,-78.603,151.975,0.357,-0.933,1.532
-988.769,-76.230,151.506,0.022,-1.114,1.422
-987.689,-76.264,154.516,-0.288,-1.198,1.302
-986.952,-78.148,155.014,-0.657,-1.189,1.181
-986.063,-79.865,155.089,-0.902,-1.190,1.060
-985.885,-81.672,152.585,-0.884,-1.145,0.931
-985.935,-82.301,151.557,-0.587,-1.051,0.864
-985.753,-81.024,152.567,-0.181,-1.091,0.793
-985.704,-79.223,153.463,-0.051,-1.111,0.771
-986.610,-79.361,153.853,-0.068,-1.020,0.755
-990.461,-81.213,153.009,0.019,-0.983,0.694
-988.000,-81.000,155.000,0.140,-1.050,0.630
-983.782,-80.790,156.089,0.151,-1.006,0.442
-987.310,-82.624,155.246,0.108,-0.849,0.404
-987.223,-82.761,154.360,0.302,-0.886,0.405
-987.620,-80.953,153.793,0.510,-0.888,0.292
-988.632,-79.424,154.092,0.589,-0.828,0.289
-986.723,-77.492,153.907,0.621,-0.842,0.267
-988.131,-75.962,154.071,0.395,-0.841,0.206
-987.234,-76.863,155.844,0.088,-0.844,0.146
-984.969,-78.089,157.018,-0.104,-0.730,0.035
-986.058,-76.678,156.857,-0.242,-0.644,-0.139
-987.623,-75.891,156.886,-0.321,-0.594,-0.300
-987.765,-78.262,154.842,-0.387,-0.551,-0.380
-988.010,-80.800,154.044,-0.549,-0.552,-0.438
-986.596,-84.670,153.844,-0.616,-0.481,-0.500
-985.000,-87.000,153.000,-0.280,-0.490,-0.560
-988.452,-84.554,153.100,0.211,-0.434,-0.567
-989.025,-80.973,152.635,0.582,-0.441,-0.507
-985.837,-78.731,154.135,0.537,-0.576,-0.479
-986.599,-80.026,152.681,0.126,-0.502,-0.502
-986.105,-81.123,152.735,-0.009,-0.524,-0.467
-983.524,-81.042,155.187,-0.006,-0.541,-0.413
-984.166,-82.143,153.925,0.006,-0.415,-0.422
-985.946,-84.795,154.047,0.070,-0.481,-0.423
-986.565,-85.509,151.595,0.053,-0.554,-0.365
-989.040,-83.206,151.558,0.210,-0.600,-0.333
-989.436,-82.752,154.678,0.332,-0.653,-0.394
-986.452,-78.364,155.101,0.386,-0.595,-0.424
-986.197,-76.413,156.268,0.383,-0.556,-0.426
-987.060,-80.505,154.527,0.000,-0.561,-0.508
-987.000,-81.000,152.000,-0.210,-0.560,-0.630
-987.749,-81.001,151.000,0.084,-0.501,-0.638
-989.054,-80.270,152.277,0.304,-0.472,-0.616
-987.668,-80.290,153.546,0.092,-0.546,-0.652
-986.475,-81.649,152.424,-0.216,-0.537,-0.596
-986.967,-81.985,153.489,-0.264,-0.473,-0.701
-987.073,-80.374,152.515,-0.093,-0.504,-0.857
-989.216,-77.922,152.111,-0.006,-0.564,-0.838
-990.132,-78.860,153.082,-0.315,-0.623,-0.842
-987.459,-80.544,151.193,-0.711,-0.743,-0.777
-986.569,-82.989,151.585,-0.885,-0.825,-0.843
-986.752,-85.170,152.006,-0.903,-0.873,-0.976
-984.630,-86.499,152.326,-0.756,-0.926,-0.986
-984.475,-85.083,152.983,-0.580,-0.905,-1.085
-988.633,-81.597,151.813,-0.384,-1.006,-1.120
-989.000,-80.000,152.000,-0.210,-1.120,-1.190
-985.333,-78.048,154.591,-0.423,-1.115,-1.320
-984.722,-80.407,155.619,-0.871,-1.179,-1.372
-985.772,-84.979,152.904,-1.120,-1.159,-1.487
-987.962,-86.498,151.696,-1.011,-1.084,-1.584
-986.651,-87.468,152.368,-0.604,-1.024,-1.607
-983.568,-89.531,154.559,-0.293,-0.977,-1.513
-984.066,-91.044,154.880,0.035,-0.977,-1.472
-984.004,-91.011,153.908,0.588,-0.854,-1.476
-985.417,-90.952,155.861,1.003,-0.714,-1.353
-986.061,-91.958,155.179,1.079,-0.695,-1.288
-982.379,-94.342,155.608,1.035,-0.686,-1.184
-983.012,-92.498,155.462,1.270,-0.550,-1.090
-986.711,-89.150,155.647,1.642,-0.375,-1.010
-985.644,-86.598,159.381,1.734,-0.260,-0.810
-985.000,-86.000,158.000,1.400,-0.070,-0.700
-986.852,-88.024,156.020,1.078,0.121,-0.642
-986.470,-86.386,156.547,0.837,0.198,-0.569
-984.976,-86.206,158.396,0.339,0.244,-0.585
-984.869,-84.330,158.449,-0.043,0.337,-0.681
-984.538,-81.425,156.471,-0.458,0.484,-0.692
-984.002,-83.878,157.117,-0.837,0.672,-0.719
-986.251,-88.364,154.669,-1.065,0.772,-0.849
-988.044,-91.895,151.130,-1.071,0.769,-0.910
-986.359,-92.001,150.809,-0.700,0.822,-0.862
-985.494,-92.229,151.771,-0.492,0.893,-0.779
-987.094,-91.121,151.402,-0.264,0.922,-0.757
-989.992,-91.343,148.534,-0.035,0.887,-0.611
-989.250,-88.101,146.604,0.493,0.814,-0.463
-988.094,-82.811,145.932,0.907,0.672,-0.405
-989.000,-87.000,146.000,0.420,0.490,-0.280
-987.146,-87.418,146.866,0.255,0.312,-0.330
-988.214,-86.948,147.218,0.362,0.110,-0.419
-989.337,-89.633,146.191,0.352,0.029,-0.413
-988.371,-87.415,146.349,0.517,-0.075,-0.430
-989.243,-87.797,146.936,0.538,-0.304,-0.398
-988.449,-90.402,145.826,0.375,-0.542,-0.342
-985.891,-91.057,147.160,0.199,-0.709,-0.351
-986.838,-92.831,147.179,0.078,-0.826,-0.293
-986.811,-94.039,145.581,0.004,-1.065,-0.062
-983.384,-94.221,149.365,-0.052,-1.234,0.194
-986.806,-96.522,151.743,-0.334,-1.297,0.398
-988.176,-96.413,150.229,-0.361,-1.343,0.584
-984.080,-94.408,150.146,-0.054,-1.323,0.852
-986.678,-91.328,151.243,0.084,-1.334,0.987
-988.000,-87.000,153.000,0.140,-1.330,1.050
-985.962,-86.068,152.314,-0.033,-1.323,1.127
-988.041,-84.253,150.937,-0.199,-1.387,1.016
-989.934,-79.164,151.209,-0.207,-1.378,0.912
-989.263,-72.353,150.605,-0.254,-1.276,0.715
-988.758,-69.856,151.583,-0.601,-1.277,0.456
-989.002,-71.277,151.673,-1.178,-1.345,0.010
-989.000,-73.310,149.971,-1.643,-1.404,-0.521
-989.000,-78.695,151.795,-2.012,-1.405,-0.816
-989.012,-79.330,153.115,-2.104,-1.339,-1.186
-988.312,-80.091,152.320,-2.132,-1.299,-1.380
-987.366,-84.848,151.062,-2.187,-1.172,-1.458
-988.519,-86.361,149.393,-1.937,-1.116,-1.615
-988.621,-87.063,150.642,-1.316,-1.099,-1.830
-986.710,-84.364,152.115,-0.612,-0.960,-2.047
-985.000,-82.000,153.000,-0.420,-0.910,-2.030
-985.509,-84.427,154.051,-0.772,-0.911,-2.137
-988.289,-88.616,152.627,-1.067,-0.912,-2.334
-985.002,-92.056,151.063,-0.831,-0.878,-2.473
-985.241,-90.700,151.312,-0.435,-0.799,-2.550
-989.853,-88.171,152.236,-0.197,-0.763,-2.649
-985.525,-86.792,151.835,-0.062,-0.775,-2.824
-984.262,-88.276,152.058,-0.315,-0.767,-2.714
-987.963,-92.684,151.239,-0.809,-0.764,-2.590
-985.039,-96.796,148.120,-1.003,-0.889,-2.601
-982.278,-102.426,149.807,-0.775,-0.884,-2.506
-984.556,-104.343,151.507,-0.356,-0.810,-2.349
-986.063,-101.647,150.836,0.171,-0.867,-2.132
-984.015,-101.467,152.653,0.316,-0.809,-1.884
-981.947,-105.851,152.789,-0.051,-0.775,-1.643
-984.000,-110.000,151.000,-0.000,-0.840,-1.400
-984.394,-109.306,150.880,0.484,-0.844,-1.105
-981.442,-107.980,151.719,0.940,-0.795,-0.697
-980.803,-108.510,152.983,1.184,-0.717,-0.286
-980.354,-109.453,154.905,1.186,-0.700,0.014
-979.767,-110.530,154.660,1.347,-0.688,0.342
-979.922,-112.181,155.487,1.604,-0.603,0.606
-980.090,-108.452,156.965,2.081,-0.399,0.787
-981.894,-101.357,155.090,2.761,-0.091,1.033
-983.232,-98.621,155.750,3.013,0.110,1.175
-988.102,-94.301,154.623,2.965,0.235,1.235
-989.190,-89.034,151.254,2.852,0.330,1.298
-983.368,-88.432,153.591,2.389,0.368,1.349
-985.319,-92.286,154.695,1.701,0.447,1.296
-988.175,-92.502,151.451,1.573,0.491,1.182
-990.000,-87.000,149.000,1.960,0.490,1.260
-991.316,-83.276,148.850,1.954,0.494,1.440
-988.887,-83.193,149.904,1.309,0.442,1.636
-990.450,-85.851,149.481,0.549,0.378,1.704
-989.578,-85.296,148.735,0.226,0.301,1.662
-987.379,-87.997,149.026,-0.085,0.138,1.694
-986.524,-93.907,147.435,-0.481,-0.029,1.671
-985.077,-93.888,146.020,-0.396,-0.071,1.683
-988.741,-92.213,147.834,0.032,-0.130,1.684
-988.722,-88.019,148.992,0.493,-0.263,1.665
-986.443,-85.161,148.956,0.581,-0.284,1.743
-988.049,-84.886,148.682,0.293,-0.304,1.718
-989.025,-85.427,147.303,0.050,-0.386,1.655
-988.740,-85.850,147.180,0.009,-0.434,1.585
-987.911,-85.036,148.097,0.077,-0.502,1.539
-988.000,-87.000,148.000,0.070,-0.560,1.540
-988.840,-87.175,147.166,0.173,-0.617,1.533
-988.836,-86.737,146.134,0.469,-0.727,1.600
-984.652,-87.874,146.334,0.692,-0.866,1.602
-982.104,-91.388,147.679,0.653,-0.922,1.665
-983.361,-96.765,147.817,0.686,-0.923,1.786
-984.094,-97.979,146.684,1.098,-1.105,1.834
-985.101,-97.999,146.042,1.653,-1.265,1.974
-986.821,-96.282,148.682,2.145,-1.321,2.155
-988.902,-92.001,151.886,2.217,-1.501,2.388
-987.606,-87.639,150.743,1.980,-1.572,2.647
-986.545,-83.877,149.808,1.708,-1.482,2.831
-986.400,-82.802,152.568,1.232,-1.492,2.859
-984.688,-83.194,155.701,0.785,-1.553,2.780
-987.657,-84.099,154.382,0.351,-1.531,2.815
-989.000,-83.000,149.000,0.070,-1.470,2.940
-986.996,-80.288,149.214,0.138,-1.412,3.011
-987.963,-78.689,154.921,-0.029,-1.338,2.959
-986.569,-75.956,156.045,-0.368,-1.340,2.935
-986.377,-74.954,153.712,-0.641,-1.259,2.906
-990.355,-76.608,152.847,-0.949,-1.043,2.725
-990.316,-76.972,153.118,-1.056,-0.976,2.668
-985.673,-77.013,154.080,-1.132,-0.899,2.732
-983.955,-77.004,154.108,-1.321,-0.775,2.669
-984.881,-77.058,152.241,-1.303,-0.725,2.548
-985.193,-75.922,152.452,-1.075,-0.560,2.396
-987.538,-73.669,152.951,-0.831,-0.429,2.154
-988.938,-72.391,151.284,-0.595,-0.409,1.944
-987.549,-70.405,152.807,-0.469,-0.311,1.750
-988.245,-70.025,153.871,-0.399,-0.196,1.408
-989.000,-68.000,152.000,-0.140,-0.140,0.980
-988.138,-64.828,151.926,0.011,-0.139,0.609
-987.188,-69.630,151.578,-0.189,-0.137,0.305
-987.105,-76.558,149.168,-0.431,-0.175,-0.012
-988.337,-81.613,147.068,-0.228,-0.229,-0.237
-987.188,-84.644,147.270,0.537,-0.195,-0.288
-987.186,-83.514,148.229,1.262,-0.222,-0.266
-988.038,-80.725,150.209,1.787,-0.203,-0.129
-988.910,-76.320,152.013,2.095,-0.137,-0.127
-988.629,-73.974,150.455,1.960,-0.251,-0.328
-985.818,-74.959,149.131,1.621,-0.301,-0.290
-987.036,-78.804,148.841,1.223,-0.258,-0.081
-987.763,-84.003,149.201,0.970,-0.315,0.042
-988.366,-82.980,148.573,1.024,-0.352,0.078
-988.836,-79.659,148.207,1.212,-0.355,0.162
-987.000,-78.000,151.000,1.120,-0.420,0.350
-986.964,-76.034,151.176,0.645,-0.426,0.532
-986.918,-77.889,150.819,0.058,-0.443,0.719
-987.057,-80.671,150.702,-0.542,-0.632,0.856
-986.131,-81.213,149.474,-0.756,-0.719,0.994
-986.071,-82.490,150.382,-0.811,-0.693,1.199
-987.274,-81.332,149.686,-0.911,-0.701,1.362
-990.316,-77.792,150.159,-0.758,-0.702,1.477
-991.325,-76.964,151.131,-0.820,-0.765,1.536
-984.975,-77.705,148.332,-1.080,-0.781,1.636
-984.725,-79.456,149.030,-1.189,-0.749,1.843
-990.198,-79.060,150.181,-1.106,-0.843,1.859
-991.445,-72.580,147.934,-0.670,-0.937,1.657
-986.031,-68.474,148.559,-0.285,-0.884,1.623
-985.694,-69.123,150.111,-0.477,-0.842,1.687
-991.000,-69.000,150.000,-0.770,-0.910,1.680
-990.998,-68.232,149.172,-0.726,-0.975,1.461
-991.415,-65.883,148.637,-0.503,-0.984,1.028
-988.863,-63.538,150.410,-0.306,-0.976,0.694
-990.873,-62.429,150.466,-0.512,-0.984,0.394
-992.188,-62.158,148.345,-0.758,-0.975,0.100
-988.472,-64.766,149.519,-0.774,-0.983,-0.218
-988.989,-67.088,151.033,-0.845,-0.979,-0.508
-986.221,-67.893,150.993,-0.845,-0.978,-0.748
-986.330,-70.265,151.089,-0.743,-0.987,-1.015
-988.410,-73.200,150.300,-0.485,-0.966,-1.095
-989.590,-74.729,149.787,-0.128,-1.005,-1.201
-988.939,-75.154,150.296,0.238,-0.918,-1.257
-986.492,-76.778,151.330,0.452,-0.833,-1.163
-987.126,-80.616,152.027,0.414,-0.831,-1.111
-987.000,-83.000,151.000,0.560,-0.700,-1.050
-987.070,-82.230,149.079,1.036,-0.636,-1.057
-986.010,-80.624,150.248,1.519,-0.574,-0.908
-987.093,-78.201,151.559,1.695,-0.590,-0.739
-987.182,-76.052,150.396,1.597,-0.630,-0.624
-985.994,-76.348,151.553,1.228,-0.524,-0.425
-989.689,-76.982,150.411,0.848,-0.588,-0.438
-987.621,-75.908,150.213,0.683,-0.627,-0.409
-984.897,-75.904,153.023,0.253,-0.624,-0.221
-988.242,-77.035,149.808,-0.178,-0.699,-0.145
-989.406,-75.805,148.961,-0.201,-0.683,-0.106
-987.923,-74.088,151.023,-0.358,-0.777,0.007
-987.804,-74.426,150.844,-0.922,-0.857,0.104
-986.295,-76.935,150.910,-1.463,-0.835,0.166
-986.297,-79.132,149.905,-1.603,-0.841,0.300
-988.000,-78.000,151.000,-1.400,-0.840,0.350
-986.965,-76.237,151.228,-1.204,-0.844,0.404
-988.545,-74.010,150.005,-1.111,-0.789,0.450
-988.392,-71.178,150.129,-0.859,-0.757,0.321
-987.941,-71.592,149.576,-0.771,-0.797,0.259
-989.109,-71.560,148.372,-0.836,-0.870,0.148
-988.904,-69.717,146.866,-0.544,-0.912,-0.041
-989.003,-70.040,149.279,-0.348,-0.912,-0.227
-988.967,-69.132,150.208,-0.355,-0.975,-0.472
-989.820,-69.203,147.123,-0.233,-0.989,-0.668
-989.932,-73.578,148.774,-0.200,-0.964,-0.760
-989.225,-76.202,150.940,-0.181,-1.026,-0.811
-986.159,-77.910,150.760,0.095,-1.038,-1.022
-985.147,-78.933,149.468,0.570,-0.960,-1.117
-985.954,-76.564,149.252,0.955,-0.993,-1.043
-986.000,-75.000,152.000,1.120,-1.050,-1.050
-989.685,-74.241,151.309,1.073,-1.045,-1.046
-988.235,-72.864,150.618,0.900,-1.105,-1.106
-985.900,-74.950,151.393,0.661,-1.124,-1.094
-987.800,-78.991,150.495,0.282,-1.122,-1.006
-987.664,-79.981,151.710,0.133,-1.105,-0.973
-987.932,-78.422,153.234,0.224,-1.029,-0.986
-985.799,-74.720,154.054,0.124,-0.898,-0.975
-985.790,-73.831,154.055,-0.120,-0.773,-0.912
-988.058,-76.589,153.223,-0.369,-0.775,-0.915
-986.358,-77.990,151.740,-0.567,-0.687,-0.862
-986.088,-81.358,150.424,-0.701,-0.571,-0.816
-986.932,-83.482,151.655,-0.638,-0.561,-0.691
-985.252,-84.672,152.008,-0.432,-0.562,-0.518
-983.965,-87.183,153.269,-0.342,-0.553,-0.393
-985.000,-86.000,153.000,-0.210,-0.420,-0.140
-986.820,-85.893,151.747,0.152,-0.287,0.048
-986.603,-85.003,153.998,0.406,-0.282,0.217
-984.682,-82.178,152.143,0.431,-0.220,0.410
-985.738,-82.218,150.771,0.605,-0.045,0.589
-987.207,-81.664,150.538,0.709,-0.014,0.755
-988.253,-82.376,148.753,0.715,-0.079,0.867
-988.992,-82.900,149.021,0.849,-0.069,0.987
-988.090,-80.221,148.951,0.905,-0.070,1.046
-987.106,-77.665,150.638,1.068,-0.062,1.111
-987.188,-74.239,150.671,1.215,-0.153,1.088
-988.762,-71.976,149.216,1.069,-0.268,1.005
-988.462,-72.101,148.613,0.748,-0.291,0.941
-989.648,-72.008,148.025,0.384,-0.388,0.799
-990.915,-73.299,149.094,0.100,-0.507,0.774
-989.000,-75.000,148.000,-0.140,-0.630,0.770
-988.899,-76.650,148.604,-0.218,-0.698,0.758
-989.077,-78.712,150.261,-0.116,-0.734,0.876
-988.451,-79.042,148.999,0.053,-0.871,0.954
-986.657,-78.852,149.553,0.222,-0.899,1.034
-985.947,-76.956,149.896,0.312,-0.804,1.165
-987.110,-74.703,150.242,0.463,-0.769,1.181
-987.020,-73.855,150.955,0.643,-0.769,1.115
-987.947,-70.263,149.117,0.825,-0.708,1.056
-987.934,-70.083,149.527,0.935,-0.626,0.942
-989.080,-73.800,150.153,0.688,-0.746,0.814
-989.854,-72.848,146.579,0.456,-0.958,0.695
-988.118,-71.959,147.137,0.561,-0.949,0.590
-989.766,-71.537,150.845,0.631,-0.924,0.547
-990.902,-68.543,150.835,0.535,-1.075,0.480
-989.000,-67.000,150.000,0.210,-1.120,0.490
-988.793,-66.958,149.896,-0.291,-1.051,0.506
-989.985,-67.160,151.367,-0.492,-1.102,0.336
-988.875,-65.887,152.863,-0.501,-1.103,0.189
-986.761,-64.668,152.949,-0.676,-0.977,0.074
-987.734,-67.568,152.857,-0.948,-0.879,-0.038
-990.072,-71.827,151.656,-1.139,-0.836,-0.188
-986.682,-74.137,151.009,-0.953,-0.839,-0.435
-986.692,-75.887,151.048,-0.585,-0.776,-0.493
-989.379,-76.283,150.108,-0.280,-0.754,-0.480
-986.324,-74.591,150.464,-0.003,-0.803,-0.506
-986.365,-73.368,151.373,0.168,-0.654,-0.464
-986.900,-72.613,150.336,0.390,-0.530,-0.547
-988.528,-71.772,150.295,0.482,-0.581,-0.652
-986.180,-72.277,152.269,0.221,-0.640,-0.711
-984.000,-76.000,152.000,-0.210,-0.700,-0.770
-989.730,-79.670,149.306,-0.312,-0.644,-0.662
-986.475,-81.455,148.689,-0.050,-0.612,-0.427
-985.448,-82.576,149.684,0.058,-0.656,-0.180
-989.211,-80.719,150.317,0.314,-0.579,0.058
-986.407,-80.218,151.425,0.518,-0.581,0.307
-984.824,-81.050,152.059,0.385,-0.630,0.538
-985.103,-81.031,151.966,0.354,-0.553,0.712
-986.953,-81.102,151.071,0.475,-0.492,0.833
-985.469,-78.629,150.886,0.675,-0.488,0.900
-985.476,-76.176,150.652,0.703,-0.494,0.949
-988.251,-72.510,149.239,0.729,-0.484,1.054
-986.884,-70.991,151.269,0.548,-0.500,1.147
-987.750,-71.888,151.401,-0.035,-0.470,1.100
-991.496,-68.408,148.812,-0.294,-0.420,1.138
-992.000,-68.000,150.000,-0.420,-0.490,1.260
-990.071,-70.739,150.222,-0.721,-0.552,1.318
-990.254,-71.821,148.961,-1.000,-0.615,1.396
-987.919,-71.773,149.998,-1.052,-0.607,1.360
-987.044,-70.007,151.593,-0.888,-0.527,1.323
-989.728,-70.658,150.085,-0.830,-0.599,1.320
-989.769,-72.071,149.072,-0.738,-0.625,1.236
-988.934,-70.878,150.018,-0.625,-0.635,1.108
-988.023,-69.188,149.086,-0.568,-0.699,0.923
-988.729,-65.779,148.858,-0.439,-0.689,0.793
-988.929,-64.238,149.160,-0.441,-0.794,0.680
-989.503,-66.473,148.445,-0.578,-0.858,0.556
-991.343,-66.925,147.740,-0.635,-0.845,0.418
-988.719,-67.078,148.283,-0.503,-0.943,0.215
-985.736,-65.572,149.091,-0.331,-0.982,0.051
-985.000,-64.000,150.000,-0.280,-1.050,-0.070
-987.195,-66.639,150.253,-0.277,-1.176,-0.306
-992.439,-67.704,148.178,-0.326,-1.242,-0.533
-990.645,-70.370,149.042,-0.380,-1.305,-0.586
-985.343,-75.664,150.256,-0.221,-1.344,-0.724
-985.214,-76.945,150.081,0.316,-1.297,-0.894
-986.139,-75.633,151.124,0.982,-1.159,-1.005
-988.237,-73.857,149.850,1.423,-1.123,-1.046
-990.037,-72.115,148.971,1.545,-1.186,-0.921
-988.941,-71.082,149.748,1.380,-1.244,-0.797
-990.243,-70.632,151.183,1.214,-1.283,-0.671
-990.317,-68.004,153.150,1.151,-1.185,-0.589
-987.598,-64.887,154.690,0.878,-1.073,-0.526
-986.942,-65.515,156.459,0.293,-0.923,-0.495
-986.995,-67.190,155.569,-0.291,-0.752,-0.573
-987.000,-68.000,152.000,-0.770,-0.700,-0.630
-986.996,-69.547,152.512,-1.202,-0.644,-0.639
-986.992,-73.555,155.032,-1.532,-0.533,-0.528
-986.795,-77.372,153.789,-1.707,-0.398,-0.440
-986.833,-78.052,152.378,-1.552,-0.296,-0.385
-986.797,-77.914,151.949,-1.181,-0.147,-0.348
-987.015,-76.478,153.433,-0.848,-0.067,-0.331
-986.992,-75.029,152.745,-0.777,-0.067,-0.122
-987.007,-77.725,149.121,-0.906,-0.003,-0.002
-986.272,-79.910,149.705,-0.822,-0.003,0.089
-985.894,-80.450,149.635,-0.558,0.050,0.310
-988.587,-81.303,148.183,-0.122,0.049,0.347
-987.653,-77.845,148.069,0.506,-0.021,0.402
-985.961,-74.435,149.705,0.905,0.012,0.641
-988.328,-75.300,150.900,0.711,-0.008,0.870
-988.000,-78.000,148.000,0.420,-0.070,0.980
-987.754,-80.058,146.034,0.635,-0.133,0.974
-989.093,-77.955,146.544,1.072,-0.179,1.114
-987.663,-75.267,148.285,1.370,-0.334,1.314
-986.351,-71.743,149.192,1.354,-0.457,1.314
-987.505,-68.001,148.898,1.197,-0.402,1.365
-989.235,-68.048,148.947,0.873,-0.542,1.385
-990.093,-65.705,147.902,0.311,-0.704,1.251
-991.042,-63.058,147.862,0.012,-0.699,1.192
-989.215,-62.425,150.547,-0.200,-0.752,1.137
-990.910,-59.910,150.247,-0.598,-0.816,1.077
-993.910,-58.102,148.097,-1.075,-0.885,0.963
-989.280,-58.733,152.576,-1.716,-0.899,0.723
-988.223,-63.992,153.014,-2.317,-0.813,0.490
-987.658,-68.246,148.655,-2.332,-0.764,0.240
-987.000,-68.000,150.000,-1.750,-0.700,0.000
-989.871,-68.188,150.269,-1.086,-0.637,-0.243
-988.634,-65.554,148.401,-0.350,-0.581,-0.445
-987.341,-66.613,147.678,0.153,-0.542,-0.602
-989.240,-70.380,148.353,0.264,-0.578,-0.815
-992.938,-67.744,147.341,0.726,-0.541,-0.953
-989.395,-68.581,147.344,1.280,-0.581,-1.081
-986.199,-67.667,149.044,1.400,-0.629,-1.115
-991.742,-64.840,148.951,1.343,-0.624,-1.049
-990.751,-69.917,150.038,0.975,-0.749,-1.113
-988.896,-72.379,148.518,0.390,-0.778,-1.049
-987.834,-75.571,148.658,0.009,-0.773,-0.888
-986.837,-78.165,150.431,-0.046,-0.744,-0.800
-988.061,-73.410,149.934,0.241,-0.695,-0.642
-986.864,-72.098,151.204,0.330,-0.695,-0.468
-987.000,-72.000,151.000,-0.000,-0.630,-0.350
-985.199,-72.586,150.113,-0.424,-0.688,-0.172
-986.150,-74.890,149.170,-0.790,-0.674,-0.015
-987.283,-75.098,149.432,-0.802,-0.558,0.022
-987.107,-77.162,149.923,-0.552,-0.580,0.155
-989.461,-73.320,148.514,-0.207,-0.526,0.197
-987.189,-65.840,149.348,-0.000,-0.498,0.140
-987.228,-66.195,149.974,-0.479,-0.563,0.214
-989.949,-67.914,149.088,-1.220,-0.561,0.150
-989.242,-70.171,148.085,-1.473,-0.603,0.070
-988.190,-72.882,148.096,-1.426,-0.732,0.073
-987.411,-72.977,146.960,-1.321,-0.789,0.089
-988.702,-75.508,146.062,-1.048,-0.752,0.186
-989.959,-76.875,148.860,-0.748,-0.801,0.207
-987.489,-74.672,148.752,-0.345,-0.924,0.214
-986.000,-74.000,148.000,0.140,-0.910,0.210
-989.417,-73.356,148.122,0.500,-0.839,0.145
-990.718,-70.058,147.682,0.933,-0.893,0.141
-988.378,-67.826,148.870,1.162,-0.911,0.106
-990.288,-68.119,148.761,1.018,-0.953,0.033
-989.801,-65.798,149.287,0.844,-1.100,-0.022
-986.597,-65.518,148.626,0.533,-1.118,-0.080
-988.166,-69.206,148.074,0.033,-1.202,-0.066
-988.121,-69.945,149.031,-0.328,-1.326,-0.006
-987.680,-72.915,148.010,-0.670,-1.377,0.105
-988.317,-75.688,149.160,-1.055,-1.470,0.245
-986.866,-73.272,151.054,-1.125,-1.426,0.318
-987.064,-73.673,152.562,-1.151,-1.405,0.378
-986.778,-73.352,151.177,-1.172,-1.372,0.445
-988.498,-70.869,150.204,-1.034,-1.244,0.586
-990.000,-73.000,152.000,-1.050,-1.190,0.700
-987.218,-73.413,149.398,-0.954,-1.126,0.699
-987.609,-70.485,148.783,-0.636,-1.118,0.742
-987.841,-69.545,148.447,-0.483,-1.113,0.851
-988.520,-67.702,148.731,-0.524,-1.156,0.952
-990.246,-65.044,151.984,-0.570,-1.172,0.832
-989.728,-62.238,151.887,-0.556,-1.012,0.573
-988.976,-59.994,153.111,-0.647,-0.986,0.329
-989.833,-62.716,151.365,-1.017,-1.111,0.022
-991.344,-64.296,147.855,-1.318,-1.185,-0.227
-987.475,-62.997,150.573,-1.278,-1.189,-0.498
-985.369,-62.945,153.089,-1.272,-1.195,-0.853
-988.000,-60.752,152.339,-1.192,-1.170,-1.219
-989.447,-60.279,150.459,-1.010,-1.097,-1.578
-992.389,-60.883,150.055,-0.971,-1.046,-1.953
-991.000,-59.000,150.000,-0.770,-1.050,-2.380
-987.949,-58.864,149.023,-0.570,-1.052,-2.696
-989.572,-60.163,149.679,-0.588,-1.082,-2.887
-989.926,-64.166,150.178,-0.811,-1.222,-3.062
-989.417,-70.517,149.753,-1.148,-1.263,-3.257
-986.227,-78.132,150.456,-1.121,-1.269,-3.400
-983.860,-85.169,152.445,-0.730,-1.239,-3.433
-985.080,-85.883,152.938,-0.079,-1.112,-3.426
-985.016,-84.961,151.989,0.720,-1.055,-3.244
-985.719,-85.886,153.530,1.103,-0.943,-2.880
-985.616,-85.957,153.974,1.116,-0.816,-2.595
-983.681,-86.408,151.254,1.150,-0.686,-2.393
-984.689,-87.310,151.737,1.238,-0.617,-2.077
-985.984,-86.519,153.132,1.363,-0.626,-1.712
-984.891,-84.830,153.095,1.299,-0.546,-1.334
-986.000,-85.000,154.000,0.980,-0.490,-0.840
-986.263,-85.108,151.451,0.620,-0.426,-0.403
-984.820,-84.737,151.100,0.196,-0.458,-0.092
-985.755,-85.853,152.929,-0.135,-0.519,0.213
-985.101,-85.488,150.634,-0.286,-0.442,0.506
-985.549,-85.170,151.887,-0.526,-0.422,0.837
-988.336,-85.979,151.394,-0.728,-0.417,1.194
-986.791,-83.785,150.106,-0.773,-0.421,1.413
-985.880,-82.091,152.025,-0.835,-0.421,1.594
-988.422,-79.232,149.574,-0.848,-0.461,1.787
-989.817,-74.102,148.715,-0.853,-0.595,1.912
-989.420,-72.006,148.952,-1.081,-0.663,2.025
-988.188,-69.932,149.450,-1.376,-0.740,1.988
-988.365,-68.800,149.687,-1.350,-0.766,1.844
-991.454,-66.355,147.855,-1.078,-0.782,1.639
-991.000,-62.000,149.000,-0.910,-0.910,1.330
-988.024,-60.955,149.975,-0.957,-0.972,1.036
-989.499,-61.640,150.058,-1.106,-1.074,0.548
-989.894,-62.389,149.737,-1.014,-1.188,-0.092
-990.043,-61.549,150.896,-0.602,-1.177,-0.619
-988.939,-65.197,152.178,-0.399,-1.217,-1.086
-986.781,-70.952,152.015,-0.507,-1.258,-1.481
-988.104,-73.178,151.913,-0.238,-1.183,-1.769
-987.199,-76.697,150.064,0.439,-1.122,-1.952
-985.134,-80.244,151.395,1.011,-1.072,-1.977
-985.193,-82.918,152.525,1.479,-0.957,-1.873
-987.177,-81.835,151.383,2.065,-0.837,-1.721
-987.306,-81.232,152.809,2.755,-0.720,-1.501
-985.848,-81.702,152.494,3.024,-0.716,-1.250
-988.479,-78.556,150.957,2.834,-0.771,-0.925
-989.000,-78.000,153.000,2.590,-0.700,-0.630
-988.043,-76.535,154.977,2.174,-0.636,-0.565
-987.206,-73.434,154.817,1.704,-0.583,-0.472
-987.180,-72.476,155.416,1.041,-0.514,-0.319
-988.218,-71.309,153.783,0.181,-0.458,-0.246
-985.595,-71.277,153.352,-0.427,-0.406,-0.196
-985.755,-73.749,155.276,-1.181,-0.429,-0.220
-990.184,-77.253,153.754,-1.929,-0.414,-0.204
-987.336,-79.856,150.198,-2.106,-0.290,-0.079
-986.984,-80.440,149.654,-1.900,-0.206,-0.006
-988.165,-76.857,150.056,-1.520,-0.289,0.031
-983.519,-73.094,147.107,-1.347,-0.437,0.174
-989.203,-73.653,147.778,-1.666,-0.532,0.345
-988.931,-75.673,147.565,-2.039,-0.689,0.324
-988.194,-78.473,148.546,-2.004,-0.858,0.288
-985.000,-81.000,151.000,-1.820,-0.910,0.420
-986.661,-82.009,148.159,-1.433,-0.969,0.431
-988.298,-81.251,149.936,-0.683,-0.996,0.402
-981.665,-81.312,152.090,-0.217,-0.931,0.447
-992.802,-82.229,151.379,0.196,-0.889,0.365
-984.356,-79.677,149.062,0.905,-0.792,0.376
-991.276,-76.217,149.493,1.424,-0.684,0.411
-987.816,-72.772,151.013,1.690,-0.707,0.266
-987.570,-71.085,150.959,1.625,-0.831,0.085
-994.870,-69.324,151.086,1.438,-0.905,-0.109
-983.626,-70.255,151.891,1.205,-0.943,-0.189
-997.832,-73.958,153.424,0.774,-1.038,-0.281
-977.048,-74.046,151.578,0.403,-1.027,-0.374
-993.481,-76.905,156.688,0.157,-0.962,-0.341
-983.433,-75.520,154.059,0.144,-0.899,-0.346
-988.000,-76.000,154.000,0.000,-0.840,-0.210
-992.443,-78.095,154.138,-0.417,-0.782,-0.082
-972.670,-79.323,150.127,-0.917,-0.712,0.062
-1005.183,-83.290,154.942,-1.152,-0.664,0.292
-963.909,-79.942,148.060,-0.880,-0.607,0.422
-1016.185,-79.814,154.518,-0.731,-0.648,0.645
-964.668,-71.973,149.617,-0.626,-0.620,0.697
-993.628,-75.875,155.254,-1.110,-0.714,0.782
-1002.205,-76.048,152.066,-1.549,-0.778,0.783
-934.969,-71.439,142.654,-1.365,-0.732,0.716
-1121.932,-88.285,172.685,-1.567,-0.874,0.937
-457.660,-35.944,69.908,-0.662,-0.355,0.392
