acc_x[mg],acc_y[mg],acc_z[mg],gyro_x[dps],gyro_y[dps],gyro_z[dps]
-78.000,-244.000,970.000,-0.280,-0.700,-0.210
-82.050,-253.507,1012.659,-0.233,-0.728,-0.157
-76.263,-231.399,922.018,-0.139,-0.671,-0.123
-82.338,-255.661,1016.948,-0.150,-0.722,-0.156
-74.858,-234.189,932.320,-0.095,-0.691,-0.127
-80.214,-249.347,996.310,0.058,-0.684,-0.150
-78.258,-239.519,958.167,0.044,-0.635,-0.134
-80.216,-245.076,974.206,0.010,-0.780,-0.142
-77.407,-243.093,973.708,0.204,-0.715,-0.142
-77.638,-240.138,961.575,0.062,-0.614,-0.130
-80.455,-246.623,983.151,-0.061,-0.697,-0.195
-77.634,-238.921,958.362,0.110,-0.684,-0.191
-79.901,-244.647,981.932,0.131,-0.737,-0.095
-76.894,-238.487,964.356,0.155,-0.761,-0.081
-78.656,-241.085,973.305,0.120,-0.691,-0.148
-80.000,-241.000,970.000,-0.070,-0.700,-0.140
-78.120,-239.449,967.274,-0.143,-0.764,-0.133
-77.255,-239.760,974.633,-0.164,-0.774,-0.160
-77.781,-236.717,963.835,-0.332,-0.769,-0.046
-79.165,-239.640,971.849,-0.286,-0.757,-0.026
-75.705,-227.383,965.787,-0.431,-0.643,-0.197
-78.187,-226.957,975.790,-1.360,-0.567,-0.081
-80.949,-235.214,973.283,-1.975,-0.791,0.149
-79.058,-234.903,974.319,-1.960,-0.855,0.143
-79.781,-238.935,976.040,-2.066,-0.643,0.142
-79.619,-242.169,970.948,-2.128,-0.689,0.066
-78.188,-244.838,974.445,-2.065,-0.629,-0.094
-78.022,-248.920,967.553,-2.181,-0.564,-0.165
-78.017,-253.403,969.182,-2.330,-0.636,-0.232
-79.330,-257.502,968.456,-2.109,-0.550,-0.287
-81.000,-259.000,968.000,-1.610,-0.630,-0.350
-80.162,-256.680,968.281,-1.066,-0.647,-0.471
-79.866,-251.601,968.243,-0.541,-0.559,-0.561
-80.120,-247.147,970.041,-0.255,-0.572,-0.495
-79.668,-245.224,970.001,-0.183,-0.542,-0.336
-78.470,-245.130,971.164,-0.097,-0.589,-0.269
-78.127,-246.292,969.477,0.023,-0.632,-0.285
-79.015,-246.997,968.984,0.074,-0.631,-0.277
-78.091,-246.133,968.105,0.196,-0.631,-0.213
-77.853,-244.302,968.527,0.296,-0.622,-0.208
-78.143,-243.843,970.064,0.174,-0.679,-0.175
-78.126,-243.696,969.179,0.138,-0.708,-0.114
-79.853,-242.551,968.997,0.115,-0.695,-0.167
-79.478,-243.281,970.350,0.065,-0.703,-0.107
-77.958,-242.823,971.051,0.065,-0.698,-0.079
-79.000,-243.000,971.000,0.000,-0.700,-0.140
-78.222,-244.911,970.939,0.002,-0.763,-0.075
-78.286,-244.327,971.152,-0.090,-0.738,-0.114
-80.178,-243.789,970.126,-0.210,-0.630,-0.156
-79.267,-244.033,969.775,-0.198,-0.667,-0.129
-79.121,-243.935,969.757,-0.232,-0.701,-0.147
-78.826,-243.978,970.172,-0.293,-0.709,-0.137
-79.104,-244.036,971.013,-0.355,-0.774,-0.141
-80.034,-244.939,970.108,-0.416,-0.773,-0.140
-79.089,-245.084,969.083,-0.432,-0.714,-0.140
-79.089,-244.890,968.758,-0.358,-0.684,-0.136
-78.698,-244.948,968.955,-0.409,-0.743,-0.171
-79.492,-245.145,968.377,-0.512,-0.776,-0.227
-78.062,-244.141,968.107,-0.367,-0.762,-0.198
-76.076,-238.005,970.479,-0.473,-0.683,-0.218
-79.000,-237.000,973.000,-0.980,-0.630,-0.210
-79.232,-242.569,973.147,-1.258,-0.751,-0.029
-78.160,-242.412,972.106,-1.159,-0.796,0.075
-77.346,-243.038,971.925,-1.121,-0.680,0.053
-77.216,-246.907,971.050,-1.282,-0.608,0.113
-78.197,-248.371,969.397,-1.328,-0.646,0.127
-78.092,-250.670,970.242,-1.340,-0.618,0.060
-80.188,-253.127,969.882,-1.318,-0.637,0.071
-81.039,-253.974,968.953,-0.950,-0.702,0.011
-80.871,-254.077,970.029,-0.441,-0.637,-0.124
-81.136,-252.981,968.017,-0.142,-0.639,-0.144
-81.147,-249.991,966.364,0.046,-0.580,-0.162
-82.609,-249.069,969.360,0.189,-0.599,-0.251
-81.152,-249.930,969.379,0.230,-0.724,-0.281
-78.788,-246.198,968.073,0.469,-0.693,-0.282
-78.000,-242.000,970.000,0.630,-0.700,-0.280
-77.031,-240.148,970.025,0.395,-0.703,-0.220
-77.651,-240.390,971.216,0.138,-0.699,-0.159
-78.272,-242.030,972.503,-0.050,-0.694,-0.092
-77.414,-241.527,970.599,-0.031,-0.736,-0.066
-77.063,-242.886,969.739,-0.036,-0.750,-0.059
-78.335,-245.458,970.026,-0.261,-0.600,0.016
-79.001,-247.133,969.948,-0.349,-0.640,-0.006
-78.984,-248.041,968.164,-0.287,-0.703,-0.069
-79.069,-247.044,967.584,-0.211,-0.638,-0.065
-78.842,-247.652,969.025,-0.257,-0.626,-0.117
-79.238,-247.673,967.845,-0.266,-0.655,-0.151
-78.438,-246.420,968.858,-0.164,-0.728,-0.132
-78.150,-245.876,971.404,-0.142,-0.668,-0.147
-79.091,-246.091,970.826,-0.135,-0.638,-0.132
-79.000,-246.000,970.000,-0.070,-0.700,-0.070
-78.962,-244.164,969.861,-0.057,-0.641,-0.070
-79.583,-244.485,970.976,-0.178,-0.617,-0.023
-80.894,-245.813,969.675,-0.230,-0.672,-0.009
-80.483,-245.694,968.789,-0.175,-0.715,-0.140
-80.130,-244.511,970.277,-0.128,-0.684,-0.104
-81.110,-245.587,969.752,-0.148,-0.720,-0.083
-79.830,-248.070,970.081,-0.135,-0.768,-0.139
-78.053,-247.090,970.100,-0.072,-0.701,-0.074
-78.581,-247.569,968.961,-0.028,-0.755,-0.067
-80.452,-248.440,969.534,0.116,-0.743,-0.066
-81.579,-247.073,969.931,0.103,-0.666,-0.102
-82.055,-247.189,969.543,0.113,-0.746,-0.165
-80.101,-246.421,968.702,0.346,-0.757,-0.242
-77.849,-243.609,969.207,0.325,-0.693,-0.366
-78.000,-243.000,970.000,0.140,-0.700,-0.420
-77.204,-243.265,969.043,0.075,-0.707,-0.424
-76.160,-240.579,969.662,-0.010,-0.639,-0.374
-75.867,-240.260,969.956,-0.243,-0.664,-0.278
-76.145,-240.953,969.994,-0.448,-0.699,-0.128
-75.758,-239.618,971.382,-0.648,-0.581,-0.055
-76.352,-241.718,971.928,-0.885,-0.574,0.032
-78.091,-244.144,970.879,-0.984,-0.632,0.141
-78.914,-246.746,969.119,-1.046,-0.631,0.075
-80.001,-248.993,968.098,-1.055,-0.583,0.071
-79.187,-248.254,967.659,-1.076,-0.494,-0.010
-79.779,-247.543,968.727,-1.191,-0.525,-0.109
-81.495,-246.543,970.310,-1.117,-0.569,-0.024
-80.598,-247.475,969.540,-0.808,-0.557,-0.002
-79.964,-247.907,969.019,-0.622,-0.560,-0.001
-80.000,-248.000,969.000,-0.700,-0.560,-0.070
-80.866,-249.887,968.909,-0.714,-0.617,-0.140
-81.152,-249.839,969.230,-0.598,-0.688,-0.132
-80.481,-251.222,967.970,-0.454,-0.706,-0.157
-79.284,-251.831,968.248,-0.209,-0.694,-0.097
-79.415,-250.646,968.890,-0.011,-0.706,-0.083
-81.256,-251.139,969.117,0.094,-0.694,-0.150
-79.789,-250.945,970.030,0.220,-0.705,-0.138
-78.012,-250.075,969.129,0.340,-0.769,-0.138
-78.726,-249.153,967.980,0.469,-0.718,-0.145
-79.789,-248.424,968.447,0.503,-0.686,-0.129
-79.720,-246.896,969.070,0.500,-0.712,-0.179
-78.362,-245.203,968.504,0.619,-0.691,-0.219
-78.001,-243.458,969.527,0.593,-0.707,-0.206
-77.987,-243.091,971.061,0.386,-0.697,-0.211
-78.000,-243.000,970.000,0.210,-0.700,-0.210
-77.943,-241.069,969.848,0.144,-0.704,-0.211
-79.294,-242.314,970.763,0.063,-0.690,-0.169
-80.665,-243.743,971.439,-0.157,-0.743,-0.082
-78.710,-244.416,971.719,-0.195,-0.786,-0.076
-78.032,-244.985,970.204,-0.131,-0.735,-0.049
-77.833,-245.284,970.074,-0.252,-0.606,0.007
-78.135,-248.247,969.933,-0.430,-0.639,-0.001
-79.984,-249.975,969.030,-0.431,-0.703,-0.001
-78.446,-250.005,968.986,-0.244,-0.637,0.000
-78.111,-249.918,968.792,-0.156,-0.634,0.003
-80.412,-250.109,968.899,-0.082,-0.615,-0.028
-80.881,-249.325,968.660,0.069,-0.668,-0.103
-79.504,-247.532,969.271,0.154,-0.686,-0.157
-79.114,-246.931,970.021,0.133,-0.630,-0.217
-80.000,-246.000,970.000,0.140,-0.700,-0.210
-79.041,-245.072,971.692,0.265,-0.647,-0.205
-80.372,-245.363,972.411,0.328,-0.606,-0.220
-80.576,-248.038,970.490,0.437,-0.691,-0.191
-77.498,-248.579,969.313,0.494,-0.674,-0.255
-79.172,-246.291,968.468,0.362,-0.612,-0.265
-81.147,-247.398,967.880,0.264,-0.648,-0.200
-80.985,-246.798,968.050,0.207,-0.699,-0.212
-80.147,-244.119,968.946,0.207,-0.633,-0.212
-78.182,-243.245,969.048,0.265,-0.675,-0.159
-78.467,-241.614,969.227,0.307,-0.729,-0.082
-79.669,-240.532,970.719,0.154,-0.642,-0.075
-79.910,-241.722,970.390,-0.101,-0.652,-0.042
-78.444,-243.381,969.954,-0.131,-0.719,-0.002
-78.155,-244.139,969.913,-0.151,-0.778,-0.081
-79.000,-246.000,969.000,-0.210,-0.770,-0.070
-77.987,-247.102,969.731,-0.207,-0.702,-0.062
-79.495,-246.077,971.007,-0.224,-0.746,-0.087
-79.347,-246.471,970.201,-0.131,-0.789,-0.016
-77.080,-247.382,969.722,-0.025,-0.733,-0.002
-79.058,-248.419,969.680,0.017,-0.691,0.008
-79.832,-248.929,968.776,0.087,-0.704,-0.012
-79.007,-247.923,969.064,0.144,-0.698,-0.074
-79.934,-247.086,969.072,0.205,-0.696,-0.133
-80.088,-245.429,968.703,0.270,-0.763,-0.209
-79.902,-244.038,969.918,0.291,-0.733,-0.165
-80.059,-244.292,968.909,0.242,-0.679,-0.132
-79.924,-245.584,969.889,0.200,-0.717,-0.128
-80.041,-245.821,972.101,0.214,-0.685,-0.041
-79.979,-244.924,969.593,0.212,-0.713,0.001
-80.000,-245.000,970.000,0.280,-0.770,0.000
-79.985,-244.867,971.947,0.295,-0.706,0.002
-80.635,-247.589,971.426,0.196,-0.740,-0.040
-81.021,-250.788,969.166,0.383,-0.799,-0.157
-78.197,-247.232,966.985,0.727,-0.702,-0.250
-77.186,-242.820,968.847,0.712,-0.609,-0.301
-79.527,-243.310,969.909,0.419,-0.646,-0.360
-79.913,-242.804,970.116,0.199,-0.702,-0.346
-78.115,-239.243,971.938,0.141,-0.702,-0.285
-77.800,-237.266,971.900,0.102,-0.648,-0.223
-78.260,-235.661,973.141,-0.134,-0.575,-0.167
-77.614,-234.750,973.833,-0.523,-0.552,-0.074
-78.610,-237.602,971.796,-0.808,-0.581,0.053
-78.898,-240.912,970.720,-0.945,-0.646,0.053
-79.146,-244.706,969.847,-1.069,-0.622,-0.003
-80.000,-249.000,969.000,-1.120,-0.630,-0.000
-80.752,-250.801,968.890,-0.947,-0.702,-0.115
-82.068,-252.469,969.840,-0.746,-0.642,-0.216
-81.276,-253.361,969.354,-0.564,-0.662,-0.190
-80.775,-252.099,968.771,-0.216,-0.716,-0.255
-79.313,-250.197,970.613,0.108,-0.691,-0.274
-79.177,-248.832,970.623,0.327,-0.704,-0.295
-78.890,-249.008,968.966,0.501,-0.699,-0.351
-78.816,-248.090,970.755,0.622,-0.698,-0.346
-81.077,-248.994,973.015,0.730,-0.752,-0.419
-79.848,-253.836,971.162,1.037,-0.823,-0.332
-80.906,-254.898,967.861,1.666,-0.850,-0.280
-77.569,-253.356,966.496,2.129,-0.805,-0.391
-77.470,-252.711,967.293,2.391,-0.650,-0.319
-84.507,-250.596,968.045,2.611,-0.651,-0.375
-80.000,-248.000,968.000,2.660,-0.840,-0.490
-77.686,-244.660,968.750,2.832,-0.849,-0.428
-78.544,-239.735,970.517,3.008,-0.830,-0.420
-77.396,-234.070,971.501,2.925,-0.848,-0.386
-78.306,-230.441,972.262,2.588,-0.835,-0.315
-75.943,-230.000,972.905,2.161,-0.841,-0.254
-76.528,-229.873,971.440,1.906,-0.842,-0.205
-78.008,-228.913,969.996,1.497,-0.836,-0.209
-77.949,-228.020,970.936,0.884,-0.710,-0.147
-78.872,-228.651,971.021,0.380,-0.678,-0.079
-79.071,-229.862,971.367,-0.016,-0.769,-0.031
-78.546,-229.824,972.106,-0.336,-0.732,0.048
-77.886,-230.495,971.571,-0.807,-0.691,0.073
-79.678,-232.783,972.193,-1.325,-0.705,0.070
-79.741,-235.366,971.818,-1.564,-0.694,0.070
-78.000,-237.000,971.000,-1.750,-0.630,0.070
-78.837,-237.796,971.853,-1.942,-0.621,0.015
-79.103,-239.991,972.165,-1.982,-0.687,-0.067
-79.300,-243.066,971.191,-1.873,-0.708,-0.056
-80.766,-244.430,970.647,-1.804,-0.674,-0.131
-80.720,-245.694,970.848,-1.800,-0.611,-0.229
-79.884,-248.553,969.438,-1.531,-0.643,-0.208
-80.022,-247.745,968.021,-1.326,-0.623,-0.288
-80.013,-244.161,969.842,-1.332,-0.557,-0.288
-80.003,-243.827,970.907,-1.274,-0.673,-0.210
-79.499,-244.056,971.476,-1.191,-0.717,-0.224
-78.245,-244.218,971.657,-0.963,-0.688,-0.163
-77.953,-245.583,970.156,-0.771,-0.708,-0.142
-78.124,-245.921,969.790,-0.671,-0.695,-0.131
-79.130,-244.689,967.599,-0.632,-0.702,-0.151
-78.000,-242.000,968.000,-0.700,-0.700,-0.210
-75.964,-241.673,972.540,-0.929,-0.696,-0.093
-77.461,-243.871,973.331,-1.124,-0.747,-0.003
-78.627,-242.871,972.175,-0.665,-0.796,-0.000
-79.563,-241.770,971.270,-0.337,-0.700,-0.002
-79.980,-244.042,970.801,-0.621,-0.625,0.006
-80.104,-246.505,970.859,-0.781,-0.727,-0.012
-79.897,-249.239,969.959,-0.683,-0.769,-0.072
-78.078,-251.045,970.010,-0.313,-0.768,-0.068
-78.589,-248.674,969.182,0.028,-0.778,-0.176
-79.982,-246.948,969.235,0.137,-0.721,-0.245
-79.168,-246.423,970.249,0.109,-0.690,-0.145
-77.317,-243.577,969.400,0.056,-0.707,-0.173
-78.777,-243.316,970.468,0.075,-0.693,-0.203
-79.925,-243.884,970.872,0.075,-0.708,-0.131
-79.000,-242.000,970.000,0.210,-0.770,-0.140
-79.124,-241.062,970.897,0.293,-0.773,-0.150
-77.951,-240.809,970.428,0.131,-0.767,-0.040
-79.271,-242.122,969.415,-0.034,-0.773,0.060
-79.753,-243.257,970.500,-0.081,-0.767,0.068
-78.995,-242.975,970.632,-0.065,-0.771,0.076
-80.208,-244.297,969.800,-0.070,-0.770,0.059
-79.968,-243.888,970.097,-0.073,-0.768,-0.003
-80.007,-242.996,971.885,-0.197,-0.706,0.001
-79.236,-243.078,972.212,-0.291,-0.683,-0.095
-78.814,-242.801,971.080,-0.217,-0.769,-0.262
-79.130,-243.193,970.329,-0.243,-0.704,-0.272
-78.691,-242.498,969.732,-0.303,-0.603,-0.310
-77.705,-241.809,971.661,-0.380,-0.645,-0.354
-78.245,-240.839,971.735,-0.413,-0.623,-0.351
-79.000,-241.000,970.000,-0.350,-0.630,-0.350
-77.098,-242.008,970.839,-0.518,-0.641,-0.287
-78.321,-241.800,971.120,-0.741,-0.563,-0.276
-79.362,-242.745,970.369,-0.782,-0.601,-0.280
-78.782,-242.783,969.038,-0.753,-0.637,-0.286
-79.020,-243.523,969.218,-0.821,-0.629,-0.260
-79.193,-245.351,969.796,-1.011,-0.627,-0.202
-81.136,-247.185,967.908,-0.888,-0.633,-0.211
-81.110,-248.991,968.851,-0.639,-0.697,-0.211
-80.024,-248.120,969.348,-0.582,-0.702,-0.209
-80.091,-248.192,967.758,-0.423,-0.705,-0.210
-79.503,-246.376,968.753,-0.282,-0.662,-0.213
-78.721,-244.832,970.498,-0.307,-0.639,-0.203
-79.331,-246.156,970.836,-0.352,-0.719,-0.226
-79.984,-243.351,969.872,-0.262,-0.693,-0.285
-79.000,-239.000,970.000,-0.280,-0.700,-0.280
-78.050,-235.146,970.871,-0.573,-0.649,-0.285
-78.501,-237.550,971.725,-0.984,-0.594,-0.186
-79.999,-240.197,972.044,-1.356,-0.742,-0.079
-79.150,-241.100,971.325,-1.332,-0.740,-0.052
-77.617,-247.026,970.548,-1.114,-0.698,0.025
-78.332,-246.448,969.734,-1.057,-0.689,-0.020
-80.114,-248.399,968.976,-1.204,-0.629,-0.072
-80.108,-251.935,968.998,-1.267,-0.693,-0.131
-78.979,-253.395,968.934,-1.099,-0.761,-0.211
-79.221,-253.223,969.474,-0.840,-0.784,-0.195
-78.517,-248.797,969.728,-0.480,-0.722,-0.257
-79.885,-253.058,967.903,-0.270,-0.712,-0.287
-79.282,-247.350,968.631,-0.087,-0.647,-0.408
-78.247,-252.165,971.251,0.030,-0.396,-0.574
-81.000,-253.000,971.000,0.700,-0.560,-0.560
-77.684,-223.959,970.922,1.112,-0.723,-0.400
-76.287,-235.180,970.061,-0.506,-0.507,-0.014
-77.662,-252.107,966.272,-1.565,-0.605,0.055
-76.569,-242.429,967.126,-1.068,-0.716,-0.197
-79.285,-242.761,971.159,-0.785,-0.586,-0.163
-79.623,-238.531,971.806,-0.798,-0.668,-0.055
-77.948,-238.367,970.973,-1.156,-0.770,0.007
-77.983,-242.797,971.004,-1.523,-0.705,0.132
-78.648,-246.566,970.337,-1.627,-0.693,0.161
-79.993,-251.691,968.431,-1.438,-0.707,0.037
-79.371,-251.087,967.435,-1.239,-0.692,-0.010
-79.147,-251.833,968.391,-1.292,-0.707,-0.012
-80.404,-254.891,968.835,-1.209,-0.694,-0.097
-80.976,-255.859,967.908,-0.924,-0.705,-0.147
-80.000,-253.000,968.000,-0.490,-0.700,-0.210
-79.876,-251.199,967.135,-0.221,-0.636,-0.216
-80.221,-248.403,967.929,-0.243,-0.626,-0.198
-79.679,-244.880,970.821,-0.378,-0.655,-0.228
-80.199,-245.699,969.703,-0.397,-0.776,-0.168
-77.578,-245.658,969.002,-0.198,-0.840,-0.140
-76.242,-244.879,970.004,-0.160,-0.746,-0.131
-79.204,-245.072,968.920,-0.369,-0.699,-0.066
-80.038,-246.862,968.948,-0.553,-0.698,-0.066
-79.219,-247.263,969.140,-0.570,-0.753,-0.128
-78.701,-246.576,968.111,-0.547,-0.788,-0.151
-79.473,-247.507,967.694,-0.597,-0.726,-0.124
-77.889,-245.748,967.844,-0.662,-0.694,-0.174
-77.346,-243.428,968.191,-0.857,-0.703,-0.205
-79.079,-241.716,970.383,-1.250,-0.698,-0.127
-78.000,-241.000,971.000,-1.470,-0.700,-0.070
-78.814,-242.774,970.698,-1.523,-0.761,-0.008
-78.516,-243.604,972.946,-1.655,-0.779,0.008
-77.960,-246.345,971.149,-1.684,-0.761,-0.009
-80.085,-252.099,969.061,-1.688,-0.779,0.011
-79.410,-256.351,968.535,-1.648,-0.762,-0.020
-79.258,-259.778,967.923,-1.501,-0.777,-0.085
-81.110,-262.066,967.983,-1.230,-0.766,-0.143
-81.091,-261.153,967.934,-0.739,-0.703,-0.143
-80.042,-259.345,969.020,-0.298,-0.694,-0.127
-80.142,-257.269,967.495,0.079,-0.741,-0.229
-79.276,-253.855,966.907,0.358,-0.795,-0.334
-79.533,-252.966,968.447,0.447,-0.727,-0.351
-81.279,-252.522,969.081,0.518,-0.715,-0.350
-79.608,-249.512,968.847,0.653,-0.770,-0.350
-78.000,-247.000,968.000,0.700,-0.700,-0.350
-77.131,-245.146,970.527,0.464,-0.694,-0.294
-77.366,-244.972,971.588,0.249,-0.706,-0.218
-79.162,-244.422,969.285,0.100,-0.697,-0.213
-77.973,-244.025,968.757,-0.111,-0.680,-0.186
-76.812,-245.532,968.822,-0.272,-0.609,-0.111
-77.077,-246.067,969.007,-0.458,-0.642,-0.063
-78.145,-247.094,968.991,-0.485,-0.626,-0.074
-79.948,-247.091,968.977,-0.481,-0.624,-0.136
-79.334,-246.622,969.731,-0.662,-0.697,-0.145
-78.196,-249.070,970.170,-0.766,-0.693,-0.134
-77.804,-250.623,968.997,-0.749,-0.717,-0.146
-78.450,-251.404,969.214,-0.640,-0.661,-0.135
-78.896,-251.922,969.930,-0.537,-0.642,-0.144
-77.930,-250.895,968.811,-0.480,-0.705,-0.137
-79.000,-252.000,968.000,-0.420,-0.700,-0.140
-79.215,-253.872,967.889,-0.367,-0.702,-0.144
-77.982,-254.120,968.816,-0.201,-0.690,-0.127
-78.579,-253.080,968.815,-0.039,-0.749,-0.192
-79.385,-250.581,968.914,0.036,-0.750,-0.190
-80.323,-250.210,968.638,0.080,-0.683,-0.120
-79.580,-250.991,969.279,0.065,-0.707,-0.157
-77.966,-249.921,969.955,0.072,-0.698,-0.210
-78.905,-249.949,968.995,0.072,-0.697,-0.148
-79.164,-250.126,969.924,0.062,-0.756,-0.073
-78.762,-249.732,968.605,0.119,-0.787,-0.077
-79.549,-250.579,967.826,0.148,-0.722,-0.035
-80.218,-251.012,969.187,0.147,-0.717,0.014
-79.553,-251.011,967.028,0.254,-0.783,-0.017
-77.870,-250.937,966.163,0.357,-0.766,-0.077
-79.000,-250.000,968.000,0.350,-0.770,-0.070
-79.220,-249.090,968.053,0.349,-0.772,-0.062
-78.579,-248.381,968.488,0.352,-0.766,-0.127
-79.667,-246.761,969.720,0.331,-0.773,-0.147
-77.553,-245.281,969.676,0.165,-0.767,-0.117
-77.430,-244.892,970.017,-0.081,-0.771,-0.047
-77.773,-245.093,969.807,-0.142,-0.771,-0.092
-77.071,-246.109,970.111,-0.224,-0.768,-0.137
-78.934,-247.846,971.063,-0.470,-0.705,-0.073
-78.228,-249.731,969.250,-0.678,-0.692,-0.070
-78.447,-250.068,969.353,-0.682,-0.709,-0.065
-79.243,-250.252,969.703,-0.537,-0.690,-0.080
-78.906,-251.304,968.087,-0.483,-0.709,-0.054
-78.850,-250.846,968.160,-0.491,-0.692,-0.096
-77.937,-252.378,969.123,-0.490,-0.705,-0.138
-79.000,-253.000,969.000,-0.420,-0.700,-0.140
-80.006,-251.070,968.038,-0.178,-0.693,-0.212
-79.407,-251.279,968.049,-0.011,-0.720,-0.149
-78.063,-249.087,967.600,-0.021,-0.632,-0.183
-78.774,-247.865,968.422,-0.163,-0.693,-0.190
-80.198,-249.571,968.737,-0.320,-0.773,-0.129
-78.510,-250.014,969.262,-0.247,-0.682,-0.135
-78.071,-249.966,969.936,-0.136,-0.704,-0.066
-78.997,-249.060,968.086,-0.136,-0.703,-0.068
-78.216,-248.928,968.645,-0.245,-0.692,-0.068
-78.251,-248.955,969.085,-0.351,-0.710,-0.114
-80.093,-249.358,968.657,-0.335,-0.688,-0.151
-79.058,-250.213,968.832,-0.371,-0.711,-0.136
-78.188,-249.825,969.193,-0.320,-0.691,-0.137
-80.214,-250.133,969.971,-0.287,-0.705,-0.147
-79.000,-251.000,968.000,-0.350,-0.700,-0.210
-77.818,-251.045,967.713,-0.291,-0.693,-0.153
-79.652,-250.903,969.116,-0.236,-0.719,-0.124
-79.653,-251.138,968.015,-0.117,-0.639,-0.182
-78.551,-250.421,968.166,-0.077,-0.661,-0.246
-79.528,-249.922,969.058,-0.175,-0.706,-0.286
-79.861,-249.884,968.777,-0.221,-0.701,-0.280
-78.966,-248.932,967.986,-0.282,-0.698,-0.278
-79.010,-248.101,968.894,-0.218,-0.696,-0.214
-78.256,-246.314,969.271,-0.187,-0.766,-0.205
-77.675,-246.204,967.821,-0.341,-0.727,-0.212
-79.004,-248.211,968.760,-0.547,-0.690,-0.214
-80.440,-249.399,970.219,-0.656,-0.700,-0.187
-79.458,-250.131,969.722,-0.617,-0.712,-0.131
-77.815,-249.946,970.178,-0.633,-0.777,-0.139
-77.000,-250.000,970.000,-0.560,-0.770,-0.070
-76.898,-250.006,966.378,-0.484,-0.772,-0.059
-77.737,-251.004,966.838,-0.548,-0.720,-0.132
-78.926,-254.704,969.388,-0.566,-0.714,-0.136
-81.077,-256.089,967.382,-0.509,-0.833,-0.165
-80.205,-254.109,967.363,-0.222,-0.804,-0.237
-79.050,-252.770,969.199,-0.070,-0.673,-0.291
-80.008,-251.946,968.950,-0.140,-0.632,-0.356
-78.217,-251.118,968.083,-0.013,-0.695,-0.418
-76.120,-248.625,967.687,0.039,-0.712,-0.424
-76.534,-247.364,969.418,-0.233,-0.647,-0.387
-76.978,-248.688,969.410,-0.422,-0.623,-0.270
-75.182,-246.656,968.879,-0.264,-0.634,-0.180
-77.086,-246.556,970.304,-0.353,-0.628,-0.108
-78.890,-249.294,969.819,-0.578,-0.631,0.013
-77.000,-250.000,969.000,-0.630,-0.630,-0.000
-78.622,-251.650,968.962,-0.814,-0.628,-0.007
-79.977,-254.063,969.100,-0.871,-0.634,0.014
-80.022,-257.177,968.193,-0.704,-0.624,-0.046
-79.821,-257.478,967.728,-0.368,-0.638,-0.096
-80.412,-255.269,967.662,-0.172,-0.620,-0.170
-80.889,-254.884,966.796,-0.114,-0.644,-0.218
-79.972,-252.784,967.066,0.085,-0.702,-0.287
-80.034,-251.040,967.934,0.204,-0.700,-0.349
-79.108,-250.362,968.836,0.273,-0.702,-0.346
-79.158,-248.504,968.884,0.277,-0.691,-0.363
-77.874,-247.400,969.162,0.298,-0.738,-0.305
-77.047,-246.485,970.122,0.211,-0.780,-0.281
-78.230,-245.976,969.804,0.021,-0.760,-0.265
-77.962,-247.352,970.050,-0.089,-0.685,-0.206
-78.000,-250.000,969.000,-0.210,-0.630,-0.210
-77.042,-250.999,967.878,-0.208,-0.696,-0.150
-78.282,-251.452,968.963,-0.306,-0.652,-0.132
-79.529,-253.426,968.170,-0.357,-0.649,-0.143
-78.243,-253.748,967.780,-0.163,-0.734,-0.159
-78.032,-252.616,967.751,-0.048,-0.660,-0.231
-77.950,-253.299,968.112,-0.084,-0.639,-0.197
-78.022,-253.960,967.911,-0.060,-0.704,-0.216
-78.041,-252.167,966.968,0.130,-0.703,-0.279
-77.157,-250.964,968.551,0.107,-0.642,-0.277
-77.366,-251.120,969.646,-0.010,-0.621,-0.290
-78.566,-250.438,970.015,0.048,-0.638,-0.241
-77.110,-249.379,969.283,0.057,-0.622,-0.201
-77.572,-247.328,969.187,-0.033,-0.637,-0.215
-79.003,-247.241,969.943,-0.164,-0.625,-0.205
-78.000,-249.000,968.000,-0.350,-0.630,-0.140
-78.008,-248.151,967.783,-0.483,-0.694,-0.074
-77.825,-248.445,968.894,-0.494,-0.703,-0.069
-78.818,-249.853,968.874,-0.464,-0.698,-0.068
-78.457,-250.049,968.413,-0.363,-0.700,-0.074
-78.243,-251.985,967.809,-0.377,-0.701,-0.062
-78.937,-254.299,969.310,-0.409,-0.698,-0.083
-77.986,-253.931,968.878,-0.268,-0.701,-0.142
-78.949,-253.933,967.979,-0.149,-0.703,-0.139
-78.267,-254.259,968.175,-0.026,-0.643,-0.194
-78.339,-252.570,966.937,0.055,-0.621,-0.223
-79.444,-251.072,967.317,0.084,-0.638,-0.201
-78.446,-248.804,967.889,0.037,-0.622,-0.203
-77.811,-248.173,968.135,0.006,-0.645,-0.105
-76.874,-248.978,969.104,0.079,-0.708,-0.074
-77.000,-248.000,969.000,0.070,-0.700,-0.070
-77.886,-249.593,968.989,0.010,-0.632,-0.003
-78.214,-251.087,968.377,-0.056,-0.675,-0.006
-77.147,-251.071,967.471,-0.077,-0.717,0.043
-77.729,-253.319,968.193,-0.052,-0.684,0.077
-79.205,-253.530,967.279,0.052,-0.716,0.070
-77.583,-251.707,967.151,0.146,-0.682,0.062
-78.171,-252.067,968.023,0.061,-0.631,-0.004
-79.961,-252.062,967.978,-0.002,-0.695,-0.002
-79.954,-251.783,968.752,0.096,-0.707,0.006
-80.208,-252.836,969.522,0.296,-0.691,-0.008
-78.960,-252.572,970.084,0.372,-0.712,0.012
-77.640,-251.274,969.282,0.334,-0.672,-0.028
-78.193,-249.447,969.044,0.370,-0.621,-0.079
-77.894,-249.072,968.806,0.423,-0.633,-0.066
-78.000,-249.000,967.000,0.350,-0.630,-0.070
-78.954,-248.001,967.703,0.169,-0.625,-0.132
-78.951,-248.230,968.980,-0.015,-0.678,-0.151
-79.164,-246.678,968.686,-0.149,-0.745,-0.099
-78.415,-245.736,969.204,-0.088,-0.784,-0.038
-78.142,-246.224,970.238,-0.116,-0.746,0.026
-79.169,-248.913,971.010,-0.320,-0.694,0.078
-78.958,-252.073,969.852,-0.345,-0.701,0.067
-78.950,-251.054,968.082,-0.222,-0.701,0.005
-79.820,-252.407,967.843,-0.085,-0.699,-0.058
-80.175,-253.486,968.482,-0.068,-0.700,-0.111
-79.451,-252.188,969.406,-0.039,-0.703,-0.209
-78.628,-251.530,969.771,0.013,-0.681,-0.326
-77.664,-249.211,968.439,-0.003,-0.612,-0.350
-76.957,-247.892,968.124,-0.006,-0.643,-0.348
-77.000,-247.000,969.000,-0.140,-0.700,-0.280
-77.001,-246.900,968.879,-0.267,-0.640,-0.212
-76.981,-247.123,970.508,-0.377,-0.621,-0.177
-77.381,-247.197,970.652,-0.481,-0.640,-0.037
-78.686,-248.756,968.978,-0.518,-0.603,-0.001
-79.040,-249.087,968.955,-0.726,-0.529,0.023
-80.543,-251.886,968.807,-0.836,-0.493,0.069
-81.987,-254.004,967.957,-0.686,-0.566,-0.007
-81.019,-253.897,967.971,-0.504,-0.565,-0.066
-81.825,-255.849,968.101,-0.321,-0.545,-0.130
-81.476,-254.812,967.151,-0.143,-0.620,-0.143
-80.800,-253.221,966.624,0.030,-0.621,-0.163
-80.778,-252.548,967.147,0.068,-0.660,-0.249
-79.917,-251.977,968.306,0.094,-0.702,-0.283
-81.181,-251.809,969.061,0.228,-0.706,-0.280
-80.000,-249.000,969.000,0.280,-0.770,-0.280
-78.050,-247.915,968.148,0.339,-0.717,-0.225
-78.043,-248.149,967.730,0.334,-0.637,-0.145
-78.278,-248.098,968.627,0.104,-0.626,-0.145
-79.618,-250.237,968.449,-0.062,-0.653,-0.129
-78.035,-250.784,967.633,-0.065,-0.721,-0.155
-77.123,-249.864,968.150,-0.072,-0.680,-0.120
-78.012,-250.009,969.067,-0.071,-0.631,-0.072
-77.943,-249.132,969.086,-0.134,-0.695,-0.138
-79.018,-247.919,967.940,-0.155,-0.708,-0.135
-77.657,-249.187,969.161,-0.112,-0.690,-0.193
-77.101,-250.758,969.746,-0.206,-0.715,-0.184
-78.402,-250.919,968.264,-0.157,-0.666,-0.124
-77.764,-251.152,969.522,-0.058,-0.636,-0.146
-78.106,-252.145,969.823,-0.067,-0.711,-0.139
-78.000,-252.000,968.000,0.000,-0.700,-0.140
-77.903,-251.011,967.836,0.004,-0.635,-0.138
-78.216,-251.193,968.883,-0.004,-0.628,-0.149
-77.273,-249.736,968.395,0.000,-0.630,-0.093
-76.900,-248.712,967.189,0.008,-0.631,-0.069
-77.174,-248.878,966.759,-0.033,-0.628,-0.053
-78.282,-247.743,967.076,-0.167,-0.636,0.009
-79.038,-248.095,968.124,-0.211,-0.707,-0.002
-79.912,-248.989,969.899,-0.272,-0.770,-0.002
-80.252,-248.932,970.183,-0.348,-0.717,0.047
-79.053,-249.565,969.112,-0.312,-0.685,0.138
-79.239,-250.502,968.326,-0.230,-0.717,0.096
-78.304,-251.386,967.536,-0.222,-0.668,0.090
-78.561,-252.101,968.300,-0.309,-0.625,0.140
-81.238,-252.009,969.079,-0.349,-0.631,0.059
-80.000,-253.000,970.000,-0.280,-0.630,0.070
-78.926,-253.237,970.228,-0.103,-0.630,0.077
-79.183,-251.338,968.281,0.096,-0.631,0.019
-78.739,-250.881,968.239,0.199,-0.626,-0.047
-79.261,-250.902,969.094,0.207,-0.653,-0.077
-78.701,-251.089,968.494,0.225,-0.722,-0.069
-79.300,-250.773,967.863,0.298,-0.679,-0.064
-79.990,-250.006,968.041,0.353,-0.632,0.006
-79.955,-250.928,968.052,0.353,-0.696,0.067
-80.252,-251.126,967.761,0.291,-0.703,0.078
-78.492,-250.357,968.811,0.277,-0.704,0.020
-78.162,-249.277,968.130,0.254,-0.664,-0.006
-79.674,-248.940,968.186,0.188,-0.633,-0.002
-79.725,-248.922,968.869,0.226,-0.734,0.014
-77.706,-249.118,967.972,0.198,-0.769,0.073
-78.000,-250.000,969.000,0.140,-0.770,0.000
-79.190,-249.976,968.250,0.142,-0.773,-0.013
-77.201,-250.199,967.631,0.133,-0.764,0.064
-78.023,-248.704,968.640,0.154,-0.778,0.065
-79.567,-248.000,968.784,0.103,-0.760,0.081
-80.445,-249.376,968.867,0.058,-0.781,0.047
-80.792,-248.697,968.976,-0.032,-0.755,-0.007
-78.895,-247.977,968.996,-0.143,-0.698,0.001
-78.959,-247.132,968.974,-0.136,-0.700,0.001
-78.966,-245.260,969.774,-0.299,-0.699,-0.007
-80.136,-245.227,970.006,-0.431,-0.703,0.049
-81.542,-247.290,969.651,-0.399,-0.694,0.057
-80.312,-247.994,969.965,-0.456,-0.708,-0.050
-80.145,-248.264,969.780,-0.494,-0.690,-0.061
-81.195,-250.359,968.823,-0.486,-0.711,-0.084
-82.000,-252.000,968.000,-0.420,-0.770,-0.210
-80.353,-252.881,968.849,-0.355,-0.710,-0.273
-78.972,-253.215,968.554,-0.308,-0.690,-0.330
-79.097,-251.864,967.175,-0.222,-0.711,-0.389
-78.903,-250.165,969.089,-0.216,-0.670,-0.462
-78.882,-250.065,969.625,-0.190,-0.615,-0.480
-77.727,-249.754,968.891,-0.130,-0.640,-0.406
-78.111,-247.830,969.006,-0.145,-0.624,-0.424
-79.024,-246.073,968.992,-0.269,-0.559,-0.425
-78.167,-245.924,969.043,-0.350,-0.617,-0.357
-77.859,-245.556,968.681,-0.368,-0.636,-0.351
-78.441,-244.330,969.370,-0.561,-0.629,-0.323
-79.251,-246.204,969.954,-0.804,-0.626,-0.243
-78.801,-248.507,969.809,-0.925,-0.638,-0.206
-79.127,-250.361,968.853,-0.814,-0.620,-0.211
-79.000,-252.000,969.000,-0.770,-0.560,-0.210
-77.961,-251.833,969.222,-0.852,-0.620,-0.210
-78.824,-254.216,967.299,-0.641,-0.637,-0.211
-78.916,-255.363,966.871,-0.452,-0.627,-0.206
-79.453,-254.713,966.268,-0.385,-0.626,-0.231
-80.072,-254.976,966.021,-0.337,-0.649,-0.314
-80.007,-253.469,967.086,-0.242,-0.708,-0.349
-79.982,-250.780,967.036,-0.061,-0.699,-0.353
-79.965,-248.149,968.821,-0.066,-0.700,-0.418
-80.176,-247.087,970.108,-0.073,-0.694,-0.371
-79.130,-246.409,968.592,-0.102,-0.750,-0.330
-79.158,-245.260,967.223,-0.221,-0.750,-0.372
-78.420,-245.031,968.848,-0.533,-0.674,-0.315
-78.250,-246.720,969.896,-0.921,-0.725,-0.269
-78.906,-249.328,968.903,-0.795,-0.773,-0.195
-77.000,-250.000,969.000,-0.630,-0.770,-0.140
-77.629,-249.834,968.966,-0.807,-0.711,-0.143
-79.740,-252.087,969.181,-0.965,-0.685,-0.132
-79.709,-254.040,967.632,-0.932,-0.748,-0.155
-78.090,-253.921,966.469,-0.716,-0.779,-0.115
-78.585,-255.850,967.175,-0.620,-0.752,-0.189
-80.162,-255.444,968.144,-0.621,-0.687,-0.290
-80.004,-252.895,967.931,-0.474,-0.706,-0.279
-80.085,-252.121,967.873,-0.289,-0.770,-0.281
-77.576,-250.132,969.889,-0.262,-0.718,-0.275
-77.049,-251.191,968.542,-0.342,-0.684,-0.295
-79.120,-251.904,967.960,-0.322,-0.720,-0.232
-78.431,-250.463,968.968,-0.247,-0.662,-0.215
-78.002,-251.388,967.415,-0.199,-0.639,-0.190
-77.972,-252.053,967.026,-0.219,-0.708,-0.139
-78.000,-252.000,967.000,-0.280,-0.700,-0.140
-78.799,-250.239,967.820,-0.278,-0.694,-0.071
-79.989,-250.325,968.153,-0.331,-0.753,-0.124
-78.942,-252.060,968.043,-0.336,-0.785,-0.111
-77.539,-251.339,969.657,-0.202,-0.735,-0.053
-78.253,-251.090,969.580,-0.124,-0.691,-0.078
-77.910,-252.315,968.667,-0.154,-0.703,-0.068
-79.164,-252.977,966.907,-0.211,-0.699,-0.069
-80.064,-252.038,967.826,-0.148,-0.699,-0.067
-79.042,-252.742,968.475,-0.077,-0.701,-0.133
-79.119,-252.199,966.461,-0.028,-0.699,-0.101
-78.689,-249.520,968.338,0.002,-0.700,-0.056
-79.606,-250.819,968.071,-0.152,-0.703,-0.075
-79.759,-248.459,966.977,-0.209,-0.689,-0.078
-78.987,-243.599,968.129,-0.319,-0.620,-0.150
-79.000,-244.000,969.000,-0.700,-0.630,-0.140
-77.979,-244.766,971.747,-1.013,-0.696,-0.080
-79.452,-247.830,970.930,-1.187,-0.699,-0.012
-79.841,-250.069,968.630,-1.105,-0.706,-0.024
-78.389,-250.514,969.143,-1.087,-0.671,-0.118
-79.771,-254.773,968.392,-1.369,-0.615,-0.142
-81.114,-257.315,967.890,-1.357,-0.643,-0.139
-79.795,-259.176,966.888,-1.103,-0.703,-0.142
-77.090,-260.071,965.990,-0.926,-0.704,-0.204
-78.301,-259.067,966.761,-0.640,-0.642,-0.272
-80.235,-258.166,967.088,-0.341,-0.618,-0.287
-79.261,-254.730,966.128,-0.235,-0.665,-0.269
-78.801,-254.052,966.037,-0.180,-0.718,-0.310
-77.623,-251.602,967.195,-0.140,-0.677,-0.347
-78.270,-247.817,966.946,-0.230,-0.631,-0.267
-79.000,-249.000,968.000,-0.350,-0.700,-0.210
-77.929,-247.279,969.907,-0.471,-0.765,-0.093
-79.548,-248.484,969.399,-0.556,-0.778,0.002
-79.709,-252.556,968.080,-0.553,-0.730,-0.011
-78.560,-252.987,967.698,-0.589,-0.686,0.016
-79.460,-255.041,967.957,-0.645,-0.709,-0.027
-79.966,-257.359,967.793,-0.611,-0.694,-0.078
-78.882,-257.996,966.992,-0.480,-0.702,-0.149
-77.976,-257.103,967.915,-0.420,-0.704,-0.273
-78.888,-256.144,968.103,-0.384,-0.640,-0.339
-78.428,-254.880,968.208,-0.197,-0.626,-0.366
-77.820,-252.590,969.376,-0.119,-0.632,-0.301
-77.788,-251.607,968.015,-0.150,-0.630,-0.297
-76.877,-250.767,968.342,-0.141,-0.629,-0.364
-78.252,-251.112,968.926,-0.231,-0.631,-0.342
-78.000,-251.000,968.000,-0.350,-0.630,-0.280
-77.702,-250.874,967.179,-0.409,-0.628,-0.215
-79.821,-251.233,966.593,-0.517,-0.634,-0.208
-79.414,-250.929,967.943,-0.624,-0.620,-0.209
-78.852,-253.491,966.665,-0.623,-0.662,-0.217
-79.198,-253.485,966.131,-0.633,-0.711,-0.187
-80.161,-253.073,966.687,-0.516,-0.691,-0.140
-78.801,-250.529,963.869,-0.428,-0.623,-0.216
-77.870,-244.179,965.695,-0.800,-0.559,-0.216
-79.355,-246.798,968.650,-1.261,-0.662,-0.150
-76.390,-249.405,970.123,-1.455,-0.776,-0.071
-78.168,-249.091,970.977,-1.449,-0.726,0.137
-81.847,-252.934,968.568,-1.356,-0.699,0.197
-78.908,-255.703,968.074,-1.346,-0.688,0.004
-78.107,-259.842,967.811,-1.496,-0.622,-0.063
-79.000,-265.000,966.000,-1.540,-0.630,0.000
-80.761,-266.973,964.995,-1.256,-0.635,-0.120
-80.625,-266.374,965.660,-0.781,-0.622,-0.158
-79.438,-264.962,966.041,-0.319,-0.642,-0.151
-80.283,-262.189,965.631,0.046,-0.613,-0.273
-77.907,-258.929,965.943,0.265,-0.658,-0.268
-78.616,-257.761,966.008,0.284,-0.702,-0.289
-79.922,-255.823,967.100,0.437,-0.700,-0.278
-78.099,-254.111,967.087,0.561,-0.700,-0.340
-76.017,-251.759,966.710,0.551,-0.742,-0.341
-72.940,-249.534,967.754,0.523,-0.850,-0.013
-82.401,-251.395,967.989,0.216,-0.758,0.074
-84.972,-251.550,969.491,0.172,-0.705,-0.073
-71.881,-251.242,968.144,0.180,-0.789,-0.128
-77.775,-253.267,967.096,0.063,-0.759,0.112
-78.000,-254.000,967.000,-0.000,-0.700,0.140
-69.245,-255.675,964.909,-0.153,-0.749,0.203
-82.193,-256.476,967.316,0.126,-0.857,0.712
-86.910,-254.522,967.838,0.163,-0.706,0.238
-81.340,-253.789,968.772,-0.173,-0.646,-0.342
-78.821,-254.285,969.408,-0.325,-0.837,-0.222
-75.808,-256.680,966.440,-0.316,-0.814,-0.202
-79.289,-257.918,967.143,0.026,-0.692,-0.062
-78.335,-255.191,968.001,0.085,-0.630,-0.192
-76.357,-254.687,968.034,-0.114,-0.682,-0.253
-79.676,-255.367,967.133,-0.189,-0.715,-0.081
-78.936,-254.153,967.157,-0.225,-0.685,-0.079
-77.970,-253.903,967.789,-0.195,-0.713,-0.073
-79.490,-252.234,966.780,-0.229,-0.688,-0.171
-79.936,-251.089,968.285,-0.288,-0.710,-0.121
-79.000,-253.000,968.000,-0.350,-0.770,-0.070
-78.897,-253.881,966.893,-0.412,-0.771,-0.082
-79.744,-255.403,967.877,-0.435,-0.770,0.003
-80.262,-256.378,967.743,-0.340,-0.769,-0.052
-79.113,-255.519,967.977,-0.236,-0.771,-0.045
-77.647,-256.643,967.495,-0.180,-0.769,0.011
-78.164,-258.267,966.885,-0.037,-0.770,-0.003
-77.943,-259.043,967.048,-0.003,-0.770,0.001
-77.922,-259.048,967.956,-0.007,-0.772,0.001
-78.969,-258.211,967.372,0.163,-0.716,-0.047
-78.342,-256.877,966.308,0.325,-0.684,-0.137
-78.115,-254.178,968.158,0.360,-0.717,-0.100
-79.798,-252.394,968.655,0.329,-0.679,-0.082
-79.568,-251.739,967.633,0.258,-0.728,-0.157
-77.840,-250.942,966.930,0.200,-0.765,-0.134
-78.000,-251.000,967.000,0.070,-0.700,-0.140
-78.006,-250.126,967.030,-0.117,-0.700,-0.148
-78.656,-250.450,967.452,-0.243,-0.692,-0.083
-78.838,-251.835,968.869,-0.344,-0.748,-0.066
-77.260,-252.324,968.168,-0.334,-0.751,-0.071
-79.018,-255.350,967.986,-0.396,-0.683,-0.070
-79.741,-256.970,967.615,-0.496,-0.708,-0.069
-77.936,-255.951,965.962,-0.412,-0.698,-0.071
-78.866,-255.990,966.910,-0.352,-0.698,-0.073
-79.986,-255.966,967.122,-0.299,-0.705,-0.011
-79.458,-256.107,966.679,-0.229,-0.690,-0.028
-78.513,-255.344,967.275,-0.176,-0.736,-0.107
-79.980,-254.949,968.138,-0.111,-0.785,-0.015
-80.805,-254.776,967.573,-0.049,-0.751,-0.033
-78.743,-253.979,967.084,0.002,-0.695,-0.148
-79.000,-255.000,968.000,-0.070,-0.700,-0.140
-79.177,-255.155,967.927,-0.142,-0.702,-0.199
-78.077,-254.135,968.842,-0.089,-0.696,-0.219
-78.089,-253.935,968.310,-0.056,-0.708,-0.207
-77.552,-253.897,967.653,-0.099,-0.671,-0.189
-76.796,-254.194,967.849,-0.166,-0.617,-0.122
-77.178,-255.111,968.052,-0.217,-0.637,-0.145
-78.049,-253.813,967.932,-0.208,-0.628,-0.059
-78.042,-252.020,966.999,-0.206,-0.628,0.004
-77.805,-252.750,967.820,-0.309,-0.638,-0.069
-79.332,-253.594,967.790,-0.507,-0.613,-0.022
-80.285,-254.613,968.432,-0.540,-0.677,0.004
-79.967,-254.972,968.337,-0.312,-0.699,0.007
-81.589,-255.047,966.575,-0.320,-0.706,-0.026
-81.861,-254.942,967.146,-0.417,-0.695,-0.155
-81.000,-255.000,967.000,-0.280,-0.700,-0.140
-80.264,-255.166,966.826,-0.210,-0.713,-0.129
-78.837,-253.929,968.463,-0.212,-0.622,-0.203
-80.329,-255.203,969.289,-0.185,-0.722,-0.207
-80.807,-255.837,967.712,-0.063,-0.755,-0.218
-79.582,-254.635,966.882,0.001,-0.688,-0.198
-78.809,-255.149,968.198,-0.098,-0.694,-0.227
-79.137,-254.938,967.952,-0.219,-0.628,-0.279
-81.004,-254.054,967.960,-0.283,-0.693,-0.214
-78.679,-253.869,968.122,-0.165,-0.712,-0.209
-77.937,-254.239,967.140,-0.157,-0.687,-0.167
-80.248,-253.118,966.617,-0.276,-0.712,-0.152
-79.282,-253.613,967.169,-0.267,-0.690,-0.243
-79.180,-255.247,968.290,-0.301,-0.706,-0.186
-78.754,-254.992,969.031,-0.351,-0.697,-0.228
-77.000,-256.000,968.000,-0.280,-0.700,-0.280
-77.740,-256.145,966.956,-0.150,-0.702,-0.211
-78.948,-255.177,967.223,-0.172,-0.697,-0.259
-78.906,-254.819,965.952,-0.276,-0.704,-0.320
-79.153,-255.175,966.278,-0.251,-0.697,-0.375
-78.609,-254.370,966.873,-0.194,-0.702,-0.310
-78.034,-252.773,967.055,-0.231,-0.699,-0.295
-79.077,-253.041,966.946,-0.357,-0.700,-0.347
-79.064,-253.023,966.887,-0.354,-0.700,-0.218
-78.190,-252.980,968.809,-0.379,-0.698,-0.202
-77.260,-252.859,968.218,-0.581,-0.705,-0.182
-77.169,-253.795,967.794,-0.644,-0.670,-0.085
-78.705,-255.664,967.393,-0.626,-0.608,-0.070
-78.875,-256.080,967.140,-0.631,-0.656,-0.070
-79.161,-257.218,967.953,-0.627,-0.696,-0.069
-80.000,-258.000,966.000,-0.560,-0.630,-0.070
-79.115,-258.808,965.830,-0.489,-0.627,-0.128
-78.990,-259.322,966.195,-0.508,-0.630,-0.196
-78.441,-258.072,965.630,-0.376,-0.662,-0.221
-78.083,-258.167,965.908,-0.194,-0.725,-0.194
-79.422,-257.356,965.970,-0.124,-0.666,-0.241
-78.657,-255.720,967.186,-0.158,-0.636,-0.273
-78.023,-254.926,966.972,-0.209,-0.704,-0.207
-78.895,-254.018,967.873,-0.143,-0.703,-0.211
-80.677,-254.152,968.299,-0.187,-0.692,-0.155
-80.283,-252.103,967.275,-0.258,-0.716,-0.133
-77.431,-250.478,969.280,-0.368,-0.652,-0.117
-79.336,-253.867,969.282,-0.569,-0.646,-0.047
-79.418,-256.413,967.503,-0.516,-0.716,-0.085
-78.103,-257.127,966.966,-0.418,-0.691,-0.062
-80.000,-258.000,967.000,-0.490,-0.630,-0.070
-79.181,-258.814,967.083,-0.504,-0.624,-0.138
-78.951,-259.920,966.153,-0.344,-0.684,-0.134
-78.407,-259.480,966.220,-0.172,-0.709,-0.182
-78.229,-258.416,967.178,-0.119,-0.692,-0.221
-79.037,-257.677,966.370,-0.021,-0.708,-0.203
-77.717,-256.688,966.037,0.084,-0.688,-0.215
-78.073,-254.858,967.104,0.066,-0.628,-0.207
-78.064,-253.986,967.998,0.005,-0.691,-0.144
-77.793,-254.131,967.251,-0.059,-0.773,-0.133
-78.801,-253.209,966.543,-0.078,-0.722,-0.152
-78.996,-252.865,967.500,-0.076,-0.689,-0.101
-79.017,-253.164,967.642,-0.244,-0.722,-0.060
-78.947,-254.426,966.571,-0.474,-0.787,-0.077
-79.078,-255.011,966.024,-0.477,-0.758,-0.063
-80.000,-256.000,967.000,-0.420,-0.700,-0.000
-80.113,-257.953,967.925,-0.482,-0.703,0.007
-79.712,-257.195,968.088,-0.459,-0.687,-0.051
-80.958,-257.426,967.256,-0.323,-0.755,-0.112
-79.852,-258.128,966.593,-0.265,-0.743,-0.171
-77.341,-257.929,966.984,-0.291,-0.692,-0.246
-78.441,-257.894,966.891,-0.267,-0.694,-0.380
-78.915,-256.924,967.037,-0.207,-0.626,-0.417
-77.106,-256.076,967.045,-0.209,-0.627,-0.353
-76.844,-255.093,966.802,-0.211,-0.635,-0.350
-77.149,-255.030,967.672,-0.239,-0.625,-0.316
-77.080,-254.387,967.719,-0.364,-0.634,-0.206
-78.932,-254.075,968.064,-0.436,-0.628,-0.098
-78.362,-255.386,967.460,-0.411,-0.631,-0.062
-77.126,-256.080,965.930,-0.428,-0.631,0.017
-80.000,-257.000,967.000,-0.490,-0.630,0.070
-80.232,-258.741,967.138,-0.498,-0.625,0.004
-79.643,-259.382,966.195,-0.397,-0.687,0.009
-80.480,-257.944,965.568,-0.253,-0.673,-0.080
-79.073,-258.630,966.692,-0.179,-0.603,-0.162
-79.656,-258.457,968.007,-0.102,-0.662,-0.139
-80.979,-256.774,966.518,0.028,-0.702,-0.237
-78.819,-257.029,966.062,0.067,-0.700,-0.279
-78.822,-256.998,966.972,0.003,-0.701,-0.279
-80.948,-257.130,966.988,0.042,-0.698,-0.284
-79.807,-255.665,966.873,0.143,-0.703,-0.273
-78.138,-254.570,966.738,0.076,-0.697,-0.288
-78.217,-255.407,966.908,-0.047,-0.703,-0.272
-79.313,-256.167,966.877,-0.069,-0.697,-0.287
-78.724,-255.833,967.119,-0.073,-0.701,-0.273
-77.000,-255.000,968.000,-0.140,-0.700,-0.210
-77.803,-256.706,967.248,-0.265,-0.698,-0.145
-78.242,-257.328,965.942,-0.299,-0.703,-0.178
-77.316,-256.191,966.875,-0.226,-0.695,-0.244
-76.803,-255.879,968.324,-0.227,-0.705,-0.151
-77.315,-256.036,967.254,-0.315,-0.695,-0.169
-78.089,-255.891,967.138,-0.350,-0.704,-0.202
-77.989,-256.095,968.038,-0.353,-0.698,-0.138
-78.002,-257.904,968.017,-0.416,-0.697,-0.141
-77.931,-258.066,967.943,-0.381,-0.712,-0.084
-78.640,-258.460,967.985,-0.244,-0.640,-0.062
-79.138,-259.280,966.910,-0.174,-0.661,-0.072
-78.932,-258.527,965.314,-0.107,-0.712,-0.074
-78.889,-257.688,966.336,-0.057,-0.695,-0.055
-77.848,-257.039,965.775,0.014,-0.702,0.006
-78.000,-259.000,966.000,0.070,-0.700,0.000
-78.172,-259.367,967.996,0.065,-0.700,0.003
-76.979,-256.523,967.053,0.124,-0.699,-0.053
-78.068,-255.787,967.555,0.147,-0.702,-0.050
-79.438,-255.983,967.318,0.137,-0.697,0.051
-78.509,-256.006,967.093,0.140,-0.704,0.071
-77.975,-255.850,967.848,0.142,-0.696,0.064
-78.010,-254.956,965.894,0.138,-0.702,-0.005
-78.873,-254.995,966.829,0.076,-0.703,-0.004
-80.100,-254.304,968.045,0.010,-0.687,0.015
-78.622,-253.585,967.661,-0.009,-0.761,-0.059
-78.038,-254.743,968.326,0.014,-0.736,-0.068
-79.762,-254.782,969.097,-0.031,-0.692,-0.076
-79.785,-255.446,968.508,-0.075,-0.698,-0.062
-78.864,-257.163,966.844,-0.070,-0.707,-0.076
-78.000,-257.000,967.000,-0.070,-0.770,-0.070
-77.902,-256.926,967.021,-0.064,-0.712,-0.000
-78.723,-257.155,967.038,-0.129,-0.688,-0.051
-79.648,-256.321,966.217,-0.111,-0.711,-0.078
-79.867,-255.792,965.966,-0.045,-0.691,-0.068
-78.472,-256.086,967.206,-0.102,-0.706,-0.066
-79.545,-255.826,966.702,-0.136,-0.697,-0.081
-80.963,-254.952,965.997,-0.064,-0.701,-0.143
-79.117,-254.956,966.861,-0.064,-0.701,-0.140
-78.907,-255.789,968.800,-0.136,-0.699,-0.191
-78.459,-256.214,967.828,-0.134,-0.697,-0.231
-78.051,-255.245,966.092,-0.174,-0.729,-0.163
-79.586,-255.211,967.680,-0.237,-0.791,-0.136
-78.400,-256.164,967.624,-0.295,-0.747,-0.141
-78.218,-255.961,967.016,-0.270,-0.697,-0.140
-80.000,-256.000,967.000,-0.280,-0.700,-0.140
-80.076,-255.136,966.840,-0.412,-0.697,-0.140
-79.361,-255.421,967.987,-0.378,-0.747,-0.138
-78.194,-256.926,967.084,-0.306,-0.792,-0.147
-78.029,-256.776,967.216,-0.242,-0.724,-0.111
-77.852,-257.128,967.739,-0.207,-0.717,-0.057
-78.216,-256.926,966.822,-0.207,-0.773,-0.077
-79.013,-258.172,967.007,-0.213,-0.693,-0.068
-78.963,-259.095,966.099,-0.216,-0.693,-0.067
-79.882,-257.261,965.766,-0.090,-0.771,-0.127
-79.473,-256.454,966.596,-0.065,-0.722,-0.184
-78.673,-254.993,967.262,-0.059,-0.692,-0.254
-79.285,-255.576,968.086,-0.121,-0.704,-0.286
-78.523,-255.553,967.796,-0.223,-0.698,-0.277
-76.826,-253.938,968.110,-0.216,-0.701,-0.282
-77.000,-255.000,968.000,-0.350,-0.700,-0.280
-77.123,-255.042,967.023,-0.361,-0.641,-0.220
-76.675,-255.075,967.075,-0.372,-0.613,-0.198
-78.297,-254.236,966.565,-0.529,-0.682,-0.227
-79.217,-254.536,967.503,-0.565,-0.700,-0.171
-78.714,-256.614,967.377,-0.549,-0.705,-0.136
-77.813,-257.049,965.710,-0.472,-0.689,-0.140
-78.081,-258.111,966.061,-0.498,-0.626,-0.141
-78.967,-258.988,966.051,-0.565,-0.627,-0.141
-79.688,-258.954,965.818,-0.398,-0.687,-0.136
-80.454,-259.526,966.602,-0.245,-0.710,-0.148
-78.969,-260.306,966.867,-0.121,-0.689,-0.126
-79.650,-259.374,966.801,0.095,-0.711,-0.172
-79.635,-259.043,966.985,0.122,-0.690,-0.214
-79.140,-258.919,967.000,0.071,-0.706,-0.210
-80.000,-259.000,967.000,0.140,-0.700,-0.210
-78.141,-259.248,966.979,0.255,-0.687,-0.207
-78.717,-257.170,967.064,0.407,-0.773,-0.217
-78.528,-257.745,966.278,0.354,-0.714,-0.198
-77.910,-256.852,965.542,0.226,-0.735,-0.229
-77.641,-254.392,966.183,0.197,-0.755,-0.177
-77.198,-255.235,967.163,0.126,-0.700,-0.144
-79.057,-254.920,968.066,0.144,-0.775,-0.135
-77.206,-254.046,968.078,0.146,-0.773,-0.069
-76.586,-253.846,967.021,0.032,-0.766,-0.133
-78.005,-254.766,967.460,-0.102,-0.771,-0.097
-77.824,-254.796,967.975,-0.156,-0.775,-0.063
-78.135,-255.712,967.719,-0.142,-0.745,-0.065
-77.896,-257.077,968.053,-0.249,-0.691,-0.090
-78.047,-255.823,967.920,-0.271,-0.702,-0.137
-78.000,-256.000,967.000,-0.210,-0.700,-0.070
-77.969,-256.039,966.834,-0.209,-0.702,-0.130
-78.039,-256.527,967.960,-0.245,-0.689,-0.103
-77.958,-257.788,967.145,-0.354,-0.752,-0.046
-77.968,-257.940,967.126,-0.285,-0.745,-0.089
-78.160,-257.968,967.847,-0.196,-0.692,-0.057
-79.297,-258.001,966.714,-0.207,-0.693,-0.078
-79.998,-257.992,967.079,-0.134,-0.628,-0.068
-79.108,-257.981,967.092,-0.074,-0.693,-0.068
-78.063,-258.115,966.022,-0.009,-0.712,-0.076
-77.992,-257.212,965.954,-0.000,-0.687,-0.062
-78.217,-256.954,965.522,0.031,-0.710,-0.079
-79.799,-256.620,966.601,0.083,-0.708,-0.060
-79.509,-255.886,968.217,0.066,-0.796,-0.080
-77.938,-255.957,967.932,0.067,-0.754,-0.060
-79.000,-255.000,968.000,0.000,-0.700,0.000
-79.091,-255.695,968.012,-0.004,-0.709,-0.058
-78.897,-257.099,968.018,-0.036,-0.635,-0.088
-79.058,-256.186,967.318,-0.108,-0.667,-0.018
-78.966,-256.314,966.536,0.008,-0.714,0.001
-78.930,-256.971,967.037,0.081,-0.680,0.004
-79.166,-255.681,966.840,0.061,-0.617,-0.010
-80.014,-256.126,967.078,-0.005,-0.636,-0.073
-79.090,-257.045,967.977,-0.005,-0.701,-0.072
-78.849,-256.060,967.992,0.019,-0.641,-0.066
-79.117,-256.157,967.442,-0.074,-0.662,-0.076
-79.202,-254.888,965.788,0.004,-0.729,-0.062
-80.513,-253.690,966.655,0.076,-0.658,-0.092
-79.353,-254.084,967.975,-0.052,-0.641,-0.163
-77.929,-253.985,966.918,-0.238,-0.707,-0.214
-78.000,-254.000,968.000,-0.350,-0.700,-0.210
-77.960,-253.937,968.145,-0.346,-0.696,-0.211
-78.157,-254.719,967.740,-0.405,-0.708,-0.169
-77.271,-255.484,968.167,-0.417,-0.687,-0.082
-77.222,-256.590,967.123,-0.470,-0.720,-0.075
-78.445,-256.893,966.936,-0.594,-0.665,-0.050
-79.078,-257.212,966.757,-0.531,-0.641,0.009
-78.957,-257.986,966.029,-0.413,-0.700,-0.004
-78.065,-257.038,967.838,-0.352,-0.634,-0.066
-77.834,-257.706,968.381,-0.349,-0.673,-0.081
-78.776,-258.176,966.223,-0.320,-0.761,-0.017
-78.655,-257.791,966.108,-0.198,-0.775,0.003
-77.795,-258.039,967.177,-0.120,-0.746,0.003
-79.872,-257.992,966.588,-0.155,-0.698,-0.013
-80.850,-257.897,966.086,-0.127,-0.785,-0.077
-79.000,-256.000,968.000,-0.070,-0.770,-0.070
-79.750,-254.901,969.070,-0.189,-0.697,-0.064
-80.366,-255.889,968.180,-0.239,-0.754,-0.119
-78.757,-255.468,967.748,-0.116,-0.778,-0.187
-77.309,-254.670,967.862,-0.066,-0.747,-0.219
-77.111,-255.296,967.643,-0.217,-0.666,-0.204
-78.314,-256.197,966.756,-0.368,-0.629,-0.213
-78.992,-257.033,967.106,-0.347,-0.629,-0.209
-78.093,-256.147,968.035,-0.349,-0.627,-0.208
-77.714,-254.897,967.008,-0.303,-0.693,-0.218
-79.480,-255.772,968.080,-0.249,-0.663,-0.161
-79.823,-255.849,968.869,-0.366,-0.608,-0.132
-78.303,-256.352,966.925,-0.431,-0.650,-0.144
-78.136,-257.172,967.324,-0.418,-0.604,-0.140
-79.183,-258.230,967.969,-0.415,-0.563,-0.136
-80.000,-259.000,967.000,-0.280,-0.630,-0.070
-80.001,-258.063,966.055,-0.087,-0.635,-0.059
-80.046,-258.064,966.001,-0.058,-0.624,-0.131
-79.823,-257.676,965.317,-0.078,-0.635,-0.138
-80.556,-258.744,964.734,-0.067,-0.642,-0.147
-80.682,-258.216,966.819,-0.052,-0.745,-0.129
-78.511,-255.541,967.889,0.118,-0.756,-0.156
-78.047,-254.966,966.983,0.206,-0.701,-0.209
-78.924,-254.045,967.908,0.079,-0.767,-0.145
-79.923,-254.632,968.185,0.009,-0.722,-0.134
-78.976,-255.817,967.088,-0.047,-0.681,-0.144
-77.157,-255.995,966.641,-0.080,-0.717,-0.141
-79.274,-255.865,967.217,-0.066,-0.685,-0.119
-79.562,-256.200,967.999,-0.063,-0.712,-0.064
-77.938,-257.132,966.746,0.012,-0.693,-0.161
-79.000,-258.000,966.000,-0.000,-0.700,-0.210
-78.305,-258.181,966.049,-0.071,-0.768,-0.142
-76.931,-256.446,965.822,-0.019,-0.765,-0.188
-77.631,-255.385,966.470,0.013,-0.786,-0.223
-78.085,-254.259,967.122,-0.027,-0.725,-0.200
-77.960,-254.253,968.430,-0.100,-0.718,-0.220
-77.936,-254.962,968.711,-0.142,-0.770,-0.198
-76.903,-253.936,966.935,-0.143,-0.694,-0.137
-76.874,-253.961,967.892,-0.266,-0.697,-0.138
-78.816,-254.696,967.537,-0.408,-0.707,-0.148
-78.397,-255.915,965.618,-0.419,-0.691,-0.093
-78.177,-255.565,966.640,-0.450,-0.710,-0.054
-79.416,-257.231,966.408,-0.499,-0.691,-0.099
-78.604,-258.931,965.939,-0.356,-0.708,-0.149
-77.978,-256.785,965.966,-0.202,-0.695,-0.136
-78.000,-258.000,966.000,-0.280,-0.700,-0.140
-78.821,-257.409,966.900,-0.296,-0.765,-0.201
-79.274,-255.797,967.049,-0.171,-0.771,-0.223
-78.227,-256.318,966.747,-0.090,-0.775,-0.165
-77.934,-255.526,967.127,-0.075,-0.743,-0.131
-78.178,-256.402,968.174,-0.199,-0.685,-0.145
-79.151,-255.489,967.659,-0.286,-0.709,-0.137
-77.812,-253.994,967.045,-0.281,-0.695,-0.141
-76.885,-254.917,967.987,-0.344,-0.631,-0.143
-78.866,-255.815,967.216,-0.408,-0.682,-0.084
-78.266,-256.174,966.693,-0.466,-0.715,-0.056
-78.409,-255.632,966.919,-0.530,-0.684,-0.110
-78.930,-256.422,966.550,-0.562,-0.717,-0.149
-77.562,-255.086,965.672,-0.445,-0.675,-0.136
-76.999,-251.626,966.276,-0.545,-0.632,-0.139
-78.000,-252.000,968.000,-1.120,-0.700,-0.070
-79.901,-256.200,967.941,-1.352,-0.763,0.001
-79.341,-260.031,968.865,-1.119,-0.782,-0.013
-78.868,-258.025,967.878,-0.945,-0.723,0.057
-78.682,-257.498,966.030,-0.917,-0.695,0.022
-77.892,-261.428,965.653,-1.014,-0.698,-0.102
-79.439,-263.300,964.791,-0.944,-0.709,-0.052
-79.949,-265.119,965.058,-0.754,-0.774,-0.079
-79.042,-264.254,965.075,-0.451,-0.772,-0.205
-78.945,-260.665,964.021,-0.107,-0.770,-0.216
-79.069,-257.996,964.881,-0.053,-0.733,-0.205
-78.817,-255.520,966.923,-0.117,-0.674,-0.215
-79.458,-254.766,966.141,-0.318,-0.738,-0.205
-79.814,-253.332,966.497,-0.423,-0.771,-0.215
-77.644,-252.014,969.367,-0.436,-0.771,-0.204
-77.000,-254.000,970.000,-0.630,-0.770,-0.140
-77.933,-256.630,969.189,-0.645,-0.767,-0.079
-78.026,-259.144,967.514,-0.567,-0.780,-0.016
-77.945,-261.845,966.093,-0.558,-0.724,0.012
-78.276,-264.001,965.345,-0.553,-0.693,-0.029
-79.463,-265.454,964.831,-0.407,-0.703,-0.096
-80.041,-265.891,966.378,-0.165,-0.699,-0.151
-79.978,-263.775,966.966,-0.062,-0.701,-0.217
-79.102,-261.165,966.063,0.122,-0.702,-0.341
-78.093,-258.715,965.830,0.277,-0.647,-0.417
-77.516,-255.721,966.604,0.240,-0.612,-0.418
-76.109,-253.971,966.772,0.150,-0.654,-0.425
-76.419,-252.126,967.356,-0.016,-0.585,-0.402
-76.916,-252.352,969.465,-0.184,-0.577,-0.318
-75.861,-252.909,968.677,-0.299,-0.629,-0.189
-76.000,-252.000,967.000,-0.490,-0.560,-0.070
-77.650,-253.612,967.018,-0.737,-0.557,-0.006
-79.732,-256.103,966.301,-0.926,-0.559,0.007
-79.598,-259.420,965.558,-1.086,-0.595,-0.012
-78.592,-261.926,966.322,-1.108,-0.648,0.037
-79.608,-261.765,966.972,-1.007,-0.616,0.065
-81.269,-262.285,966.851,-0.873,-0.644,-0.022
-80.897,-264.125,965.918,-0.685,-0.702,-0.072
-79.979,-264.133,965.042,-0.505,-0.701,-0.133
-80.879,-262.213,964.885,-0.314,-0.697,-0.202
-80.466,-261.969,965.489,-0.222,-0.706,-0.247
-79.692,-261.498,966.020,-0.160,-0.691,-0.332
-80.240,-260.438,965.603,0.024,-0.713,-0.347
-79.674,-257.996,966.291,0.168,-0.678,-0.358
-78.982,-255.996,967.028,0.118,-0.632,-0.341
-79.000,-258.000,967.000,-0.070,-0.700,-0.280
-77.290,-258.184,967.108,-0.084,-0.708,-0.283
-77.145,-257.687,965.532,-0.041,-0.647,-0.229
-79.877,-258.770,964.483,-0.169,-0.614,-0.200
-78.969,-258.673,965.047,-0.216,-0.667,-0.216
-78.065,-257.456,964.775,-0.222,-0.705,-0.206
-79.151,-257.062,966.528,-0.298,-0.700,-0.212
-78.986,-258.090,968.035,-0.353,-0.699,-0.209
-79.023,-258.958,968.011,-0.353,-0.697,-0.209
-78.190,-259.097,967.347,-0.291,-0.762,-0.260
-77.910,-258.729,965.818,-0.303,-0.739,-0.339
-77.689,-259.667,966.448,-0.442,-0.645,-0.348
-76.366,-259.637,966.583,-0.483,-0.646,-0.358
-76.116,-258.917,965.778,-0.397,-0.719,-0.332
-77.146,-258.916,966.119,-0.437,-0.687,-0.276
-77.000,-258.000,967.000,-0.560,-0.630,-0.280
-76.812,-259.633,967.064,-0.628,-0.633,-0.223
-78.050,-260.485,966.880,-0.587,-0.616,-0.156
-77.183,-258.925,966.615,-0.536,-0.685,-0.098
-77.474,-259.300,964.780,-0.585,-0.674,-0.057
-77.890,-258.275,965.586,-0.532,-0.619,-0.080
-78.452,-258.629,966.965,-0.591,-0.638,-0.057
-81.094,-264.478,965.956,-0.618,-0.708,0.002
-79.255,-267.118,966.021,-0.308,-0.771,-0.059
-77.709,-263.837,965.123,0.009,-0.710,-0.198
-79.469,-260.811,965.362,0.208,-0.699,-0.174
-80.273,-258.707,966.043,0.130,-0.690,-0.119
-79.301,-257.696,965.695,0.082,-0.731,-0.158
-77.635,-258.279,966.028,0.135,-0.772,-0.116
-78.200,-259.018,965.999,-0.027,-0.773,-0.072
-79.000,-258.000,966.000,-0.070,-0.770,-0.140
-78.975,-257.832,965.878,-0.062,-0.700,-0.147
-79.100,-258.324,967.440,-0.120,-0.758,-0.127
-78.420,-257.415,968.192,-0.213,-0.734,-0.162
-77.732,-258.952,967.216,-0.338,-0.693,-0.091
-78.356,-258.276,966.773,-0.350,-0.685,-0.089
-79.071,-258.518,966.949,-0.463,-0.622,-0.144
-78.992,-261.062,965.879,-0.638,-0.630,-0.142
-79.000,-260.061,964.989,-0.634,-0.627,-0.206
-78.975,-260.728,965.127,-0.622,-0.693,-0.211
-79.088,-260.621,964.445,-0.641,-0.657,-0.249
-78.482,-259.159,966.131,-0.615,-0.646,-0.298
-77.808,-258.890,966.527,-0.650,-0.724,-0.266
-78.097,-259.179,966.083,-0.594,-0.687,-0.291
-77.944,-260.135,966.987,-0.481,-0.706,-0.270
-78.000,-261.000,965.000,-0.490,-0.700,-0.210
-78.909,-261.951,964.697,-0.492,-0.696,-0.208
-78.536,-261.938,966.711,-0.488,-0.706,-0.211
-76.935,-262.175,966.496,-0.491,-0.694,-0.212
-77.864,-261.288,965.041,-0.476,-0.705,-0.191
-79.267,-261.248,965.104,-0.365,-0.696,-0.105
-78.901,-262.010,966.088,-0.273,-0.702,-0.070
-79.018,-262.068,965.990,-0.277,-0.699,-0.068
-78.994,-263.034,966.004,-0.152,-0.699,-0.065
-79.720,-261.311,965.937,-0.064,-0.702,-0.184
-80.310,-261.472,966.010,-0.120,-0.697,-0.229
-79.271,-261.452,965.151,-0.149,-0.705,-0.191
-79.019,-258.952,965.045,-0.130,-0.680,-0.242
-78.819,-259.321,966.194,-0.157,-0.612,-0.288
-77.848,-260.070,965.878,-0.215,-0.643,-0.274
-77.000,-260.000,965.000,-0.210,-0.700,-0.210
-76.127,-258.211,964.870,-0.264,-0.638,-0.151
-75.756,-258.445,965.818,-0.381,-0.626,-0.043
-77.164,-259.378,966.180,-0.512,-0.626,0.064
-78.341,-258.792,967.721,-0.580,-0.661,0.063
-77.855,-260.980,967.155,-0.547,-0.697,0.080
-79.610,-262.017,965.985,-0.569,-0.613,0.056
-80.974,-263.200,967.035,-0.554,-0.635,-0.002
-80.015,-265.888,966.101,-0.432,-0.635,0.001
-80.812,-266.096,965.237,-0.256,-0.613,-0.051
-80.555,-265.935,963.363,-0.065,-0.698,-0.122
-79.562,-265.626,963.382,0.107,-0.657,-0.172
-80.578,-264.201,965.527,0.287,-0.645,-0.244
-80.886,-262.430,964.406,0.362,-0.714,-0.286
-79.811,-260.758,964.111,0.437,-0.695,-0.278
-79.000,-259.000,965.000,0.490,-0.700,-0.280
-79.019,-257.168,966.640,0.367,-0.703,-0.286
-78.374,-256.829,968.130,0.338,-0.696,-0.226
-77.257,-257.502,967.036,0.335,-0.706,-0.205
-76.858,-258.483,966.919,0.203,-0.693,-0.193
-77.256,-259.178,966.471,0.116,-0.708,-0.106
-78.142,-260.386,965.975,0.053,-0.688,-0.067
-77.963,-262.082,965.934,-0.001,-0.626,-0.072
-77.965,-262.054,964.122,0.062,-0.627,-0.135
-78.111,-261.262,964.395,0.141,-0.688,-0.150
-77.752,-259.625,966.636,0.093,-0.711,-0.126
-78.677,-258.565,966.272,0.064,-0.686,-0.157
-78.763,-259.282,965.786,0.057,-0.731,-0.119
-77.675,-258.612,965.790,-0.027,-0.775,-0.168
-76.901,-258.006,964.950,-0.077,-0.770,-0.205
-77.000,-258.000,966.000,-0.210,-0.770,-0.140
-78.770,-257.847,966.992,-0.405,-0.710,-0.084
-79.210,-259.533,966.899,-0.426,-0.690,0.001
-78.784,-260.133,967.022,-0.448,-0.711,-0.050
-79.173,-260.128,966.215,-0.517,-0.687,-0.045
-78.816,-261.464,966.036,-0.456,-0.714,0.007
-79.142,-262.103,967.034,-0.422,-0.683,0.008
-78.917,-263.093,965.905,-0.416,-0.631,0.072
-77.995,-263.949,965.947,-0.293,-0.695,0.006
-78.805,-264.851,965.432,-0.112,-0.707,-0.008
-79.071,-264.118,964.240,0.043,-0.693,-0.025
-79.023,-261.282,965.924,0.075,-0.707,-0.129
-78.627,-261.206,965.076,0.084,-0.694,-0.137
-78.015,-260.474,965.472,0.169,-0.704,-0.134
-79.129,-258.831,967.097,0.208,-0.698,-0.058
-78.000,-258.000,967.000,0.140,-0.700,-0.070
-76.863,-257.874,967.048,0.076,-0.703,-0.083
-78.471,-258.285,966.808,0.023,-0.693,-0.003
-79.847,-257.416,967.180,-0.046,-0.714,-0.010
-79.343,-259.200,966.020,-0.116,-0.660,0.018
-77.591,-259.847,966.108,-0.267,-0.640,-0.032
-79.641,-260.303,965.576,-0.258,-0.713,-0.069
-79.880,-260.947,965.107,-0.214,-0.696,-0.072
-79.829,-260.040,965.280,-0.283,-0.696,-0.073
-80.746,-257.050,960.274,-0.149,-0.719,-0.100
-76.886,-246.741,964.260,-0.401,-0.591,-0.279
-79.921,-248.226,971.083,-1.232,-0.622,-0.167
-81.275,-256.823,969.951,-1.595,-0.886,-0.067
-77.254,-255.164,970.087,-1.288,-0.862,-0.151
-79.486,-257.855,968.644,-1.214,-0.682,-0.054
-80.000,-262.000,967.000,-1.470,-0.630,-0.070
-79.075,-265.180,964.509,-1.595,-0.564,-0.140
-78.209,-270.220,962.640,-1.687,-0.604,-0.099
-78.784,-271.546,963.865,-1.497,-0.647,-0.004
-80.724,-272.478,963.135,-0.947,-0.617,-0.070
-79.255,-270.758,963.121,-0.467,-0.638,-0.285
-79.182,-267.417,964.047,-0.151,-0.630,-0.354
-78.875,-265.860,964.024,0.007,-0.710,-0.348
-77.075,-263.206,964.917,0.066,-0.773,-0.285
-76.936,-261.319,965.801,0.122,-0.706,-0.273
-76.990,-259.542,966.542,0.199,-0.736,-0.258
-77.320,-259.082,966.956,0.186,-0.815,-0.119
-78.578,-260.186,966.698,0.107,-0.852,-0.060
-78.990,-258.465,967.098,0.045,-0.822,-0.074
-79.045,-260.671,966.875,-0.091,-0.766,-0.068
-79.000,-263.000,966.000,-0.140,-0.770,-0.070
-78.068,-261.059,965.982,-0.131,-0.711,-0.128
-78.059,-262.367,965.917,-0.203,-0.687,-0.198
-77.347,-263.716,966.420,-0.173,-0.714,-0.216
-77.213,-263.930,966.662,-0.129,-0.685,-0.204
-78.150,-261.960,965.448,-0.133,-0.715,-0.217
-76.471,-261.100,966.234,-0.051,-0.683,-0.199
-76.137,-260.856,965.886,-0.079,-0.629,-0.137
-78.855,-258.995,964.966,-0.203,-0.630,-0.138
-78.554,-260.059,965.872,-0.267,-0.627,-0.148
-76.753,-258.311,965.819,-0.327,-0.637,-0.092
-78.143,-259.629,965.915,-0.388,-0.619,-0.061
-79.193,-262.778,965.647,-0.433,-0.643,-0.064
-78.902,-261.730,966.133,-0.412,-0.615,0.038
-79.094,-263.285,964.444,-0.422,-0.645,0.059
-80.000,-262.000,961.000,-0.350,-0.700,-0.070
-79.265,-257.579,962.513,-0.373,-0.575,-0.136
-78.558,-254.510,965.205,-0.829,-0.585,-0.146
-79.733,-254.333,968.197,-1.201,-0.756,-0.108
-77.169,-258.542,970.627,-1.265,-0.910,0.006
-76.328,-261.673,968.934,-1.108,-0.866,0.226
-78.331,-262.206,967.859,-0.978,-0.759,0.253
-79.076,-266.532,966.872,-1.134,-0.769,0.059
-80.007,-273.595,965.103,-1.195,-0.705,0.063
-79.122,-276.685,964.160,-1.045,-0.692,0.089
-79.558,-277.831,963.158,-0.615,-0.707,-0.024
-80.143,-277.021,962.582,0.102,-0.695,-0.141
-79.982,-272.565,963.222,0.589,-0.701,-0.274
-79.821,-267.734,964.203,0.729,-0.701,-0.365
-78.873,-265.861,965.184,0.865,-0.698,-0.344
-78.000,-264.000,966.000,0.980,-0.700,-0.350
-76.988,-260.438,965.151,1.038,-0.766,-0.359
-77.772,-257.889,964.793,1.080,-0.726,-0.287
-77.995,-255.145,965.408,0.896,-0.680,-0.291
-78.151,-255.866,966.306,0.636,-0.733,-0.224
-77.537,-257.062,966.999,0.391,-0.796,-0.104
-77.146,-257.228,966.829,0.171,-0.841,-0.059
-77.990,-259.116,965.939,0.062,-0.762,0.004
-77.031,-259.919,965.929,-0.060,-0.700,0.002
-77.763,-261.629,966.934,-0.182,-0.703,-0.004
-78.030,-262.574,966.236,-0.281,-0.694,0.004
-78.486,-264.130,965.645,-0.215,-0.712,-0.004
-78.818,-264.809,965.690,-0.101,-0.669,0.005
-77.915,-263.968,964.630,-0.045,-0.634,-0.010
-79.208,-265.093,965.239,0.089,-0.711,-0.084
-79.000,-264.000,966.000,0.140,-0.700,-0.140
-78.824,-264.724,964.241,0.251,-0.691,-0.136
-79.958,-264.322,963.729,0.408,-0.721,-0.192
-79.435,-259.848,964.461,0.391,-0.636,-0.218
-78.813,-258.972,965.262,0.290,-0.665,-0.208
-78.947,-258.582,966.020,0.169,-0.701,-0.199
-77.652,-258.041,965.883,0.143,-0.706,-0.120
-78.172,-259.091,966.043,0.137,-0.695,-0.068
-80.000,-259.962,966.068,0.076,-0.629,-0.069
-79.067,-260.046,965.041,-0.034,-0.692,-0.075
-79.720,-260.304,965.435,-0.179,-0.657,-0.026
-79.535,-262.251,966.002,-0.221,-0.643,0.017
-79.115,-263.041,965.699,-0.191,-0.742,-0.030
-80.219,-263.049,966.054,-0.113,-0.776,-0.079
-79.952,-262.873,965.964,-0.069,-0.762,-0.066
-80.000,-262.000,966.000,-0.070,-0.700,-0.070
-79.145,-263.648,966.025,-0.013,-0.760,-0.134
-78.876,-264.506,965.922,0.097,-0.739,-0.140
-79.055,-262.469,965.939,0.211,-0.636,-0.174
-79.007,-261.919,965.396,0.170,-0.633,-0.230
-78.745,-261.736,964.602,0.155,-0.639,-0.193
-77.865,-260.773,965.226,0.214,-0.717,-0.228
-78.025,-259.931,965.997,0.131,-0.694,-0.280
-78.013,-259.045,965.070,0.070,-0.692,-0.217
-77.991,-258.930,965.507,0.075,-0.775,-0.150
-77.952,-259.034,967.029,0.029,-0.709,-0.098
-78.112,-258.840,965.621,-0.043,-0.739,-0.025
-77.566,-259.229,964.885,-0.091,-0.754,0.006
-77.026,-260.449,966.297,-0.167,-0.697,-0.003
-78.213,-262.263,965.808,-0.208,-0.784,0.001
-79.000,-263.000,965.000,-0.140,-0.770,-0.000
-79.020,-262.902,965.825,-0.075,-0.760,-0.002
-78.952,-263.863,966.249,-0.067,-0.793,0.007
-79.072,-263.468,965.013,-0.050,-0.704,-0.039
-78.850,-262.769,965.144,0.078,-0.738,-0.085
-79.174,-262.759,966.069,0.152,-0.757,-0.058
-78.739,-260.294,965.793,0.133,-0.691,-0.084
-78.023,-259.039,964.953,0.062,-0.701,-0.144
-78.963,-259.987,964.953,-0.001,-0.700,-0.203
-78.321,-259.230,965.782,0.017,-0.704,-0.278
-77.589,-258.795,966.513,-0.140,-0.654,-0.237
-79.171,-259.075,967.067,-0.244,-0.621,-0.197
-79.826,-258.827,966.332,-0.185,-0.619,-0.218
-77.095,-259.201,965.963,-0.241,-0.537,-0.205
-77.379,-260.121,965.920,-0.371,-0.575,-0.212
-79.000,-260.000,965.000,-0.490,-0.630,-0.210
-77.094,-258.995,964.936,-0.551,-0.569,-0.208
-78.367,-260.275,965.070,-0.619,-0.550,-0.213
-79.235,-261.962,964.686,-0.604,-0.600,-0.206
-79.242,-261.719,965.218,-0.515,-0.646,-0.214
-80.049,-262.379,966.070,-0.477,-0.614,-0.206
-78.691,-262.988,965.763,-0.394,-0.649,-0.213
-79.105,-263.059,964.976,-0.272,-0.699,-0.209
-79.991,-264.007,965.001,-0.211,-0.634,-0.208
-79.973,-262.453,964.924,-0.213,-0.626,-0.216
-80.061,-262.080,965.463,-0.171,-0.629,-0.196
-79.599,-263.780,966.063,-0.076,-0.658,-0.255
-78.399,-261.671,965.359,0.071,-0.721,-0.279
-78.111,-261.302,965.010,0.141,-0.678,-0.296
-79.177,-261.913,966.194,0.054,-0.625,-0.351
-80.000,-261.000,966.000,-0.000,-0.630,-0.280
-79.292,-261.128,964.928,-0.001,-0.693,-0.271
-77.809,-259.416,965.902,0.001,-0.669,-0.298
-79.404,-259.262,965.192,-0.001,-0.555,-0.227
-79.409,-260.300,965.049,-0.011,-0.623,-0.211
-77.523,-259.718,966.107,-0.138,-0.719,-0.205
-78.201,-260.213,965.791,-0.305,-0.693,-0.216
-77.946,-261.038,964.944,-0.272,-0.702,-0.205
-77.953,-261.029,964.929,-0.208,-0.701,-0.141
-78.127,-260.874,965.953,-0.315,-0.696,-0.192
-77.758,-261.670,965.158,-0.424,-0.705,-0.224
-78.616,-262.078,965.065,-0.377,-0.694,-0.197
-79.041,-261.674,966.208,-0.361,-0.707,-0.222
-79.018,-260.704,965.594,-0.441,-0.694,-0.199
-78.928,-261.225,965.031,-0.403,-0.705,-0.221
-78.000,-262.000,966.000,-0.280,-0.700,-0.280
-77.911,-260.972,966.143,-0.326,-0.632,-0.224
-78.151,-262.435,965.104,-0.438,-0.677,-0.150
-77.773,-263.219,964.872,-0.292,-0.714,-0.136
-78.251,-262.856,964.626,-0.183,-0.690,-0.143
-77.673,-262.779,965.252,-0.212,-0.707,-0.137
-78.369,-261.837,965.907,-0.113,-0.696,-0.143
-78.910,-262.015,964.950,-0.070,-0.701,-0.139
-77.066,-261.130,964.988,-0.069,-0.701,-0.138
-77.690,-259.972,964.928,-0.167,-0.697,-0.149
-78.247,-260.599,965.521,-0.297,-0.705,-0.088
-77.444,-261.181,965.847,-0.217,-0.694,-0.069
-76.713,-260.531,966.141,-0.260,-0.706,-0.051
-77.385,-259.868,966.988,-0.368,-0.695,0.014
-77.912,-260.086,965.830,-0.343,-0.703,-0.005
-77.000,-261.000,966.000,-0.350,-0.700,-0.000
-78.639,-261.888,965.305,-0.470,-0.696,0.007
-80.053,-262.745,963.867,-0.519,-0.711,-0.055
-79.436,-262.755,964.566,-0.418,-0.680,-0.081
-78.668,-261.209,964.742,-0.467,-0.749,-0.041
-79.491,-263.078,965.135,-0.459,-0.748,0.016
-79.832,-263.539,966.086,-0.325,-0.703,-0.015
-79.028,-260.941,965.988,-0.278,-0.774,-0.072
-80.865,-262.818,966.008,-0.277,-0.772,-0.071
-80.575,-263.278,965.301,-0.340,-0.771,-0.068
-78.673,-262.700,963.955,-0.352,-0.729,-0.075
-80.609,-262.868,964.157,-0.354,-0.685,-0.058
-82.269,-260.974,965.377,-0.339,-0.708,-0.114
-80.175,-259.675,965.996,-0.372,-0.704,-0.238
-79.002,-258.973,966.071,-0.419,-0.783,-0.194
-79.000,-260.000,967.000,-0.420,-0.770,-0.140
-78.059,-260.949,966.288,-0.548,-0.701,-0.145
-78.047,-261.619,964.902,-0.519,-0.706,-0.124
-77.780,-262.313,965.519,-0.501,-0.686,-0.198
-78.607,-261.500,965.812,-0.618,-0.738,-0.181
-78.758,-262.726,965.933,-0.626,-0.773,-0.132
-77.902,-264.088,965.802,-0.627,-0.773,-0.141
-78.001,-264.027,964.972,-0.552,-0.767,-0.141
-77.970,-264.938,965.014,-0.492,-0.703,-0.142
-78.784,-265.097,964.232,-0.439,-0.700,-0.130
-79.634,-264.465,963.554,-0.394,-0.662,-0.196
-80.323,-262.491,964.757,-0.496,-0.606,-0.204
-79.381,-260.042,966.535,-0.599,-0.666,-0.242
-79.111,-260.283,966.877,-0.634,-0.702,-0.271
-78.817,-261.080,967.153,-0.632,-0.701,-0.207
-78.000,-262.000,968.000,-0.700,-0.700,-0.280
-78.244,-263.772,966.333,-0.713,-0.639,-0.291
-75.543,-264.796,964.984,-0.631,-0.621,-0.221
-75.738,-265.490,964.940,-0.673,-0.640,-0.204
-77.881,-266.510,964.401,-0.693,-0.618,-0.219
-77.953,-266.935,963.585,-0.568,-0.643,-0.187
-77.959,-265.529,964.246,-0.378,-0.613,-0.135
-78.062,-263.940,964.989,-0.278,-0.561,-0.138
-79.003,-263.973,964.070,-0.280,-0.625,-0.074
-78.089,-264.056,963.863,-0.276,-0.636,-0.112
-79.129,-263.832,964.417,-0.294,-0.624,-0.206
-80.435,-264.472,965.575,-0.213,-0.634,-0.203
-79.716,-264.947,965.298,-0.096,-0.628,-0.219
-80.129,-263.418,963.542,-0.065,-0.629,-0.201
-79.975,-263.156,964.233,-0.077,-0.635,-0.219
-80.000,-264.000,965.000,-0.140,-0.700,-0.280
-78.307,-262.273,964.907,-0.086,-0.706,-0.279
-77.657,-261.723,965.765,-0.044,-0.689,-0.326
-78.353,-262.266,965.968,-0.160,-0.718,-0.373
-77.589,-261.331,965.395,-0.250,-0.656,-0.307
-78.515,-261.059,964.627,-0.288,-0.643,-0.282
-78.900,-262.381,965.107,-0.279,-0.710,-0.269
-77.914,-264.117,964.957,-0.360,-0.698,-0.207
-77.019,-264.986,964.949,-0.425,-0.698,-0.210
-77.707,-264.965,965.198,-0.304,-0.704,-0.159
-78.231,-265.128,963.930,-0.266,-0.694,-0.118
-78.071,-263.972,964.307,-0.288,-0.708,-0.188
-79.668,-262.734,964.939,-0.276,-0.690,-0.212
-78.181,-264.695,964.962,-0.276,-0.717,-0.211
-77.104,-264.792,964.987,-0.190,-0.776,-0.209
-78.000,-264.000,965.000,-0.070,-0.770,-0.210
-77.040,-264.949,965.045,-0.061,-0.709,-0.212
-77.747,-264.924,964.821,-0.125,-0.690,-0.204
-77.647,-264.883,965.510,-0.152,-0.711,-0.223
-76.332,-262.125,965.830,-0.107,-0.686,-0.173
-76.029,-261.340,965.923,-0.070,-0.716,-0.138
-77.442,-263.117,965.800,-0.167,-0.681,-0.130
-77.893,-261.953,964.977,-0.209,-0.632,-0.069
-76.030,-263.784,965.027,-0.206,-0.696,-0.134
-77.517,-264.477,964.136,-0.269,-0.703,-0.106
-78.271,-262.735,964.272,-0.319,-0.700,0.013
-78.174,-263.816,965.532,-0.382,-0.695,-0.057
-79.399,-263.451,965.902,-0.285,-0.710,-0.040
-78.749,-263.246,965.810,-0.203,-0.679,-0.005
-79.118,-265.306,964.836,-0.208,-0.632,-0.082
-79.000,-266.000,964.000,-0.210,-0.700,-0.140
-78.891,-265.928,963.888,-0.276,-0.705,-0.204
-79.213,-266.228,964.810,-0.275,-0.695,-0.215
-78.645,-264.775,964.821,-0.301,-0.704,-0.204
-79.690,-263.354,964.941,-0.207,-0.698,-0.233
-79.736,-262.617,964.445,-0.145,-0.700,-0.305
-78.869,-261.974,964.075,-0.219,-0.701,-0.250
-79.053,-263.120,965.021,-0.213,-0.699,-0.138
-79.958,-263.992,964.073,-0.339,-0.697,-0.204
-79.383,-263.981,964.586,-0.372,-0.763,-0.221
-78.471,-263.957,965.261,-0.285,-0.734,-0.197
-80.049,-264.251,964.313,-0.307,-0.677,-0.227
-79.087,-265.605,965.561,-0.390,-0.733,-0.176
-78.049,-265.825,965.679,-0.411,-0.778,-0.143
-79.092,-264.891,965.034,-0.342,-0.763,-0.225
-79.000,-265.000,966.000,-0.350,-0.700,-0.280
-79.885,-265.891,966.094,-0.354,-0.697,-0.279
-79.503,-266.110,965.234,-0.312,-0.703,-0.284
-78.133,-265.807,964.633,-0.157,-0.700,-0.273
-78.000,-266.148,965.017,-0.027,-0.678,-0.292
-77.969,-265.574,964.477,-0.114,-0.608,-0.255
-78.002,-264.965,963.899,-0.129,-0.648,-0.205
-78.004,-264.966,964.038,-0.067,-0.701,-0.210
-78.010,-264.055,964.929,-0.068,-0.700,-0.211
-77.940,-263.971,965.138,-0.076,-0.702,-0.165
-78.164,-263.424,964.611,-0.022,-0.695,-0.069
-77.325,-262.643,965.109,-0.008,-0.708,-0.116
-77.243,-263.180,964.431,-0.139,-0.688,-0.121
-78.056,-262.903,965.513,-0.221,-0.721,-0.061
-76.772,-264.384,965.773,-0.204,-0.769,-0.071
-77.000,-266.000,964.000,-0.140,-0.700,-0.070
-78.885,-265.121,964.851,-0.127,-0.694,-0.132
-78.415,-264.915,964.993,-0.252,-0.709,-0.141
-77.653,-265.030,965.418,-0.263,-0.688,-0.174
-78.347,-264.617,965.589,-0.170,-0.715,-0.228
-77.448,-263.640,964.584,-0.269,-0.674,-0.198
-77.161,-264.241,965.063,-0.348,-0.625,-0.218
-78.004,-263.853,965.017,-0.277,-0.631,-0.206
-77.081,-262.027,965.942,-0.340,-0.630,-0.142
-76.832,-262.812,965.370,-0.421,-0.630,-0.142
-77.704,-262.904,964.397,-0.408,-0.629,-0.067
-78.120,-263.821,965.652,-0.459,-0.632,0.079
-78.023,-265.582,965.501,-0.513,-0.628,0.026
-79.693,-266.190,964.696,-0.581,-0.632,0.018
-81.046,-267.094,963.910,-0.538,-0.629,0.068
-81.000,-267.000,964.000,-0.350,-0.630,0.000
-81.900,-267.026,964.069,-0.283,-0.628,-0.058
-82.036,-266.256,963.791,-0.236,-0.675,-0.134
-82.033,-266.274,964.564,-0.164,-0.722,-0.126
-81.664,-267.154,964.523,-0.093,-0.673,-0.203
-80.397,-264.872,963.554,0.063,-0.740,-0.297
-78.682,-264.160,964.219,0.146,-0.756,-0.276
-79.110,-264.991,965.034,0.140,-0.701,-0.278
-79.161,-264.048,965.039,0.141,-0.768,-0.215
-77.018,-264.639,964.161,0.092,-0.719,-0.200
-78.340,-265.407,964.166,0.006,-0.685,-0.256
-79.169,-263.739,965.764,0.034,-0.711,-0.299
-78.852,-262.740,965.365,0.067,-0.693,-0.244
-77.255,-263.178,964.949,-0.033,-0.704,-0.210
-76.118,-264.197,964.973,-0.072,-0.698,-0.206
-78.000,-265.000,965.000,-0.140,-0.700,-0.210
-77.213,-264.135,965.072,-0.213,-0.700,-0.280
-76.818,-263.888,964.755,-0.191,-0.700,-0.225
-77.089,-263.989,965.645,-0.304,-0.697,-0.214
-76.977,-264.222,965.395,-0.341,-0.707,-0.173
-76.897,-265.275,964.720,-0.254,-0.679,-0.154
-77.194,-264.773,965.007,-0.300,-0.623,-0.211
-78.019,-265.130,964.992,-0.350,-0.631,-0.134
-77.978,-266.944,964.135,-0.287,-0.629,-0.137
-78.185,-266.340,962.848,-0.216,-0.683,-0.144
-77.008,-265.167,964.291,-0.208,-0.714,-0.141
-78.005,-264.500,964.609,-0.213,-0.686,-0.110
-79.205,-263.520,963.231,-0.193,-0.712,-0.055
-79.018,-262.614,962.987,-0.124,-0.689,-0.077
-78.864,-260.731,964.331,-0.251,-0.710,-0.068
-78.000,-261.000,966.000,-0.560,-0.770,-0.070
-78.976,-263.693,965.908,-0.640,-0.770,-0.014
-78.109,-264.816,966.941,-0.532,-0.775,0.059
-79.154,-265.550,965.719,-0.396,-0.734,0.078
-79.561,-266.288,964.515,-0.330,-0.662,0.043
-77.612,-267.780,964.763,-0.375,-0.618,-0.025
-79.444,-270.517,963.762,-0.421,-0.643,-0.084
-78.878,-270.949,964.059,-0.256,-0.703,-0.144
-78.893,-270.075,964.068,0.116,-0.701,-0.204
-79.289,-268.544,963.088,0.282,-0.699,-0.278
-78.538,-265.952,963.263,0.235,-0.696,-0.236
-79.615,-263.308,964.643,0.171,-0.731,-0.201
-77.844,-261.167,964.650,0.128,-0.787,-0.200
-77.187,-261.084,965.334,0.150,-0.760,-0.110
-78.031,-260.960,965.935,0.129,-0.775,-0.069
-78.000,-262.000,965.000,-0.000,-0.770,-0.070
-78.906,-263.936,965.002,-0.128,-0.763,-0.070
-79.020,-263.766,964.840,-0.188,-0.788,-0.070
-79.077,-265.647,965.574,-0.268,-0.709,-0.072
-78.536,-267.585,965.428,-0.236,-0.734,-0.065
-77.869,-266.202,964.751,-0.091,-0.761,-0.086
-78.007,-264.798,964.861,-0.080,-0.688,-0.157
-78.034,-265.078,963.980,-0.146,-0.702,-0.213
-78.951,-265.991,964.906,-0.209,-0.702,-0.214
-78.407,-265.273,965.179,-0.160,-0.696,-0.145
-76.981,-264.258,964.117,-0.122,-0.705,-0.183
-77.512,-263.338,963.587,-0.156,-0.691,-0.200
-78.141,-263.057,964.279,-0.138,-0.723,-0.092
-77.894,-264.440,965.022,-0.255,-0.784,-0.071
-78.083,-264.997,965.034,-0.266,-0.760,-0.072
-78.000,-265.000,965.000,-0.210,-0.700,-0.140
-76.148,-265.845,964.023,-0.280,-0.701,-0.153
-77.116,-266.244,964.689,-0.222,-0.692,-0.074
-79.149,-265.151,964.941,-0.248,-0.746,-0.078
-78.661,-265.300,964.786,-0.270,-0.756,-0.057
-79.296,-266.141,964.779,-0.176,-0.676,-0.086
-78.762,-265.925,965.088,-0.129,-0.720,-0.054
-79.103,-266.017,964.921,-0.066,-0.771,-0.080
-79.156,-266.010,963.989,-0.068,-0.769,-0.208
-77.070,-266.003,964.845,-0.076,-0.776,-0.150
-77.748,-265.478,964.759,-0.058,-0.724,-0.179
-77.864,-264.150,965.445,-0.112,-0.686,-0.222
-78.350,-264.100,965.506,-0.130,-0.712,-0.209
-77.288,-263.548,965.049,-0.053,-0.682,-0.197
-76.177,-261.884,966.054,-0.174,-0.624,-0.135
-79.000,-263.000,965.000,-0.350,-0.630,-0.140
-78.323,-263.202,964.938,-0.406,-0.690,-0.077
-77.571,-262.134,963.903,-0.494,-0.716,-0.110
-78.905,-261.055,961.389,-0.448,-0.646,-0.161
-78.607,-259.364,963.567,-0.679,-0.649,-0.127
-77.715,-262.681,966.681,-1.113,-0.730,-0.136
-78.287,-265.250,966.851,-1.070,-0.777,-0.051
-78.966,-267.256,967.068,-0.825,-0.766,-0.075
-78.015,-269.094,967.128,-0.705,-0.704,-0.016
-78.822,-267.608,964.505,-0.645,-0.694,0.147
-78.477,-271.493,963.479,-0.583,-0.707,0.002
-78.041,-273.256,964.159,-0.490,-0.688,-0.124
-79.773,-273.584,963.222,-0.166,-0.730,-0.165
-79.776,-274.840,963.258,0.250,-0.769,-0.218
-78.894,-271.484,965.259,0.436,-0.687,-0.212
-79.000,-270.000,965.000,0.560,-0.700,-0.280
-80.013,-267.423,964.763,0.804,-0.771,-0.287
-78.629,-267.070,965.577,0.960,-0.757,-0.270
-77.584,-269.719,962.958,1.073,-0.826,-0.291
-78.279,-269.806,963.989,1.312,-0.811,-0.270
-77.801,-270.013,964.159,1.302,-0.772,-0.287
-78.022,-268.391,961.716,1.490,-0.864,-0.280
-76.896,-265.832,963.129,1.827,-0.909,-0.359
-77.758,-263.272,963.078,1.630,-0.847,-0.421
-80.159,-259.012,962.819,1.535,-0.819,-0.410
-77.883,-255.475,963.422,1.450,-0.947,-0.445
-76.750,-254.878,965.141,1.105,-0.964,-0.338
-76.744,-254.716,968.039,0.736,-0.869,-0.257
-75.969,-253.659,968.939,0.411,-0.837,-0.172
-77.138,-252.907,967.753,0.252,-0.839,-0.059
-76.000,-253.000,967.000,-0.140,-0.770,-0.000
-75.641,-256.214,967.992,-0.696,-0.698,0.071
-78.466,-261.566,966.610,-1.070,-0.716,0.016
-79.163,-265.181,965.481,-1.082,-0.637,0.002
-78.895,-266.449,965.745,-0.877,-0.673,-0.032
-79.179,-267.300,964.363,-0.834,-0.666,-0.073
-80.247,-268.190,965.307,-0.743,-0.550,-0.085
-79.872,-269.042,964.833,-0.700,-0.638,-0.220
-78.074,-268.177,963.001,-0.580,-0.635,-0.279
-77.942,-266.119,964.527,-0.359,-0.615,-0.282
-77.996,-266.187,965.219,-0.379,-0.686,-0.270
-78.023,-264.518,964.375,-0.199,-0.703,-0.325
-77.912,-262.123,965.533,-0.047,-0.698,-0.320
-78.084,-262.137,965.577,-0.184,-0.702,-0.168
-77.935,-263.259,963.837,-0.206,-0.698,-0.143
-78.000,-265.000,964.000,-0.210,-0.700,-0.140
-78.146,-265.024,963.956,-0.270,-0.704,-0.136
-77.060,-265.645,965.298,-0.301,-0.687,-0.151
-77.212,-265.833,966.390,-0.163,-0.753,-0.096
-76.251,-263.909,964.974,-0.005,-0.747,-0.059
-76.538,-264.777,965.035,-0.010,-0.685,-0.078
-78.106,-267.422,964.708,0.011,-0.711,-0.063
-76.902,-266.844,964.026,0.077,-0.775,-0.075
-76.939,-265.053,964.950,0.200,-0.776,-0.139
-77.138,-265.042,965.025,0.277,-0.701,-0.087
-76.761,-263.880,964.854,0.284,-0.748,-0.058
-77.623,-261.591,964.697,0.232,-0.773,-0.079
-77.843,-260.818,965.189,0.059,-0.777,-0.064
-76.661,-261.036,966.118,-0.007,-0.749,-0.074
-77.233,-261.022,965.923,-0.093,-0.703,-0.068
-78.000,-262.000,965.000,-0.210,-0.770,-0.070
-77.031,-262.999,963.976,-0.147,-0.713,-0.071
-77.666,-262.845,964.800,-0.217,-0.688,-0.068
-78.576,-263.649,964.336,-0.397,-0.706,-0.073
-79.335,-263.944,963.887,-0.399,-0.717,-0.064
-78.424,-264.087,965.251,-0.321,-0.794,-0.087
-78.212,-263.744,964.745,-0.274,-0.750,-0.152
-78.968,-263.045,965.094,-0.281,-0.701,-0.135
-78.006,-264.874,965.131,-0.221,-0.764,-0.072
-78.869,-265.138,963.752,-0.079,-0.786,-0.069
-78.392,-265.364,966.022,-0.148,-0.706,-0.070
-77.915,-266.164,966.321,-0.234,-0.738,-0.069
-77.775,-263.372,964.045,-0.021,-0.758,-0.083
-78.705,-262.028,965.651,0.053,-0.684,-0.171
-81.064,-263.081,965.749,-0.085,-0.704,-0.208
-78.000,-262.000,964.000,-0.070,-0.700,-0.210
-76.755,-260.942,964.752,-0.114,-0.756,-0.275
-78.042,-261.808,965.932,-0.304,-0.790,-0.281
-77.822,-261.648,965.347,-0.406,-0.718,-0.285
-77.927,-259.931,964.460,-0.438,-0.680,-0.268
-76.271,-258.551,965.304,-0.554,-0.593,-0.307
-76.222,-257.773,965.966,-0.853,-0.562,-0.347
-77.014,-257.008,966.057,-1.215,-0.558,-0.274
-76.994,-258.793,966.984,-1.457,-0.556,-0.214
-77.003,-260.719,966.235,-1.586,-0.625,-0.152
-77.469,-263.041,965.683,-1.671,-0.591,-0.100
-78.435,-267.840,965.629,-1.654,-0.540,-0.016
-77.463,-269.269,963.894,-1.578,-0.591,-0.022
-78.745,-272.280,962.741,-1.510,-0.638,-0.077
-79.909,-273.742,963.194,-1.286,-0.626,-0.073
-79.000,-271.000,965.000,-1.050,-0.630,-0.140
-80.857,-271.943,965.175,-0.934,-0.693,-0.201
-79.210,-270.015,964.070,-0.711,-0.705,-0.265
-76.570,-268.302,963.916,-0.487,-0.696,-0.286
-77.784,-269.287,963.358,-0.348,-0.702,-0.280
-77.976,-266.377,962.783,-0.268,-0.699,-0.274
-79.498,-262.153,964.576,-0.394,-0.699,-0.294
-79.880,-261.098,967.131,-0.571,-0.702,-0.348
-78.040,-263.799,967.100,-0.693,-0.765,-0.222
-78.792,-265.573,966.049,-0.719,-0.783,-0.142
-78.591,-268.476,965.471,-0.602,-0.714,-0.104
-77.234,-271.211,963.434,-0.519,-0.699,-0.047
-76.905,-270.497,963.063,-0.459,-0.694,-0.086
-77.207,-271.640,964.010,-0.409,-0.716,-0.065
-78.046,-272.987,962.803,-0.326,-0.772,-0.161
-77.000,-271.000,963.000,-0.070,-0.700,-0.210
-76.782,-269.105,964.729,0.130,-0.687,-0.199
-78.040,-268.442,966.007,0.136,-0.766,-0.277
-77.305,-266.628,964.750,0.208,-0.762,-0.266
-76.967,-265.494,963.578,0.329,-0.787,-0.307
-76.910,-264.495,965.770,0.204,-0.737,-0.226
-77.111,-264.020,965.495,0.055,-0.708,-0.135
-76.916,-263.935,964.033,0.070,-0.771,-0.137
-75.970,-262.991,965.893,-0.053,-0.707,-0.072
-77.607,-264.482,965.414,-0.257,-0.684,-0.075
-77.791,-265.923,964.372,-0.259,-0.759,-0.018
-75.933,-265.832,965.666,-0.141,-0.745,-0.004
-76.537,-266.426,965.490,-0.188,-0.675,0.031
-76.822,-268.819,964.707,-0.302,-0.728,0.061
-75.970,-269.944,963.900,-0.269,-0.765,-0.005
-77.000,-269.000,964.000,-0.210,-0.700,-0.000
-77.116,-269.091,964.112,-0.151,-0.698,-0.065
-77.333,-267.519,963.140,-0.087,-0.701,-0.021
-79.249,-266.742,963.125,-0.028,-0.703,-0.026
-77.798,-266.727,964.886,0.015,-0.691,-0.071
-77.219,-265.671,965.864,-0.012,-0.723,0.034
-77.951,-266.109,964.699,0.014,-0.775,-0.021
-76.968,-265.995,965.086,0.072,-0.770,0.009
-77.890,-266.898,965.090,0.072,-0.773,0.073
-78.845,-267.220,964.667,0.021,-0.708,0.003
-79.718,-266.596,965.919,-0.064,-0.736,0.045
-79.742,-267.757,965.096,-0.020,-0.789,0.079
-78.375,-267.625,964.767,0.149,-0.757,0.068
-77.974,-266.755,963.273,0.206,-0.778,0.063
-78.005,-265.824,963.361,0.130,-0.767,-0.014
-78.000,-265.000,966.000,0.140,-0.770,-0.070
-77.983,-265.018,965.948,0.149,-0.715,-0.071
-78.044,-264.860,966.393,0.116,-0.676,-0.066
-77.908,-265.683,963.708,0.240,-0.764,-0.105
-78.074,-265.385,963.384,0.249,-0.736,-0.161
-78.007,-263.327,965.134,0.072,-0.695,-0.120
-79.465,-264.540,965.140,-0.007,-0.699,-0.161
-79.891,-266.013,967.105,0.003,-0.701,-0.208
-78.056,-265.937,966.172,0.064,-0.703,-0.143
-78.134,-267.633,964.354,0.129,-0.640,-0.135
-76.524,-267.795,962.298,0.158,-0.626,-0.175
-76.602,-265.460,962.470,0.048,-0.627,-0.269
-78.625,-265.274,964.347,-0.145,-0.652,-0.252
-77.501,-265.868,963.920,-0.101,-0.712,-0.208
-77.028,-263.629,966.512,0.007,-0.695,-0.204
-77.000,-263.000,967.000,0.000,-0.700,-0.140
-76.941,-263.043,964.979,0.005,-0.704,-0.142
-77.611,-264.960,965.983,-0.095,-0.688,-0.091
-79.219,-272.182,964.255,-0.161,-0.750,-0.058
-80.325,-273.351,962.296,0.122,-0.752,-0.092
-79.791,-269.871,963.490,0.444,-0.679,-0.189
-80.073,-268.705,963.898,0.480,-0.713,-0.291
-78.820,-265.730,963.012,0.415,-0.694,-0.280
-77.030,-263.122,964.791,0.354,-0.629,-0.344
-77.127,-261.428,965.343,0.345,-0.685,-0.360
-75.691,-259.631,964.817,0.330,-0.713,-0.341
-74.636,-257.748,967.397,0.147,-0.663,-0.339
-75.260,-257.216,966.114,-0.140,-0.616,-0.212
-74.766,-259.708,967.680,-0.429,-0.640,-0.124
-75.246,-260.033,965.357,-0.575,-0.624,-0.054
-77.000,-263.000,965.000,-0.700,-0.630,0.070
-76.990,-265.948,964.768,-0.832,-0.642,0.081
-78.236,-266.901,962.360,-0.843,-0.558,0.009
-80.038,-270.064,966.229,-0.816,-0.613,0.002
-79.791,-269.289,960.840,-0.699,-0.599,-0.024
-80.170,-270.954,965.500,-0.585,-0.568,-0.098
-79.904,-270.435,962.358,-0.352,-0.642,-0.152
-80.007,-269.008,964.707,-0.132,-0.627,-0.216
-79.085,-268.153,964.749,-0.077,-0.627,-0.277
-79.555,-267.643,962.251,0.051,-0.683,-0.285
-79.986,-266.983,968.661,0.074,-0.723,-0.274
-78.051,-263.227,958.480,0.081,-0.642,-0.288
-79.939,-266.420,971.356,0.031,-0.661,-0.269
-78.069,-262.355,959.485,0.018,-0.689,-0.293
-78.367,-264.966,968.430,0.059,-0.629,-0.264
-78.000,-264.000,965.000,-0.140,-0.700,-0.140
-75.728,-262.812,959.829,-0.157,-0.706,-0.138
-78.020,-266.932,973.199,-0.112,-0.693,-0.097
-77.414,-262.408,952.305,-0.206,-0.707,-0.048
-78.846,-269.922,978.006,-0.177,-0.693,-0.107
-77.101,-262.122,949.989,-0.132,-0.717,-0.161
-78.633,-268.985,976.280,-0.143,-0.784,-0.220
-76.643,-264.796,960.408,-0.139,-0.764,-0.207
-77.486,-264.599,959.536,-0.140,-0.701,-0.208
-79.657,-269.989,984.229,-0.137,-0.703,-0.217
-74.525,-256.609,931.345,-0.212,-0.693,-0.199
-80.958,-279.172,1013.409,-0.360,-0.689,-0.224
-71.610,-246.502,899.504,-0.315,-0.581,-0.193
-83.876,-286.272,1047.314,-0.402,-0.686,-0.230
-69.800,-234.948,862.519,-0.381,-0.563,-0.187
