acc_x[mg],acc_y[mg],acc_z[mg],gyro_x[dps],gyro_y[dps],gyro_z[dps]
-65.000,-166.000,-1001.000,-1.120,-0.350,5.880
-64.905,-192.044,-1029.858,-1.706,-0.013,6.991
-62.659,-202.612,-930.054,-1.851,0.372,6.752
-78.851,-238.597,-1025.531,-0.984,0.557,6.799
-74.617,-226.238,-940.061,1.174,0.824,5.672
-71.925,-216.366,-1005.282,3.015,0.631,5.654
-65.942,-193.081,-960.654,3.243,0.183,5.252
-70.695,-192.747,-986.119,1.899,-0.164,4.960
-75.092,-195.339,-988.926,0.309,-0.409,4.533
-73.325,-194.415,-977.400,-0.532,-0.440,4.064
-70.631,-191.861,-1001.076,-0.228,-0.330,4.182
-68.233,-185.665,-971.534,0.498,-0.184,4.474
-71.779,-191.382,-995.039,1.009,0.045,4.805
-73.347,-187.049,-974.139,1.839,0.271,4.840
-75.165,-184.713,-982.388,2.789,0.446,4.989
-73.000,-177.000,-977.000,3.360,0.560,4.970
-72.397,-171.740,-972.961,3.397,0.502,5.250
-78.055,-174.761,-981.819,3.095,0.481,5.499
-83.634,-180.910,-971.160,2.854,0.468,5.348
-84.981,-187.192,-982.890,2.531,0.382,5.243
-80.998,-182.787,-975.595,2.237,0.476,4.732
-74.464,-180.897,-983.759,2.232,0.566,4.263
-70.984,-177.551,-982.383,1.844,0.562,3.962
-72.039,-173.087,-984.338,1.468,0.685,3.591
-69.541,-174.968,-983.821,1.660,0.919,3.482
-69.682,-179.525,-977.994,1.580,1.177,3.569
-73.011,-183.453,-986.958,1.643,1.353,3.511
-77.709,-190.933,-982.413,1.906,1.427,3.354
-84.838,-194.883,-991.140,1.893,1.496,3.152
-84.230,-187.466,-996.778,2.259,1.637,3.000
-77.000,-177.000,-996.000,2.800,1.820,3.080
-75.277,-167.031,-995.891,2.689,1.890,3.374
-82.618,-164.720,-990.175,1.819,1.885,3.706
-88.658,-171.947,-992.848,1.150,1.900,3.957
-90.373,-185.320,-995.783,1.296,1.859,4.362
-84.866,-189.596,-996.344,2.161,1.801,4.601
-78.501,-182.150,-998.333,3.303,1.722,4.744
-84.766,-176.660,-999.025,3.460,1.522,5.063
-92.676,-172.308,-1000.790,2.411,1.339,5.299
-94.252,-169.293,-1003.687,1.201,1.273,5.729
-91.875,-170.887,-1003.217,0.412,1.149,6.477
-85.452,-179.619,-999.969,0.062,0.904,7.216
-75.436,-178.295,-1000.375,0.826,1.054,7.723
-74.228,-174.659,-994.451,2.323,1.369,8.555
-78.986,-187.164,-983.462,1.687,0.957,9.009
-70.000,-194.000,-994.000,-0.000,0.700,8.260
-69.135,-192.043,-996.086,0.481,0.968,7.787
-82.790,-177.972,-982.815,0.650,0.870,7.603
-84.047,-159.155,-984.246,-0.728,0.939,7.334
-77.155,-166.395,-979.041,-1.480,1.077,7.652
-70.692,-183.382,-973.939,-1.698,0.946,7.824
-69.589,-188.307,-983.180,-0.513,1.219,7.466
-75.462,-186.636,-985.894,1.991,1.553,7.195
-78.899,-175.373,-985.780,3.140,1.608,6.894
-80.337,-155.829,-988.966,2.789,1.665,6.523
-84.621,-146.050,-985.027,1.511,1.696,6.714
-90.210,-157.174,-978.316,-0.817,1.636,6.948
-89.585,-179.487,-980.971,-2.703,1.626,6.740
-82.706,-197.768,-982.499,-2.506,1.837,6.488
-77.527,-207.979,-979.834,-0.733,2.143,5.905
-77.000,-207.000,-981.000,1.400,2.380,5.180
-77.852,-194.425,-980.949,3.242,2.571,4.630
-80.301,-178.959,-982.996,3.711,2.611,4.165
-86.242,-169.435,-984.542,2.586,2.519,3.855
-88.214,-171.045,-983.015,0.630,2.329,3.555
-85.836,-177.762,-985.335,-1.434,2.111,3.541
-80.325,-187.676,-989.654,-2.380,2.216,3.634
-73.720,-198.656,-988.770,-1.807,2.308,3.408
-75.545,-203.756,-986.954,-0.405,2.303,3.168
-81.779,-206.132,-988.083,1.211,2.395,2.841
-86.070,-201.037,-986.309,2.331,2.204,2.305
-87.443,-186.551,-986.517,2.546,1.983,1.846
-86.257,-177.170,-988.347,1.912,1.771,1.766
-84.450,-179.601,-987.553,0.469,1.445,1.948
-82.663,-186.004,-987.057,-1.109,1.238,2.033
-78.000,-193.000,-989.000,-1.610,1.190,2.030
-70.692,-197.091,-991.723,-0.818,1.362,2.190
-69.974,-194.605,-993.357,0.498,1.606,2.564
-72.821,-193.856,-994.588,1.715,1.830,2.750
-72.518,-188.762,-992.010,2.020,1.892,2.680
-71.747,-174.061,-990.826,0.909,1.753,2.685
-70.663,-166.860,-988.963,-0.835,1.570,2.967
-70.092,-177.329,-983.741,-2.656,1.466,3.548
-74.485,-196.650,-983.006,-3.949,1.408,3.978
-79.749,-208.982,-982.635,-3.689,1.324,3.904
-78.294,-207.666,-986.891,-2.338,1.452,3.744
-75.392,-191.577,-993.704,-0.862,1.649,3.958
-72.168,-174.269,-996.875,-0.063,1.643,4.444
-68.025,-169.573,-996.125,-0.669,1.368,4.977
-68.306,-170.343,-992.652,-1.829,1.189,5.186
-70.000,-176.000,-992.000,-2.240,1.330,5.250
-68.496,-181.009,-988.604,-2.007,1.400,5.612
-65.443,-178.267,-986.313,-1.681,1.400,5.853
-64.990,-174.838,-983.984,-1.099,1.397,5.971
-64.110,-173.376,-983.895,-0.466,1.408,6.247
-60.458,-172.438,-992.146,-0.208,1.387,6.393
-57.590,-169.054,-994.847,0.085,1.419,6.362
-59.396,-165.775,-995.200,0.357,1.468,6.371
-67.333,-160.611,-998.766,0.113,1.401,6.309
-73.529,-152.995,-1000.842,-0.636,1.460,6.269
-73.633,-151.364,-999.501,-1.520,1.379,6.484
-72.196,-153.632,-995.382,-2.634,1.011,6.685
-71.907,-158.188,-994.913,-4.071,0.573,6.697
-70.043,-160.065,-993.090,-4.674,0.289,6.524
-65.177,-161.584,-993.439,-4.413,0.208,6.533
-61.000,-166.000,-993.000,-3.570,0.350,6.650
-61.503,-168.202,-984.446,-2.174,0.566,6.482
-64.215,-176.604,-990.135,-1.950,0.314,6.057
-61.439,-177.985,-997.781,-2.203,0.121,5.077
-60.816,-162.508,-992.464,-1.628,0.111,4.300
-67.732,-148.872,-992.911,-2.219,-0.226,4.187
-68.049,-146.699,-993.556,-4.046,-0.546,4.116
-61.559,-157.039,-992.047,-5.077,-0.709,4.129
-58.173,-167.589,-994.732,-5.138,-0.768,3.886
-54.960,-169.245,-998.233,-4.233,-0.776,3.471
-52.241,-167.469,-999.748,-2.386,-0.723,3.428
-56.115,-161.915,-996.750,-1.093,-0.695,3.330
-60.136,-152.352,-998.936,-0.742,-0.670,2.985
-57.744,-143.561,-1003.664,-0.743,-0.519,2.742
-53.464,-137.124,-1000.091,-1.327,-0.590,2.558
-53.000,-132.000,-995.000,-2.590,-0.770,2.310
-58.896,-128.224,-992.371,-4.292,-0.774,2.006
-63.434,-130.795,-988.774,-5.687,-0.768,1.812
-59.243,-144.787,-982.550,-6.314,-0.766,1.895
-53.045,-161.123,-980.835,-6.451,-0.798,1.743
-52.671,-168.707,-984.193,-5.766,-0.846,1.134
-57.105,-168.539,-986.269,-4.249,-0.733,0.512
-60.111,-165.809,-988.240,-3.016,-0.628,0.275
-60.929,-164.095,-992.630,-2.600,-0.692,0.163
-61.912,-162.521,-995.908,-2.530,-0.771,-0.259
-61.495,-159.929,-994.659,-2.502,-0.692,-0.489
-60.502,-158.203,-992.705,-2.634,-0.578,-0.504
-62.250,-160.998,-991.057,-3.178,-0.738,-0.617
-66.084,-168.509,-991.470,-3.903,-0.959,-0.752
-66.791,-174.552,-994.458,-4.025,-0.970,-1.027
-64.000,-174.000,-997.000,-3.640,-0.910,-1.260
-62.016,-168.922,-1000.424,-3.610,-1.021,-1.436
-63.748,-162.356,-1003.423,-3.711,-1.140,-1.645
-67.817,-154.101,-1004.924,-3.274,-1.020,-1.673
-69.398,-145.315,-1006.929,-2.570,-0.994,-1.495
-68.396,-139.164,-1007.850,-2.273,-1.089,-1.225
-66.841,-136.175,-1006.669,-2.404,-1.227,-1.010
-70.543,-128.158,-1007.130,-2.214,-1.333,-0.818
-76.849,-119.275,-1008.053,-2.200,-1.388,-0.332
-73.620,-121.214,-1007.014,-3.098,-1.621,0.359
-68.964,-131.394,-1007.126,-4.176,-1.855,0.746
-74.992,-146.765,-1005.526,-5.099,-2.184,0.693
-85.458,-157.680,-1005.232,-5.620,-2.495,0.443
-87.059,-158.347,-1007.435,-5.514,-2.634,0.356
-78.529,-151.412,-1006.748,-5.017,-2.828,0.523
-73.000,-139.000,-1005.000,-4.410,-2.940,0.700
-75.402,-131.595,-1001.783,-4.076,-3.161,0.815
-77.990,-127.077,-995.725,-4.191,-3.587,1.037
-77.064,-120.396,-991.828,-4.785,-3.917,1.263
-74.257,-120.240,-991.418,-5.190,-4.012,1.431
-70.988,-131.522,-986.514,-5.315,-3.972,1.711
-71.272,-147.154,-983.927,-5.554,-3.884,1.591
-69.645,-153.012,-983.913,-4.865,-3.532,1.006
-64.294,-150.293,-983.791,-3.083,-2.983,0.583
-62.255,-145.012,-987.518,-1.479,-2.433,0.288
-61.444,-134.357,-987.721,-0.425,-1.947,-0.100
-64.042,-123.996,-989.073,-0.247,-1.713,-0.566
-63.623,-113.971,-989.196,-1.300,-1.639,-0.903
-57.336,-105.598,-988.065,-2.765,-1.351,-1.096
-58.907,-113.176,-990.248,-4.293,-0.917,-1.111
-67.000,-128.000,-990.000,-5.320,-0.560,-1.120
-72.813,-137.777,-990.001,-4.930,-0.196,-1.365
-69.981,-143.667,-989.697,-3.467,0.130,-1.480
-65.309,-142.428,-991.753,-1.424,0.357,-1.424
-68.571,-139.540,-992.384,0.160,0.446,-1.417
-73.816,-134.330,-990.602,0.627,0.385,-1.657
-76.019,-128.239,-993.865,0.268,0.237,-1.824
-72.676,-131.515,-996.137,-0.796,-0.023,-1.750
-72.606,-137.676,-999.620,-1.899,-0.329,-1.938
-78.962,-139.966,-1003.620,-2.273,-0.537,-2.105
-81.488,-139.359,-1003.546,-2.012,-0.597,-2.038
-83.039,-138.321,-1001.687,-2.084,-0.756,-2.102
-81.512,-134.777,-1003.150,-2.441,-1.004,-2.346
-79.088,-129.879,-1006.548,-2.275,-0.916,-2.192
-86.542,-128.852,-1004.446,-1.918,-0.770,-1.692
-92.000,-125.000,-1002.000,-1.820,-0.980,-1.680
-86.926,-122.599,-1001.854,-1.996,-1.132,-1.726
-82.883,-127.340,-1003.516,-2.090,-0.956,-1.192
-77.737,-131.851,-1003.259,-1.739,-0.921,-0.630
-67.660,-132.819,-1000.472,-1.135,-1.001,-0.615
-65.404,-127.326,-1001.642,-0.560,-0.829,-0.689
-68.677,-124.100,-1001.356,-0.137,-0.788,-0.409
-71.222,-128.362,-996.612,-0.166,-0.919,-0.124
-73.873,-130.909,-992.280,-0.782,-1.039,0.057
-74.874,-133.628,-989.380,-1.474,-1.167,0.155
-73.663,-140.636,-988.038,-2.037,-1.300,-0.051
-64.283,-144.497,-988.163,-2.468,-1.567,-0.487
-57.002,-143.450,-991.908,-2.203,-1.533,-0.853
-58.983,-144.255,-993.690,-1.069,-1.251,-1.125
-62.779,-139.608,-990.717,0.068,-1.000,-1.271
-69.000,-129.000,-993.000,0.630,-0.560,-1.260
-67.888,-124.215,-995.067,0.740,-0.290,-1.087
-64.683,-123.314,-995.728,0.118,-0.311,-0.945
-71.675,-121.864,-999.730,-0.947,-0.498,-1.162
-76.411,-120.537,-997.659,-1.667,-0.764,-1.260
-73.121,-123.932,-994.073,-2.274,-0.840,-0.992
-67.979,-130.766,-995.383,-2.699,-0.740,-0.613
-65.967,-142.081,-995.965,-2.239,-0.623,-0.423
-65.995,-152.808,-994.223,-0.957,-0.565,-0.675
-66.598,-147.920,-991.931,0.551,-0.454,-0.847
-68.841,-143.881,-993.756,1.396,-0.344,-0.806
-72.590,-145.646,-995.518,1.121,-0.418,-0.995
-79.179,-139.296,-996.715,0.500,-0.520,-1.333
-81.810,-133.854,-999.512,-0.048,-0.467,-1.374
-75.742,-130.371,-998.910,-0.922,-0.513,-1.350
-69.000,-127.000,-1002.000,-1.680,-0.700,-1.610
-69.393,-126.153,-1005.242,-1.605,-0.713,-1.517
-72.877,-124.062,-1001.769,-1.198,-0.639,-1.284
-71.368,-120.959,-1000.833,-1.022,-0.628,-1.155
-69.487,-123.379,-998.945,-0.955,-0.631,-0.720
-72.724,-133.144,-992.453,-1.005,-0.631,-0.411
-76.472,-143.106,-991.207,-0.813,-0.623,-0.345
-74.705,-150.371,-991.970,-0.074,-0.555,-0.350
-71.188,-150.339,-991.865,0.660,-0.615,-0.344
-69.268,-144.574,-995.188,1.009,-0.817,-0.608
-69.683,-136.483,-996.906,1.103,-0.842,-0.861
-72.427,-130.165,-997.269,0.776,-0.874,-0.805
-68.063,-138.569,-1000.277,-0.049,-0.915,-0.820
-65.078,-149.268,-1000.390,-0.440,-0.923,-0.441
-67.045,-149.338,-997.716,-0.059,-0.980,-0.845
-65.000,-139.000,-998.000,0.490,-0.840,-1.540
-66.590,-126.076,-998.273,0.959,-0.706,-0.996
-66.857,-123.192,-995.588,0.602,-0.693,-0.875
-64.498,-122.195,-995.348,-0.459,-0.744,-1.128
-62.859,-126.519,-998.117,-0.569,-0.721,-0.706
-60.663,-134.429,-997.053,0.432,-0.270,0.676
-65.634,-135.917,-997.417,1.250,0.212,1.596
-70.093,-133.709,-997.795,1.471,0.111,0.896
-69.137,-130.893,-993.232,1.173,-0.386,-0.260
-67.332,-137.556,-994.694,0.185,-0.590,-1.165
-67.110,-146.348,-998.473,-0.585,-0.364,-0.627
-69.700,-148.712,-995.195,-0.233,-0.221,0.107
-72.426,-143.078,-994.332,0.175,-0.189,-0.333
-77.533,-132.191,-997.942,-0.010,-0.137,-0.446
-75.990,-133.063,-999.065,-0.150,-0.328,-0.169
-69.000,-141.000,-1000.000,-0.210,-0.630,0.070
-71.956,-140.860,-1000.849,-0.057,-0.654,0.201
-77.382,-133.440,-1002.474,0.305,-0.465,0.291
-77.305,-126.945,-1002.364,0.275,-0.392,0.567
-70.624,-127.019,-998.950,-0.034,-0.475,1.003
-64.952,-134.224,-997.199,-0.286,-0.628,1.063
-69.549,-139.433,-994.252,-0.228,-0.797,0.688
-74.202,-137.862,-994.139,0.176,-0.760,0.562
-75.945,-138.763,-994.194,0.603,-0.637,0.683
-74.127,-141.606,-992.547,0.864,-0.567,0.941
-70.381,-142.430,-995.612,1.162,-0.595,0.960
-74.177,-139.669,-998.915,1.926,-0.631,0.917
-78.309,-132.136,-1003.789,2.596,-0.518,1.205
-79.031,-125.526,-999.367,2.063,-0.727,1.467
-76.170,-126.923,-995.270,0.629,-0.816,1.628
-71.000,-138.000,-998.000,-0.140,-0.560,1.680
-74.185,-148.404,-991.699,-0.160,-0.556,1.693
-75.602,-146.904,-991.615,0.219,-0.509,1.485
-69.996,-142.434,-989.127,1.183,-0.519,1.340
-69.273,-144.335,-987.502,1.506,-0.572,1.432
-67.786,-142.502,-993.625,1.223,-0.572,1.059
-64.647,-139.934,-992.699,0.982,-0.638,0.637
-66.202,-142.221,-996.352,0.603,-0.634,0.476
-67.941,-145.636,-994.535,0.363,-0.821,0.229
-68.716,-150.457,-991.661,0.303,-0.931,0.073
-70.247,-149.730,-998.245,0.679,-0.802,0.143
-72.160,-145.146,-996.813,0.904,-0.761,0.291
-73.469,-141.164,-997.169,0.621,-0.773,0.226
-74.197,-138.509,-1002.037,0.466,-0.769,0.266
-73.701,-137.778,-1001.693,0.413,-0.768,0.614
-69.000,-134.000,-999.000,0.420,-0.700,0.840
-63.399,-131.654,-996.971,0.483,-0.624,1.012
-63.856,-136.892,-998.471,0.524,-0.736,1.272
-67.282,-141.251,-998.668,0.804,-0.760,1.365
-68.311,-136.435,-996.916,1.541,-0.625,1.294
-69.694,-129.748,-997.266,1.786,-0.519,1.387
-71.249,-126.712,-999.505,1.152,-0.393,1.475
-72.052,-129.381,-1001.073,0.439,-0.351,1.472
-71.245,-132.142,-1001.937,-0.170,-0.352,1.475
-66.809,-127.796,-1001.064,-0.563,-0.338,1.394
-66.908,-127.863,-994.661,-0.891,-0.444,1.535
-77.696,-134.168,-993.224,-1.271,-0.492,1.625
-89.518,-140.900,-997.080,-1.216,-0.364,1.470
-89.722,-142.483,-993.106,-0.533,-0.510,1.501
-83.081,-135.634,-991.369,-0.241,-0.897,1.528
-80.000,-127.000,-996.000,-0.980,-1.190,1.330
-79.200,-124.419,-997.984,-1.837,-1.374,1.243
-77.022,-130.961,-997.288,-2.755,-1.590,1.394
-73.791,-135.337,-997.298,-3.656,-1.826,1.240
-73.176,-136.830,-1000.655,-3.651,-1.734,0.863
-76.764,-135.692,-999.748,-3.231,-1.714,0.754
-80.359,-129.855,-998.004,-3.254,-1.823,0.669
-77.675,-129.048,-1000.181,-3.281,-1.665,0.558
-76.751,-126.467,-1001.894,-3.097,-1.545,0.680
-80.003,-121.225,-1002.358,-2.737,-1.478,0.987
-78.260,-123.247,-1000.046,-2.031,-1.477,1.174
-79.736,-126.502,-1000.922,-1.651,-1.385,1.191
-82.892,-124.556,-1001.239,-1.353,-1.170,1.179
-81.087,-120.762,-998.093,-0.879,-1.123,1.080
-77.426,-114.861,-996.771,-1.244,-1.215,0.968
-76.000,-108.000,-994.000,-2.310,-1.470,0.910
-80.261,-107.556,-993.734,-3.355,-1.612,0.790
-83.567,-111.313,-994.383,-4.208,-1.560,0.735
-84.436,-118.711,-993.887,-4.649,-1.478,0.904
-82.379,-130.365,-999.219,-4.118,-1.273,1.009
-78.883,-137.755,-1001.847,-2.690,-1.043,0.949
-77.917,-133.959,-999.452,-1.240,-0.989,0.780
-78.051,-119.825,-997.782,-0.390,-1.135,0.390
-78.961,-110.119,-991.619,-0.753,-1.317,0.207
-78.979,-115.323,-986.106,-2.315,-1.499,0.243
-79.565,-128.019,-987.195,-3.855,-1.622,-0.024
-80.574,-139.908,-988.244,-4.048,-1.519,-0.219
-81.067,-145.206,-989.884,-2.803,-1.291,-0.223
-79.078,-140.884,-994.939,-1.073,-1.034,-0.428
-76.873,-132.730,-1003.192,0.589,-0.724,-0.563
-77.000,-124.000,-1005.000,1.750,-0.560,-0.490
-75.444,-114.383,-1000.265,1.884,-0.621,-0.424
-71.574,-106.588,-1000.400,1.214,-0.630,-0.421
-67.206,-104.244,-995.998,0.059,-0.713,-0.388
-68.274,-113.640,-990.745,-1.477,-1.002,-0.336
-70.726,-130.476,-991.379,-2.656,-1.142,-0.528
-74.125,-143.336,-993.624,-2.699,-1.108,-0.829
-78.101,-149.197,-996.049,-1.642,-1.044,-0.989
-77.068,-147.463,-994.179,-0.113,-0.983,-1.110
-77.778,-138.610,-994.310,1.165,-0.977,-1.240
-77.080,-127.463,-996.623,2.036,-0.985,-1.249
-74.164,-120.224,-996.971,2.328,-0.953,-1.044
-69.054,-119.357,-998.887,1.952,-0.869,-0.822
-62.468,-123.649,-999.834,1.598,-0.847,-0.782
-63.781,-128.579,-997.576,1.256,-0.924,-0.943
-71.000,-130.000,-996.000,0.630,-0.980,-1.190
-75.899,-129.098,-996.859,0.071,-0.876,-1.552
-73.564,-129.005,-996.622,-0.300,-0.619,-1.811
-68.658,-128.118,-993.908,-0.293,-0.501,-1.797
-65.847,-125.774,-992.263,0.092,-0.462,-1.894
-66.795,-124.381,-993.519,0.483,-0.410,-1.970
-69.630,-121.238,-995.377,0.635,-0.413,-1.953
-72.173,-122.430,-998.294,0.470,-0.266,-1.799
-73.022,-130.405,-1000.968,0.226,-0.202,-1.547
-74.611,-136.233,-1000.696,0.040,-0.377,-1.632
-81.970,-137.042,-1003.494,-0.111,-0.524,-1.827
-84.142,-129.368,-1005.384,-0.146,-0.601,-1.949
-79.281,-123.705,-1004.543,-0.163,-0.667,-1.737
-71.400,-127.560,-1004.882,-0.347,-0.830,-1.401
-66.963,-130.091,-1002.559,-0.401,-1.002,-1.409
-70.000,-130.000,-1001.000,-0.070,-1.120,-1.330
-71.019,-131.511,-999.408,0.198,-1.134,-1.141
-70.615,-135.600,-997.188,0.207,-1.044,-1.052
-68.021,-139.390,-996.819,0.275,-1.134,-1.108
-70.414,-138.991,-996.954,0.446,-1.205,-1.303
-74.680,-131.084,-998.527,0.640,-1.198,-1.411
-70.978,-121.216,-998.659,0.772,-1.274,-1.176
-70.085,-119.105,-996.943,0.364,-1.257,-0.820
-70.107,-121.777,-997.869,-0.440,-1.258,-0.704
-69.565,-124.436,-998.940,-0.776,-1.220,-0.601
-72.598,-126.577,-998.881,-0.674,-1.083,-0.413
-75.522,-126.520,-998.166,-0.601,-1.018,-0.290
-75.962,-123.355,-995.211,-0.706,-0.929,-0.277
-76.068,-122.066,-992.124,-1.028,-0.807,-0.152
-74.464,-124.559,-991.035,-1.466,-0.771,0.015
-70.000,-130.000,-993.000,-1.680,-0.770,0.070
-68.826,-137.091,-994.925,-1.129,-0.596,0.142
-71.348,-141.438,-994.908,-0.090,-0.428,0.009
-78.020,-141.012,-995.370,0.799,-0.430,-0.245
-82.285,-132.426,-996.407,1.374,-0.397,-0.453
-79.679,-123.067,-999.211,1.253,-0.477,-0.448
-77.719,-119.478,-1002.292,0.501,-0.670,-0.235
-77.007,-119.139,-999.616,-0.426,-0.776,-0.135
-78.801,-123.542,-995.172,-1.465,-0.836,-0.074
-79.538,-130.082,-995.406,-2.141,-0.895,-0.028
-77.025,-139.999,-997.556,-1.905,-0.931,0.184
-78.524,-147.398,-997.400,-0.999,-0.839,0.311
-80.059,-142.081,-996.566,0.274,-0.717,0.129
-76.886,-132.364,-997.228,1.502,-0.589,0.325
-76.234,-127.517,-998.139,1.695,-0.577,0.655
-78.000,-124.000,-999.000,0.980,-0.770,0.560
-77.201,-120.188,-999.089,0.363,-0.784,0.474
-75.811,-121.646,-997.782,-0.295,-0.744,0.649
-72.008,-126.661,-994.428,-1.138,-0.838,0.733
-68.986,-135.250,-991.456,-1.513,-0.785,0.642
-71.135,-145.115,-990.716,-1.223,-0.664,0.489
-73.448,-144.900,-991.161,-0.386,-0.617,0.211
-76.269,-137.411,-993.232,0.864,-0.476,-0.010
-78.920,-130.513,-996.735,1.661,-0.351,-0.070
-79.043,-123.577,-999.008,1.518,-0.402,-0.020
-78.660,-117.534,-997.471,0.855,-0.466,0.027
-75.965,-114.625,-997.019,-0.189,-0.536,-0.048
-72.816,-116.778,-997.514,-1.169,-0.550,0.143
-71.697,-124.790,-993.842,-1.624,-0.455,0.502
-71.078,-131.660,-995.821,-1.565,-0.330,0.464
-75.000,-133.000,-1000.000,-0.910,-0.210,0.420
-81.317,-133.747,-1000.662,0.230,-0.094,0.666
-83.907,-135.080,-1003.050,1.324,0.056,0.775
-83.217,-133.519,-1000.862,1.722,-0.013,0.764
-80.277,-130.341,-1000.025,1.263,-0.308,0.745
-78.875,-128.109,-1000.592,0.157,-0.602,0.532
-80.509,-125.565,-998.611,-1.011,-0.910,0.428
-82.012,-128.543,-999.104,-1.795,-1.131,0.569
-79.395,-136.548,-999.979,-1.985,-1.190,0.566
-73.972,-139.111,-999.992,-1.193,-1.189,0.505
-71.152,-137.652,-1000.318,0.080,-1.195,0.373
-71.911,-131.216,-1000.839,1.277,-1.162,0.163
-76.122,-122.078,-995.729,1.902,-1.082,0.154
-77.999,-116.406,-991.340,1.181,-1.054,0.113
-76.935,-111.483,-992.140,-0.302,-1.135,0.076
-78.000,-115.000,-992.000,-1.610,-1.190,0.210
-78.980,-128.737,-992.010,-2.288,-1.190,0.398
-78.012,-141.474,-991.809,-2.013,-1.155,0.417
-73.794,-145.612,-992.669,-0.933,-1.026,0.108
-71.225,-137.048,-992.020,0.470,-0.935,-0.257
-72.874,-127.024,-990.409,1.350,-0.745,-0.479
-75.685,-124.915,-989.678,1.463,-0.527,-0.483
-76.886,-125.070,-989.088,1.475,-0.488,-0.574
-72.389,-127.741,-991.800,1.537,-0.425,-0.699
-71.031,-128.734,-993.511,1.592,-0.414,-0.767
-76.064,-124.008,-996.516,1.612,-0.394,-1.198
-75.515,-119.567,-998.896,1.311,-0.269,-1.351
-68.690,-120.371,-1001.584,0.846,-0.160,-1.213
-66.229,-128.985,-1005.538,0.736,-0.029,-1.305
-72.230,-132.679,-1002.291,1.313,0.090,-1.510
-79.000,-125.000,-1001.000,2.030,0.280,-1.750
-80.982,-115.336,-1002.886,2.037,0.369,-1.596
-81.373,-109.109,-1003.016,1.251,0.111,-1.263
-84.412,-111.683,-1002.693,0.096,-0.226,-1.034
-86.528,-115.523,-1003.769,-0.946,-0.469,-0.752
-83.405,-119.106,-1006.750,-1.580,-0.589,-0.425
-80.656,-129.666,-1005.154,-1.657,-0.651,-0.068
-79.934,-137.297,-1003.011,-1.363,-0.778,0.073
-79.016,-138.112,-1004.013,-0.512,-0.776,0.131
-80.293,-135.069,-1001.828,0.615,-0.749,0.259
-83.383,-130.450,-998.559,0.896,-0.872,0.325
-83.511,-127.061,-996.800,0.784,-0.944,0.432
-80.427,-125.719,-994.904,0.703,-1.030,0.695
-76.723,-125.789,-993.666,0.243,-1.158,0.848
-72.539,-122.379,-992.826,-0.375,-1.280,0.667
-73.000,-123.000,-991.000,-1.050,-1.400,0.630
-71.984,-132.521,-989.162,-1.796,-1.465,0.766
-64.416,-139.217,-988.728,-2.072,-1.443,0.684
-63.253,-140.783,-990.316,-1.422,-1.244,0.504
-67.232,-140.657,-993.265,-0.513,-0.981,0.321
-71.744,-136.988,-993.710,0.196,-0.761,0.140
-72.305,-128.906,-994.234,0.948,-0.594,-0.031
-66.673,-121.644,-994.993,1.573,-0.403,0.015
-67.650,-120.004,-994.916,1.691,-0.218,0.265
-70.897,-119.378,-997.295,1.507,-0.154,0.352
-71.220,-117.578,-999.441,1.297,-0.081,0.372
-73.770,-116.424,-1000.042,0.697,-0.099,0.537
-75.685,-118.818,-999.291,-0.039,-0.153,0.661
-77.735,-126.825,-999.218,-0.542,-0.136,0.618
-78.989,-136.557,-1001.306,-0.494,-0.140,0.728
-78.000,-147.000,-1002.000,0.420,-0.140,0.770
-77.957,-150.642,-1002.711,1.795,-0.154,0.576
-77.953,-142.878,-1004.635,3.318,0.059,0.566
-78.915,-134.516,-1004.688,4.234,0.176,0.431
-80.727,-126.019,-1001.914,4.049,-0.093,0.103
-78.887,-117.023,-996.653,3.206,-0.246,-0.164
-76.666,-115.407,-992.173,2.228,-0.404,-0.288
-74.769,-120.479,-991.035,1.253,-0.729,-0.286
-72.031,-124.918,-991.961,0.336,-1.156,-0.534
-74.815,-122.937,-991.941,-0.233,-1.501,-0.804
-78.318,-119.998,-992.905,-0.864,-1.626,-0.965
-76.260,-120.762,-995.317,-1.702,-1.759,-1.171
-74.541,-123.608,-998.574,-2.168,-1.674,-1.125
-73.320,-128.316,-1003.163,-1.969,-1.500,-0.941
-69.386,-128.667,-1003.809,-1.175,-1.373,-1.001
-68.000,-127.000,-1002.000,0.000,-1.190,-1.050
-69.103,-129.576,-999.476,1.008,-1.132,-0.921
-66.857,-130.952,-997.140,1.669,-0.973,-0.948
-65.351,-131.548,-996.310,2.409,-0.837,-1.025
-67.418,-131.248,-991.875,2.751,-0.848,-1.119
-72.215,-125.248,-987.846,2.366,-0.843,-1.354
-77.993,-122.149,-988.274,1.301,-0.941,-1.481
-77.776,-127.525,-991.388,-0.174,-1.057,-1.469
-75.101,-132.739,-997.583,-1.086,-1.117,-1.528
-74.284,-135.549,-1000.707,-1.190,-1.125,-1.759
-72.631,-135.615,-1002.509,-0.670,-1.086,-1.979
-71.240,-130.115,-1005.258,0.236,-0.969,-2.100
-71.313,-124.965,-1003.295,1.179,-0.893,-2.235
-73.963,-120.174,-1000.247,1.565,-0.916,-2.323
-76.275,-112.993,-998.691,1.164,-0.912,-2.202
-79.000,-111.000,-995.000,0.350,-0.980,-1.820
-81.939,-118.318,-992.701,-0.691,-0.989,-1.444
-80.224,-129.297,-997.230,-1.402,-0.963,-1.193
-75.551,-135.543,-1000.924,-1.338,-1.029,-0.972
-70.917,-135.022,-1000.148,-0.598,-1.072,-0.890
-74.814,-131.688,-999.750,0.008,-1.155,-0.923
-83.540,-129.758,-998.488,-0.159,-1.190,-0.894
-83.697,-130.133,-996.972,-0.589,-1.191,-0.755
-79.194,-134.482,-997.053,-0.834,-1.191,-0.509
-80.592,-140.498,-995.334,-0.752,-1.226,-0.350
-86.836,-139.115,-995.530,-0.539,-1.411,-0.407
-87.239,-133.807,-998.840,-0.479,-1.513,-0.353
-82.833,-131.037,-1000.366,-0.697,-1.585,-0.063
-78.970,-131.695,-1002.733,-0.950,-1.714,0.218
-76.686,-135.487,-1002.661,-0.703,-1.748,0.457
-73.000,-135.000,-1000.000,-0.280,-1.680,0.700
-68.304,-132.862,-998.455,-0.084,-1.608,0.943
-68.880,-135.761,-994.189,-0.086,-1.667,1.152
-73.500,-138.828,-991.831,-0.343,-1.650,1.234
-77.163,-137.965,-990.962,-0.610,-1.580,1.327
-69.985,-135.239,-987.714,-0.578,-1.469,1.586
-62.060,-140.141,-988.495,-0.256,-1.091,1.875
-62.047,-151.764,-990.007,0.256,-0.750,1.872
-62.806,-155.217,-988.270,0.984,-0.508,1.437
-66.490,-150.233,-983.858,1.817,-0.310,1.091
-66.040,-145.563,-982.864,2.151,-0.162,0.891
-64.449,-141.441,-989.024,1.946,0.099,0.597
-65.500,-139.998,-992.967,1.699,0.257,0.605
-68.507,-142.892,-994.432,1.232,0.285,0.581
-76.216,-141.182,-996.297,0.898,0.275,0.319
-82.000,-134.000,-999.000,1.050,0.280,0.350
-84.876,-130.178,-1001.844,1.070,0.353,0.648
-84.265,-129.849,-1001.876,0.939,0.213,0.934
-84.755,-130.573,-1002.708,0.860,0.028,1.019
-87.329,-131.291,-1001.432,0.828,-0.037,1.139
-90.537,-133.136,-997.616,0.665,-0.231,1.298
-94.570,-139.970,-996.815,0.151,-0.473,1.237
-92.679,-148.586,-994.850,-0.140,-0.720,1.187
-89.153,-153.834,-995.718,0.169,-0.965,1.066
-88.099,-151.857,-999.426,0.810,-1.106,0.870
-87.534,-141.344,-1001.162,1.508,-1.123,0.781
-85.279,-131.817,-1002.646,1.710,-1.160,0.792
-80.626,-126.806,-1002.738,1.118,-1.365,0.859
-75.695,-121.300,-1002.845,0.211,-1.484,0.689
-75.403,-117.629,-999.061,-0.602,-1.465,0.474
-79.000,-117.000,-993.000,-1.190,-1.400,0.560
-78.363,-123.378,-990.247,-1.570,-1.276,0.752
-76.914,-132.293,-989.508,-1.610,-1.205,0.751
-77.517,-130.687,-991.792,-0.867,-1.149,0.581
-78.795,-125.104,-993.033,0.178,-1.086,0.625
-80.617,-119.970,-992.873,0.487,-1.034,0.860
-80.788,-118.454,-992.739,-0.137,-1.070,0.997
-77.647,-124.503,-992.086,-1.201,-1.201,0.973
-74.043,-127.950,-994.858,-2.053,-1.322,0.850
-76.819,-128.049,-993.113,-2.546,-1.391,0.727
-80.356,-127.304,-989.952,-3.172,-1.442,0.607
-77.212,-127.896,-993.359,-4.005,-1.476,0.485
-68.485,-134.900,-995.006,-4.266,-1.276,0.376
-59.978,-143.168,-995.118,-3.370,-0.939,0.348
-59.513,-145.905,-996.096,-1.306,-0.481,0.249
-66.000,-140.000,-995.000,1.050,-0.070,-0.070
-73.972,-127.817,-991.436,2.200,0.107,-0.438
-79.026,-119.920,-990.517,2.057,0.368,-0.690
-81.937,-124.097,-991.676,1.413,0.382,-0.594
-83.471,-131.166,-992.393,0.657,0.183,-0.433
-82.518,-131.445,-997.042,0.249,0.118,-0.565
-81.844,-129.575,-1001.724,0.101,-0.050,-0.727
-79.761,-127.939,-1004.196,-0.162,-0.217,-0.768
-77.109,-130.507,-1005.979,-0.348,-0.215,-0.646
-76.781,-138.321,-1005.811,-0.179,-0.149,-0.448
-79.008,-143.209,-1006.931,0.513,-0.134,-0.429
-84.969,-139.531,-1004.676,1.577,-0.162,-0.619
-89.350,-128.753,-999.917,2.196,-0.278,-0.708
-88.072,-121.496,-998.799,1.691,-0.498,-0.585
-83.150,-118.682,-997.842,0.511,-0.825,-0.475
-79.000,-120.000,-998.000,-0.630,-1.120,-0.350
-78.892,-128.604,-999.704,-1.519,-1.248,-0.276
-78.594,-136.043,-1001.078,-1.737,-1.283,-0.334
-76.509,-143.306,-999.569,-1.032,-1.169,-0.380
-76.414,-149.278,-998.974,0.221,-1.090,-0.515
-81.851,-142.505,-999.614,1.528,-1.011,-0.853
-90.894,-122.793,-996.076,2.354,-0.998,-1.273
-93.889,-102.895,-995.032,2.106,-1.127,-1.311
-88.605,-99.444,-994.138,0.756,-1.181,-0.875
-80.524,-111.670,-994.873,-0.777,-1.411,-0.583
-76.211,-123.982,-999.329,-1.612,-1.527,-0.516
-76.060,-130.395,-999.567,-1.534,-1.344,-0.445
-76.213,-135.308,-1000.090,-1.036,-1.207,-0.420
-79.129,-140.510,-997.956,-0.791,-1.076,-0.560
-81.011,-143.034,-997.150,-0.489,-0.971,-0.889
-80.000,-140.000,-996.000,0.070,-0.980,-1.050
-79.141,-135.522,-992.135,0.403,-1.095,-1.103
-78.275,-133.057,-991.797,0.331,-1.274,-1.191
-76.611,-135.156,-988.188,-0.258,-1.451,-1.187
-73.430,-140.655,-989.355,-1.293,-1.667,-1.457
-75.728,-140.124,-993.210,-2.293,-1.886,-1.909
-81.025,-138.834,-998.239,-2.581,-1.865,-2.129
-84.212,-134.358,-1001.081,-2.368,-1.741,-2.169
-85.980,-125.495,-1004.568,-2.374,-1.617,-2.109
-85.354,-120.955,-1003.927,-2.503,-1.682,-1.938
-82.030,-117.510,-990.828,-3.179,-1.951,-1.772
-73.208,-121.224,-997.564,-4.046,-1.883,-1.714
-69.646,-124.967,-996.775,-4.242,-2.007,-1.479
-71.252,-129.378,-985.264,-4.508,-2.151,-1.464
-71.139,-140.514,-989.464,-4.303,-1.750,-1.870
-74.000,-146.000,-984.000,-3.220,-1.470,-1.820
-74.234,-153.542,-984.756,-1.831,-1.242,-1.718
-74.524,-159.092,-990.747,0.521,-0.878,-2.022
-81.282,-150.633,-990.681,2.790,-0.568,-2.214
-87.600,-133.004,-990.625,3.682,-0.469,-2.479
-85.017,-121.451,-992.209,3.528,-0.496,-2.708
-80.406,-123.969,-997.874,2.313,-0.496,-2.637
-81.150,-123.775,-996.834,1.058,-0.563,-2.669
-82.074,-123.664,-997.794,0.828,-0.500,-2.735
-79.045,-129.112,-998.324,1.018,-0.417,-2.569
-76.597,-131.438,-998.510,1.157,-0.466,-2.433
-81.613,-132.875,-1000.805,1.578,-0.492,-2.534
-81.645,-132.222,-999.100,2.494,-0.295,-2.566
-76.872,-128.598,-1002.369,3.387,0.011,-2.261
-74.513,-121.767,-1003.814,4.014,0.157,-1.918
-71.000,-115.000,-1002.000,4.550,0.280,-1.680
-74.841,-112.281,-1001.163,4.177,0.186,-1.375
-81.112,-111.296,-999.699,2.515,-0.140,-1.191
-82.761,-116.651,-996.437,0.525,-0.274,-1.238
-83.328,-129.758,-994.042,-1.048,-0.298,-1.243
-84.364,-146.521,-995.330,-1.748,-0.387,-1.174
-83.572,-158.771,-994.738,-1.243,-0.413,-1.316
-83.148,-157.448,-996.227,0.270,-0.346,-1.552
-85.918,-146.932,-997.133,1.621,-0.405,-1.608
-85.059,-135.271,-996.350,1.841,-0.686,-1.670
-87.415,-127.819,-999.636,1.156,-1.056,-1.591
-88.641,-128.080,-998.022,-0.172,-1.369,-1.236
-81.244,-134.047,-997.589,-1.396,-1.512,-0.906
-77.480,-139.088,-1002.256,-1.915,-1.557,-0.626
-75.517,-139.942,-1004.175,-1.827,-1.609,-0.569
-72.000,-139.000,-1005.000,-0.910,-1.400,-0.630
-71.620,-136.668,-1003.370,0.323,-1.077,-0.626
-75.568,-130.445,-1001.015,1.323,-0.996,-0.649
-79.204,-123.460,-995.708,2.154,-0.898,-0.518
-81.051,-121.567,-987.157,2.146,-0.825,-0.312
-84.079,-122.730,-980.892,0.840,-1.010,-0.164
-83.309,-129.194,-980.636,-1.063,-1.333,-0.145
-79.816,-142.087,-987.662,-2.445,-1.550,-0.137
-79.023,-155.200,-995.476,-2.504,-1.611,-0.193
-77.663,-159.999,-1001.796,-1.348,-1.472,-0.496
-74.362,-151.015,-1005.269,0.392,-1.114,-0.679
-70.767,-139.042,-1006.818,2.231,-0.789,-0.695
-67.945,-132.851,-1007.743,3.469,-0.509,-0.534
-68.756,-130.120,-1002.948,3.950,-0.423,-0.408
-74.040,-125.077,-997.323,4.037,-0.503,-0.412
-81.000,-122.000,-993.000,3.360,-0.630,-0.280
-83.293,-126.109,-988.388,2.080,-0.821,-0.276
-79.951,-132.944,-988.174,1.081,-0.893,-0.200
-78.638,-144.209,-990.890,0.794,-0.959,-0.073
-82.714,-151.969,-992.212,1.197,-0.982,-0.331
-87.257,-150.677,-993.904,2.056,-0.975,-0.813
-86.419,-144.251,-997.353,3.074,-0.881,-1.073
-85.042,-138.822,-993.548,3.258,-0.929,-1.050
-86.874,-138.169,-992.598,2.451,-1.245,-1.235
-86.717,-132.691,-997.331,1.558,-1.271,-1.553
-81.692,-127.760,-991.887,0.414,-1.328,-1.760
-75.890,-130.268,-989.973,-0.688,-1.471,-1.896
-77.937,-138.351,-992.259,-1.077,-1.461,-2.035
-81.460,-146.816,-990.636,-0.980,-1.470,-2.215
-79.587,-145.171,-993.663,-0.447,-1.376,-2.236
-78.000,-140.000,-995.000,0.420,-1.190,-2.240
-77.928,-138.177,-993.001,1.025,-1.055,-2.138
-78.676,-136.662,-994.960,0.791,-1.095,-1.912
-80.003,-134.456,-996.775,-0.090,-1.158,-1.905
-81.982,-134.730,-993.677,-1.119,-1.255,-1.805
-81.405,-141.279,-991.504,-2.114,-1.349,-1.622
-81.377,-152.857,-992.059,-2.754,-1.324,-1.511
-82.945,-163.647,-993.214,-2.612,-1.330,-1.397
-78.476,-168.004,-996.835,-1.451,-1.268,-1.522
-74.249,-163.503,-996.341,0.198,-1.150,-1.725
-73.966,-149.479,-997.084,1.595,-1.016,-1.772
-73.994,-133.483,-1000.361,2.213,-0.966,-1.661
-73.759,-122.893,-995.914,1.607,-0.983,-1.426
-72.702,-120.316,-990.780,0.254,-0.990,-1.177
-73.238,-128.990,-988.834,-1.084,-1.056,-0.761
-75.000,-144.000,-989.000,-1.540,-0.980,-0.280
-75.106,-155.882,-989.878,-0.687,-0.798,-0.190
-75.239,-158.509,-991.708,0.646,-0.613,-0.330
-78.607,-150.420,-996.114,1.850,-0.487,-0.333
-80.207,-139.173,-999.170,2.165,-0.537,-0.171
-78.168,-131.159,-1002.051,1.040,-0.709,0.101
-78.378,-124.879,-1004.151,-0.660,-0.971,0.227
-81.238,-126.571,-1004.003,-1.884,-1.123,0.451
-83.027,-138.008,-1004.071,-2.243,-1.059,0.947
-80.822,-149.778,-1001.742,-1.886,-0.937,1.185
-77.693,-157.107,-998.700,-0.553,-0.844,1.180
-76.504,-157.361,-996.481,1.429,-0.893,1.231
-78.170,-154.603,-996.071,2.668,-1.052,1.242
-80.004,-148.303,-998.878,2.953,-1.139,1.051
-74.899,-137.501,-999.887,2.554,-1.198,0.996
-71.000,-134.000,-997.000,1.610,-1.190,1.190
-75.200,-140.596,-993.232,0.672,-1.124,1.260
-79.171,-148.659,-994.084,0.265,-1.090,1.263
-81.636,-150.257,-995.665,1.005,-0.869,1.248
-80.947,-147.214,-993.278,2.764,-0.494,1.317
-78.592,-145.714,-993.593,4.381,-0.172,1.422
-82.074,-144.186,-996.354,5.158,-0.073,1.266
-83.964,-133.793,-995.944,5.473,-0.142,0.879
-83.877,-117.035,-996.846,5.183,-0.076,0.691
-85.816,-109.942,-997.446,3.558,-0.144,0.979
-85.916,-112.185,-995.049,1.013,-0.470,1.139
-86.062,-117.884,-995.411,-1.107,-0.599,1.100
-82.865,-125.058,-995.654,-1.862,-0.519,1.133
-77.540,-128.954,-996.635,-1.736,-0.484,1.120
-74.822,-134.083,-999.145,-1.123,-0.397,1.203
-78.000,-142.000,-996.000,-0.000,-0.210,1.120
-87.017,-146.052,-990.557,0.789,-0.132,0.868
-88.399,-142.777,-988.248,0.756,-0.272,0.735
-83.895,-138.122,-987.913,-0.190,-0.557,0.636
-83.071,-139.365,-990.680,-1.595,-0.850,0.651
-84.559,-143.921,-993.419,-2.642,-1.028,0.566
-83.142,-150.804,-992.765,-2.908,-1.044,0.408
-78.842,-157.285,-994.225,-2.158,-1.055,0.577
-81.596,-155.540,-996.018,-1.063,-1.121,0.580
-83.773,-146.243,-995.133,0.121,-0.976,0.302
-78.832,-138.489,-994.321,1.178,-0.722,0.394
-75.171,-135.122,-993.303,0.959,-0.787,0.541
-76.240,-130.705,-994.431,0.392,-0.959,0.234
-81.433,-127.366,-993.128,0.712,-0.726,-0.026
-80.274,-127.075,-992.166,0.997,-0.384,0.286
-76.000,-130.000,-993.000,1.190,-0.280,0.700
-76.571,-137.909,-990.985,1.891,-0.166,0.769
-82.005,-141.020,-993.652,2.781,0.010,0.817
-91.067,-135.607,-996.879,3.353,0.211,0.849
-89.318,-127.728,-998.935,3.362,0.292,0.884
-83.459,-122.711,-999.881,2.577,0.135,1.182
-82.926,-121.838,-1000.135,0.698,-0.033,1.324
-81.986,-122.300,-999.838,-1.080,-0.146,1.182
-83.795,-134.527,-997.092,-1.918,-0.145,1.248
-85.677,-152.392,-997.783,-2.186,-0.124,1.300
-87.781,-158.813,-996.795,-1.270,-0.206,1.029
-90.707,-157.727,-995.211,0.439,-0.169,0.773
-93.085,-151.753,-996.584,1.827,-0.163,0.648
-93.638,-144.969,-998.615,2.495,-0.343,0.517
-89.144,-136.497,-1000.095,2.401,-0.513,0.412
-85.000,-129.000,-1001.000,1.820,-0.700,0.490
-84.021,-127.253,-1003.868,0.685,-0.950,0.677
-83.497,-126.955,-1001.506,-0.402,-1.054,0.834
-81.848,-139.241,-997.846,-1.027,-1.041,1.113
-83.516,-155.785,-997.795,-1.134,-1.046,1.131
-87.198,-158.106,-995.876,0.041,-0.916,0.770
-89.641,-147.512,-993.260,1.630,-0.843,0.614
-92.022,-128.577,-989.793,2.087,-0.915,0.474
-87.618,-117.228,-989.819,1.353,-0.974,0.406
-79.571,-119.445,-992.429,-0.036,-1.050,0.754
-73.545,-127.394,-994.840,-1.078,-0.971,0.983
-71.427,-136.585,-996.503,-1.011,-0.813,0.959
-74.764,-144.131,-994.604,-0.031,-0.552,1.023
-75.924,-147.096,-992.257,1.201,-0.175,1.025
-76.243,-141.724,-989.584,2.162,0.023,0.799
-79.000,-133.000,-989.000,2.940,0.210,0.630
-83.164,-127.496,-992.413,3.141,0.291,0.681
-88.231,-125.779,-996.291,2.442,0.210,0.841
-88.757,-127.847,-1002.883,1.637,0.259,1.084
-87.591,-132.659,-1006.574,0.964,0.249,1.276
-88.362,-135.844,-1001.612,0.161,0.048,1.352
-89.209,-139.285,-1000.023,-0.781,-0.189,1.415
-90.018,-150.062,-997.594,-1.586,-0.363,1.388
-89.116,-163.225,-993.909,-1.833,-0.547,1.022
-88.065,-168.444,-998.130,-1.240,-0.631,0.463
-88.261,-161.736,-998.706,0.007,-0.681,0.045
-91.624,-144.067,-997.153,0.745,-0.968,-0.189
-97.388,-125.175,-995.576,0.269,-1.211,-0.175
-96.999,-120.616,-992.393,-0.964,-1.386,-0.003
-90.905,-131.039,-994.393,-1.904,-1.466,0.340
-83.000,-143.000,-993.000,-1.890,-1.400,0.560
-77.948,-148.763,-989.907,-1.310,-1.520,0.326
-82.001,-148.350,-991.755,-0.388,-1.488,0.140
-86.503,-148.624,-990.453,0.514,-1.188,0.187
-83.829,-150.895,-987.295,0.673,-1.148,0.160
-79.607,-145.933,-987.098,0.229,-1.320,-0.294
-77.677,-135.811,-988.000,-0.145,-1.306,-0.762
-75.797,-130.937,-986.930,-0.692,-1.183,-0.682
-72.298,-134.459,-988.653,-1.619,-1.125,-0.496
-69.252,-142.381,-993.332,-2.002,-1.016,-0.520
-69.462,-146.973,-994.215,-1.539,-0.818,-0.754
-70.250,-145.803,-993.177,-0.492,-0.471,-0.885
-70.267,-145.194,-992.646,0.575,-0.154,-0.791
-74.886,-147.791,-993.157,1.106,0.074,-0.781
-79.305,-146.174,-992.807,1.536,0.306,-0.854
-79.000,-137.000,-992.000,1.680,0.350,-0.910
-78.230,-129.402,-994.536,1.172,0.350,-0.690
-76.231,-130.895,-996.073,0.183,0.275,-0.333
-77.696,-138.989,-995.986,-1.081,0.058,-0.291
-82.005,-146.772,-998.177,-1.586,-0.014,-0.393
-80.894,-151.623,-1000.878,-1.056,0.007,-0.278
-77.184,-154.175,-1003.327,-0.210,-0.009,-0.125
-74.946,-150.492,-1002.927,0.773,-0.076,-0.222
-76.721,-143.468,-1003.789,1.386,-0.137,-0.286
-79.770,-138.165,-1005.969,1.234,-0.189,-0.124
-79.478,-133.294,-1005.041,0.576,-0.300,0.145
-78.845,-130.933,-1005.214,-0.468,-0.428,0.533
-81.809,-131.867,-1005.705,-1.452,-0.540,0.967
-83.827,-139.197,-1000.374,-1.904,-0.688,1.405
-77.796,-153.248,-990.955,-1.943,-0.951,1.986
-72.000,-165.000,-991.000,-1.540,-1.120,2.450
-66.976,-169.863,-989.221,-0.643,-1.230,2.363
-63.156,-168.307,-982.781,0.170,-1.439,1.993
-67.697,-164.060,-985.059,0.241,-1.421,1.676
-68.443,-162.995,-982.763,-0.155,-1.222,1.411
-69.004,-164.202,-985.193,-0.424,-1.058,1.300
-72.317,-160.708,-990.192,-0.357,-0.858,1.137
-70.929,-155.769,-989.167,0.356,-0.611,0.980
-73.611,-154.161,-996.401,1.337,-0.426,1.171
-77.593,-150.262,-999.461,1.946,-0.457,1.275
-78.349,-144.886,-996.900,2.126,-0.599,1.229
-76.501,-140.421,-993.028,1.663,-0.635,1.343
-74.510,-141.914,-987.447,0.738,-0.657,1.431
-77.186,-150.779,-986.036,-0.183,-0.823,1.471
-80.264,-155.209,-988.465,-0.461,-0.818,1.284
-79.000,-155.000,-990.000,0.280,-0.630,1.050
-72.297,-151.927,-992.098,1.222,-0.563,1.059
-64.547,-144.984,-998.237,1.704,-0.556,0.831
-62.211,-139.503,-997.796,1.687,-0.548,0.415
-67.496,-137.705,-996.152,1.325,-0.366,0.199
-71.945,-145.014,-990.766,1.055,-0.132,0.260
-72.167,-155.923,-984.310,1.190,0.043,0.346
-76.499,-157.890,-986.185,1.734,0.219,0.114
-82.642,-156.120,-986.927,2.472,0.218,-0.193
-85.735,-153.808,-989.929,2.776,0.052,-0.377
-85.704,-150.581,-994.441,2.349,-0.162,-0.598
-83.406,-149.549,-1001.619,1.711,-0.242,-0.859
-81.063,-148.021,-1005.330,1.151,-0.353,-1.062
-81.658,-144.933,-1003.518,0.570,-0.533,-1.110
-85.596,-141.615,-1002.635,-0.281,-0.558,-0.951
-86.000,-143.000,-998.000,-0.910,-0.560,-0.840
-79.235,-152.948,-996.912,-0.816,-0.562,-0.681
-73.828,-166.054,-995.829,-0.453,-0.555,-0.361
-77.177,-170.860,-993.882,0.274,-0.592,-0.587
-82.121,-161.870,-992.955,1.111,-0.675,-1.029
-80.722,-152.197,-989.570,1.298,-0.706,-0.843
-77.780,-151.611,-987.382,0.619,-0.815,-0.509
-82.661,-158.767,-984.989,-0.420,-1.067,-0.499
-90.663,-167.675,-989.483,-0.965,-1.188,-0.685
-90.283,-165.718,-993.138,-0.916,-1.190,-0.789
-83.543,-159.515,-992.759,-0.528,-1.220,-0.596
-78.369,-159.594,-995.961,-0.392,-1.326,-0.395
-78.540,-159.562,-996.703,-0.358,-1.278,-0.480
-78.746,-157.092,-995.084,0.071,-1.181,-0.437
-78.063,-154.906,-988.875,0.190,-1.278,-0.175
-80.000,-159.000,-985.000,-0.070,-1.330,-0.070
-84.023,-168.671,-985.230,-0.264,-1.330,-0.006
-90.846,-174.143,-983.569,-0.268,-1.328,-0.073
-90.371,-169.970,-987.139,0.016,-1.339,-0.271
-83.584,-158.684,-992.020,0.427,-1.294,-0.205
-84.110,-152.997,-995.112,0.535,-1.269,0.002
-85.830,-152.748,-998.507,0.195,-1.337,0.071
-81.604,-149.788,-997.794,0.073,-1.251,0.074
-78.943,-149.002,-994.274,-0.037,-1.252,0.201
-81.927,-147.550,-991.461,-0.672,-1.332,0.183
-86.511,-147.267,-988.571,-1.377,-1.314,0.013
-89.358,-152.018,-984.481,-2.272,-1.381,0.019
-87.431,-152.348,-987.050,-3.115,-1.372,-0.060
-82.462,-150.729,-991.872,-2.985,-1.187,-0.140
-78.510,-151.187,-993.408,-1.896,-0.850,0.043
-77.000,-154.000,-998.000,-0.560,-0.490,0.350
-78.651,-154.060,-998.356,0.439,-0.300,0.383
-80.961,-142.845,-996.948,1.059,-0.176,0.156
-85.775,-134.337,-995.821,0.854,-0.081,0.244
-91.979,-138.542,-991.216,-0.447,-0.102,0.438
-92.425,-149.703,-989.910,-1.924,-0.306,0.503
-90.962,-159.317,-991.280,-2.775,-0.530,0.357
-93.246,-155.177,-993.201,-2.615,-0.637,0.056
-95.849,-142.795,-995.846,-1.929,-0.759,0.120
-97.721,-137.520,-996.945,-1.728,-0.886,0.417
-96.952,-143.249,-996.798,-1.773,-0.970,0.738
-90.859,-152.298,-996.957,-1.346,-0.970,0.923
-86.714,-155.325,-996.025,-0.500,-1.038,0.864
-85.711,-148.942,-993.011,0.118,-1.251,0.723
-84.962,-136.258,-992.073,-0.191,-1.338,0.627
-85.000,-134.000,-993.000,-1.470,-1.470,0.700
-84.125,-143.673,-994.598,-2.859,-1.611,0.656
-83.434,-148.739,-996.364,-3.330,-1.521,0.505
-81.465,-148.713,-993.687,-2.630,-1.325,0.516
-82.091,-146.392,-993.411,-1.497,-1.011,0.627
-86.543,-142.291,-994.839,-0.584,-0.769,0.726
-86.533,-136.318,-992.519,0.130,-0.696,0.679
-83.770,-128.486,-994.271,0.098,-0.782,0.632
-79.453,-125.845,-996.023,-0.826,-0.905,0.755
-73.786,-131.643,-996.442,-1.952,-0.956,0.909
-73.201,-142.985,-998.207,-3.239,-1.086,0.764
-79.517,-150.463,-996.344,-3.915,-1.111,0.434
-87.157,-147.949,-996.210,-3.514,-0.973,0.347
-90.711,-146.478,-996.944,-2.875,-0.792,0.477
-92.063,-151.807,-997.188,-1.915,-0.782,0.744
-89.000,-152.000,-1000.000,-0.490,-0.840,0.910
-82.596,-143.046,-1004.479,1.051,-0.830,0.905
-81.529,-128.512,-1003.963,1.857,-0.945,0.967
-83.050,-123.428,-997.859,0.980,-1.026,0.975
-85.637,-131.771,-999.397,-0.210,-1.085,1.033
-86.351,-134.169,-996.227,-0.872,-1.133,1.144
-78.987,-138.566,-990.405,-1.269,-1.095,0.997
-75.066,-141.942,-990.979,-0.556,-0.897,0.836
-77.865,-140.949,-989.095,-0.074,-0.963,0.784
-77.971,-138.876,-987.460,0.354,-0.985,0.438
-79.102,-133.598,-978.583,1.337,-0.765,0.222
-75.135,-151.485,-986.612,0.021,-1.313,0.019
-65.396,-148.442,-1006.246,-0.419,-1.094,-0.840
-76.034,-106.623,-991.814,1.617,-0.272,-0.919
-95.873,-97.824,-982.965,-0.177,-0.658,-0.187
-91.000,-123.000,-996.000,-4.060,-0.910,0.070
-76.137,-151.858,-993.174,-4.357,-0.721,0.045
-75.803,-157.356,-991.069,-2.560,-0.600,-0.499
-83.299,-136.426,-996.635,-0.557,-0.478,-0.888
-87.812,-129.173,-995.489,1.157,-0.323,-0.517
-86.936,-134.919,-995.421,1.530,-0.185,-0.203
-81.868,-132.402,-998.757,1.142,-0.331,-0.253
-82.455,-119.777,-1001.063,0.169,-0.582,-0.588
-92.201,-105.581,-999.281,-1.724,-0.891,-0.776
-98.935,-108.999,-996.292,-3.958,-0.989,-0.474
-94.921,-129.892,-995.154,-5.998,-0.998,0.071
-84.128,-148.180,-994.946,-6.441,-1.139,0.237
-79.095,-156.092,-996.111,-4.784,-1.222,-0.151
-84.181,-149.363,-994.464,-2.466,-1.259,-0.618
-90.773,-134.999,-997.948,-0.882,-1.177,-0.854
-91.000,-127.000,-1001.000,-0.350,-1.190,-0.770
-82.362,-126.640,-1000.444,-0.336,-1.200,-0.691
-79.008,-128.354,-1004.875,-0.416,-1.170,-0.801
-87.444,-126.003,-1001.837,-0.430,-1.222,-0.942
-89.330,-124.372,-999.153,-0.616,-1.122,-1.196
-84.393,-121.343,-997.624,-0.878,-1.196,-1.189
-84.086,-119.247,-993.002,-1.557,-1.558,-0.858
-81.710,-125.675,-989.751,-2.660,-1.834,-1.087
-81.602,-134.377,-987.104,-3.190,-1.953,-1.399
-87.608,-141.079,-986.147,-3.770,-2.029,-1.366
-84.215,-143.519,-987.710,-3.999,-1.898,-1.646
-77.792,-144.337,-996.369,-3.001,-1.486,-1.783
-79.017,-139.926,-996.165,-2.127,-1.269,-1.764
-78.108,-131.806,-996.147,-1.579,-1.125,-1.964
-74.615,-127.399,-998.506,-1.257,-0.882,-2.207
-75.000,-122.000,-991.000,-1.680,-0.840,-2.380
-79.298,-116.537,-992.454,-2.345,-0.789,-2.381
-82.600,-115.682,-992.060,-3.076,-0.662,-2.362
-83.547,-122.482,-991.050,-3.573,-0.575,-2.065
-84.468,-131.724,-993.913,-3.437,-0.579,-1.807
-85.595,-137.896,-994.542,-3.053,-0.650,-1.971
-88.817,-138.514,-1000.239,-2.426,-0.614,-2.014
-89.882,-135.969,-1002.063,-1.774,-0.556,-1.794
-86.337,-138.730,-1005.617,-1.053,-0.494,-1.362
-82.524,-140.105,-1007.520,-0.051,-0.482,-1.124
-82.011,-140.136,-1005.531,0.535,-0.499,-1.128
-84.872,-137.360,-1005.936,0.702,-0.495,-1.117
-86.523,-130.019,-1000.352,0.397,-0.658,-1.057
-86.768,-133.462,-993.227,-0.676,-0.929,-0.611
-81.963,-143.350,-993.771,-2.105,-1.234,-0.442
-79.000,-148.000,-1001.000,-3.010,-1.400,-0.770
-83.715,-141.902,-999.932,-2.638,-1.453,-1.012
-81.313,-128.971,-995.722,-2.066,-1.553,-1.248
-80.456,-122.779,-997.368,-2.057,-1.393,-1.092
-85.621,-124.727,-997.991,-1.894,-1.152,-0.774
-87.741,-127.226,-999.255,-1.358,-1.124,-0.798
-90.300,-120.840,-997.039,-0.499,-1.113,-0.735
-86.550,-113.754,-993.865,-0.075,-1.125,-0.545
-84.745,-114.702,-992.175,-0.631,-1.249,-0.361
-88.611,-120.343,-990.275,-1.597,-1.375,-0.321
-89.456,-125.867,-988.085,-2.452,-1.492,-0.496
-90.269,-124.534,-986.230,-2.837,-1.592,-0.616
-84.317,-124.796,-988.721,-3.104,-1.628,-0.639
-79.491,-128.149,-984.054,-3.825,-1.689,-0.756
-79.838,-135.551,-989.210,-4.262,-1.485,-1.022
-76.000,-143.000,-1003.000,-3.360,-1.120,-1.260
-73.248,-138.194,-1001.222,-1.719,-0.835,-1.608
-72.286,-131.301,-1005.060,-0.129,-0.299,-2.032
-78.266,-121.378,-1006.917,1.231,0.033,-2.141
-90.664,-107.767,-1003.346,1.289,-0.107,-2.294
-97.680,-97.896,-1001.265,0.093,-0.242,-2.629
-97.610,-98.541,-993.377,-1.645,-0.305,-2.509
-97.125,-111.000,-994.426,-3.708,-0.591,-2.073
-99.070,-120.464,-998.009,-4.561,-0.962,-1.955
-93.822,-127.000,-996.962,-3.969,-1.093,-2.028
-88.742,-127.320,-998.416,-3.152,-1.262,-2.016
-89.647,-121.032,-1002.060,-2.146,-1.363,-2.102
-88.076,-118.037,-1002.080,-1.054,-1.298,-2.172
-88.306,-116.714,-1001.418,-0.174,-1.231,-1.926
-87.749,-117.091,-1005.349,0.415,-1.106,-1.658
-87.000,-116.000,-1001.000,0.630,-1.120,-1.680
-85.604,-114.062,-997.504,0.602,-1.126,-1.639
-82.101,-114.586,-1001.638,-0.005,-1.179,-1.468
-83.204,-115.872,-1000.596,-1.227,-1.516,-1.611
-84.798,-114.852,-999.564,-2.224,-1.815,-1.867
-88.954,-110.187,-997.595,-2.932,-1.903,-1.847
-90.670,-111.218,-994.494,-3.654,-1.886,-1.618
-87.894,-122.021,-993.987,-3.989,-1.890,-1.389
-88.051,-134.292,-993.940,-3.387,-1.831,-1.391
-85.075,-138.630,-995.579,-1.632,-1.656,-1.520
-80.681,-132.184,-996.535,0.611,-1.435,-1.556
-75.985,-121.057,-997.840,2.418,-1.160,-1.498
-73.414,-112.804,-998.764,3.045,-1.001,-1.473
-74.520,-109.255,-995.868,2.351,-0.976,-1.584
-79.129,-107.865,-993.844,1.128,-0.986,-1.689
-87.000,-108.000,-993.000,-0.280,-1.050,-1.680
-87.322,-111.114,-993.621,-1.425,-1.052,-1.565
-87.301,-118.954,-996.321,-1.948,-1.088,-1.418
-87.839,-127.896,-998.018,-2.012,-1.178,-1.424
-83.727,-130.077,-999.511,-1.204,-1.192,-1.528
-83.227,-126.085,-999.990,-0.107,-1.170,-1.678
-82.644,-120.828,-1001.136,0.645,-1.004,-1.846
-82.069,-117.983,-998.652,1.054,-0.910,-1.811
-83.852,-120.698,-995.944,0.674,-0.914,-1.747
-85.638,-122.464,-997.263,0.343,-0.889,-1.855
-86.748,-119.564,-993.970,0.419,-1.025,-1.996
-88.025,-119.694,-992.920,0.409,-0.994,-2.043
-91.716,-121.336,-993.947,0.415,-0.878,-2.035
-90.866,-119.149,-994.484,0.341,-0.928,-2.130
-85.251,-119.448,-997.222,0.626,-0.899,-2.078
-84.000,-123.000,-996.000,0.840,-0.840,-2.030
-87.390,-120.812,-998.261,0.801,-0.838,-2.226
-90.087,-116.432,-1000.643,1.196,-0.844,-2.123
-88.350,-116.023,-998.411,1.068,-0.829,-1.862
-85.853,-115.868,-999.649,0.438,-0.887,-1.816
-84.412,-118.634,-997.406,-0.062,-1.050,-1.824
-84.392,-122.385,-996.165,-0.823,-1.223,-1.933
-88.280,-120.863,-996.949,-1.424,-1.255,-2.188
-88.255,-122.620,-996.798,-1.416,-1.131,-2.248
-85.240,-126.775,-1000.668,-1.186,-1.003,-2.152
-84.913,-125.925,-998.043,-0.712,-0.929,-2.357
-86.103,-123.139,-994.720,0.392,-0.839,-2.459
-92.078,-119.127,-999.038,1.521,-0.551,-2.128
-93.009,-118.182,-999.282,2.177,-0.432,-1.810
-85.982,-117.560,-996.758,2.189,-0.674,-1.571
-84.000,-114.000,-996.000,1.540,-0.910,-1.330
-88.938,-117.109,-994.360,0.656,-1.044,-1.259
-95.083,-121.334,-991.718,-0.550,-1.010,-1.231
-95.872,-125.252,-990.184,-1.465,-0.906,-1.060
-94.066,-137.030,-992.214,-1.585,-0.738,-0.919
-91.823,-146.641,-994.574,-0.835,-0.590,-0.947
-86.555,-147.466,-996.390,0.937,-0.550,-1.181
-79.426,-140.181,-998.114,2.462,-0.487,-1.334
-74.082,-128.767,-999.000,3.064,-0.490,-1.390
-77.989,-121.193,-997.692,2.897,-0.437,-1.528
-86.539,-117.171,-994.064,1.876,-0.434,-1.500
-91.889,-119.193,-991.386,0.366,-0.606,-1.439
-95.520,-126.288,-990.991,-1.108,-0.769,-1.340
-97.268,-131.305,-994.278,-1.490,-0.846,-1.250
-96.805,-135.601,-998.602,-0.590,-0.750,-1.254
-94.000,-136.000,-1003.000,0.630,-0.700,-1.120
-87.326,-129.319,-1007.687,1.807,-0.761,-0.941
-79.368,-120.627,-1006.948,2.452,-0.818,-0.739
-77.773,-112.842,-1003.742,2.092,-0.888,-0.692
-80.272,-111.491,-997.803,0.842,-0.934,-0.643
-81.412,-120.457,-988.916,-0.870,-1.014,-0.400
-83.481,-134.047,-988.596,-2.069,-1.046,-0.364
-83.969,-143.423,-991.130,-2.057,-0.972,-0.422
-84.802,-143.429,-993.713,-1.075,-0.848,-0.478
-87.022,-133.949,-996.102,0.125,-0.820,-0.717
-85.534,-122.300,-995.623,0.858,-0.882,-0.792
-85.585,-120.099,-1000.096,1.051,-0.684,-0.487
-87.569,-125.677,-1001.253,1.039,-0.537,-0.317
-84.597,-126.041,-998.259,1.066,-0.678,-0.355
-82.112,-118.757,-997.996,1.020,-0.689,-0.260
-88.000,-114.000,-997.000,0.490,-0.630,-0.210
-94.707,-116.352,-995.294,-0.318,-0.686,-0.278
-92.745,-120.144,-993.830,-0.784,-0.762,-0.161
-87.400,-122.699,-995.182,-0.829,-0.744,0.138
-85.444,-125.722,-995.283,-0.422,-0.636,0.202
-86.684,-129.415,-993.281,0.265,-0.511,0.118
-88.199,-132.615,-994.388,0.804,-0.399,0.152
-87.940,-134.015,-996.137,1.227,-0.346,0.133
-87.070,-132.279,-997.906,1.893,-0.226,0.009
-86.167,-127.981,-998.145,2.785,-0.025,-0.021
-85.451,-123.843,-997.186,3.086,-0.020,0.077
-83.819,-118.442,-996.441,2.537,-0.136,-0.029
-83.110,-115.658,-997.527,1.910,-0.110,-0.185
-86.093,-121.349,-997.485,1.507,-0.067,-0.101
-88.107,-127.678,-996.003,1.422,-0.065,-0.084
-88.000,-130.000,-997.000,1.890,0.000,-0.280
-87.918,-129.460,-994.345,2.570,0.003,-0.417
-89.787,-124.816,-995.079,2.993,0.002,-0.410
-93.247,-119.443,-995.488,2.781,-0.063,-0.475
-90.322,-117.532,-993.257,1.982,-0.207,-0.432
-83.934,-120.886,-997.386,1.172,-0.202,-0.178
-83.335,-127.538,-994.795,0.367,-0.328,-0.073
-85.084,-132.201,-995.471,-0.401,-0.497,-0.225
-85.080,-132.989,-1000.071,-0.945,-0.554,-0.349
-83.430,-134.876,-997.675,-1.298,-0.585,-0.299
-82.094,-140.079,-1001.335,-1.259,-0.409,-0.228
-81.923,-139.170,-998.564,-0.744,-0.331,-0.182
-82.548,-130.997,-993.846,0.130,-0.351,-0.063
-86.522,-126.226,-996.785,0.486,-0.375,0.244
-90.349,-126.028,-997.060,-0.028,-0.603,0.430
-91.000,-125.000,-1000.000,-0.490,-0.840,0.490
-90.337,-123.042,-1002.661,-0.784,-0.965,0.786
-87.026,-124.798,-1005.894,-1.137,-1.079,1.102
-85.278,-128.521,-1007.219,-1.065,-1.165,1.402
-86.925,-131.996,-1003.716,-0.269,-0.995,1.680
-86.456,-136.613,-1000.768,0.695,-0.773,1.899
-84.556,-136.141,-998.642,1.412,-0.683,1.937
-82.923,-129.439,-997.868,1.997,-0.629,1.739
-83.784,-124.190,-993.430,2.183,-0.693,1.803
-87.199,-123.754,-990.617,1.722,-0.763,1.963
-90.603,-124.635,-992.623,0.843,-0.801,1.871
-94.188,-126.218,-992.200,-0.025,-0.945,1.769
-97.471,-129.387,-991.951,-0.720,-1.108,1.734
-98.795,-131.902,-993.689,-1.112,-1.119,1.639
-92.714,-136.762,-997.633,-0.711,-1.210,1.433
-88.000,-138.000,-998.000,0.560,-1.260,1.190
-90.864,-136.842,-994.771,1.764,-1.307,0.954
-87.407,-136.634,-999.706,2.416,-1.382,0.606
-80.750,-129.595,-998.650,2.899,-1.179,0.295
-81.087,-124.975,-992.254,2.454,-1.338,0.071
-86.161,-114.300,-995.266,1.039,-1.442,-0.403
-90.682,-103.276,-992.806,-0.312,-1.227,-0.531
-88.472,-114.202,-993.511,-1.697,-1.178,-0.432
-77.870,-123.778,-1000.705,-1.541,-0.688,-0.876
-70.434,-125.607,-1002.494,1.472,0.100,-1.019
-69.181,-124.371,-1004.728,5.402,0.912,-0.921
-65.321,-113.694,-1003.995,9.156,1.848,-1.104
-64.459,-103.726,-1003.742,12.435,2.833,-1.033
-73.137,-91.820,-998.506,13.762,3.633,-0.619
-95.936,-82.542,-992.517,12.068,3.925,-0.159
-111.000,-91.000,-988.000,7.700,3.570,-0.140
-106.385,-114.406,-979.452,2.641,2.886,-0.179
-109.904,-147.891,-980.671,-0.927,2.412,0.158
-112.592,-181.295,-978.313,-2.551,1.667,0.086
-106.196,-198.936,-978.349,-2.754,0.644,-0.467
-99.088,-197.620,-984.989,-1.896,-0.282,-1.241
-93.372,-186.077,-989.387,-0.974,-1.175,-2.153
-96.374,-175.295,-999.843,-1.019,-1.949,-2.686
-97.351,-165.050,-1006.721,-1.876,-2.685,-3.044
-87.723,-147.600,-1010.778,-2.925,-2.966,-3.553
-69.395,-130.741,-1015.231,-3.077,-2.723,-3.686
-58.241,-128.405,-1014.000,-2.260,-2.402,-3.308
-67.081,-131.889,-1002.229,-1.877,-2.299,-3.143
-82.201,-124.604,-990.202,-1.759,-2.277,-3.343
-89.421,-115.145,-985.289,-1.730,-1.980,-3.050
-88.000,-115.000,-980.000,-2.730,-1.890,-2.170
-84.521,-116.685,-979.574,-4.143,-2.184,-1.536
-81.075,-121.747,-983.678,-5.346,-2.521,-1.084
-77.317,-133.676,-993.359,-6.131,-2.633,-0.547
-71.642,-143.468,-1003.581,-5.627,-2.510,-0.419
-66.371,-146.063,-1008.283,-3.801,-2.238,-0.499
-64.935,-141.378,-1009.794,-1.420,-1.569,-0.401
-66.208,-132.213,-1006.778,0.380,-0.865,-0.505
-71.375,-122.544,-1003.523,1.165,-0.381,-0.571
-82.611,-120.779,-992.010,1.027,-0.094,-0.374
-96.618,-127.236,-983.736,-0.002,-0.033,-0.392
-101.261,-130.266,-983.434,-0.518,0.048,-0.329
-95.639,-134.931,-978.924,0.064,-0.127,0.219
-87.810,-141.242,-985.420,0.742,-0.422,0.630
-85.032,-139.363,-996.180,1.273,-0.588,0.625
-86.000,-137.000,-1001.000,1.820,-0.770,0.770
-85.006,-137.258,-1006.158,2.049,-0.776,0.983
-85.973,-132.609,-1011.051,1.768,-0.775,0.787
-84.022,-124.189,-1011.389,1.633,-0.670,0.631
-80.411,-122.099,-1004.502,1.703,-0.477,0.824
-79.944,-127.089,-997.309,1.511,-0.525,0.911
-80.266,-128.676,-991.959,1.291,-0.564,0.815
-83.266,-124.714,-991.084,1.185,-0.638,0.773
-85.027,-125.544,-990.254,1.132,-0.699,0.958
-83.505,-132.279,-989.502,0.654,-0.784,1.186
-82.215,-130.318,-998.380,-0.602,-1.082,1.034
-86.190,-122.466,-1000.582,-1.777,-1.316,0.771
-92.775,-124.631,-998.638,-2.464,-1.465,0.846
-95.168,-135.523,-1002.011,-3.131,-1.570,1.007
-92.171,-142.367,-1004.382,-3.131,-1.700,0.871
-85.000,-139.000,-1006.000,-1.820,-1.680,0.630
-80.280,-132.010,-1000.234,-0.241,-1.425,0.617
-79.734,-125.634,-994.519,0.364,-1.392,0.691
-81.087,-122.775,-992.928,0.224,-1.318,0.703
-82.889,-130.220,-990.228,0.334,-1.034,0.699
-85.045,-139.960,-988.249,0.875,-0.857,0.697
-88.771,-140.042,-988.067,1.660,-0.748,0.586
-88.793,-131.123,-989.101,2.263,-0.699,0.333
-85.207,-120.530,-990.837,2.083,-0.697,0.272
-84.623,-119.612,-992.123,0.952,-0.841,0.404
-86.099,-126.247,-991.235,-0.918,-1.167,0.391
-84.635,-129.895,-994.194,-2.425,-1.288,0.312
-81.974,-137.776,-995.563,-2.915,-1.052,0.437
-82.631,-150.632,-993.776,-2.628,-0.761,0.565
-86.803,-156.212,-996.481,-1.430,-0.518,0.288
-92.000,-153.000,-997.000,0.630,-0.210,0.000
-94.082,-142.909,-996.794,2.653,-0.067,0.052
-91.663,-131.017,-997.496,3.438,-0.126,0.130
-85.108,-122.769,-994.508,3.208,-0.165,0.171
-79.875,-121.645,-991.211,2.428,-0.303,0.274
-80.893,-132.430,-988.920,0.913,-0.476,0.371
-83.648,-148.427,-986.434,-0.237,-0.588,0.218
-87.316,-157.261,-986.115,-0.414,-0.705,-0.091
-90.771,-155.379,-988.755,-0.232,-0.641,-0.273
-94.774,-151.441,-992.718,0.084,-0.597,-0.295
-98.238,-148.739,-998.266,0.232,-0.791,-0.251
-91.652,-138.946,-1000.788,0.485,-0.825,-0.358
-82.181,-127.055,-1000.832,0.967,-0.746,-0.237
-78.262,-122.455,-1000.653,0.876,-0.784,0.060
-78.304,-124.599,-997.280,0.428,-0.760,-0.025
-83.000,-129.000,-993.000,0.140,-0.700,0.000
-89.205,-134.030,-992.825,-0.054,-0.643,0.201
-93.189,-140.481,-992.106,0.009,-0.535,0.126
-95.809,-143.747,-989.101,0.646,-0.388,-0.012
-97.341,-143.446,-991.680,1.418,-0.363,0.069
-92.006,-138.077,-992.919,1.663,-0.432,0.139
-83.161,-129.268,-996.289,1.867,-0.318,0.066
-78.945,-127.105,-1001.171,1.542,-0.367,0.309
-83.329,-129.776,-1001.889,0.304,-0.617,0.499
-91.809,-132.494,-1003.325,-0.577,-0.696,0.250
-94.932,-133.851,-999.086,-1.150,-0.731,0.262
-98.582,-134.810,-994.009,-2.120,-0.891,0.442
-98.964,-139.753,-989.868,-3.166,-1.179,0.345
-91.336,-145.391,-989.719,-3.513,-1.255,0.159
-84.026,-146.987,-993.368,-3.119,-1.273,0.061
-79.000,-146.000,-995.000,-1.960,-1.260,-0.000
-77.088,-145.152,-998.775,-0.075,-0.895,-0.073
-77.758,-143.210,-996.961,1.517,-0.667,0.032
-84.015,-137.865,-996.210,2.590,-0.485,0.038
-91.599,-128.623,-998.582,3.175,-0.231,-0.180
-94.969,-120.627,-994.966,2.934,-0.253,-0.018
-95.755,-118.887,-991.381,1.546,-0.487,0.344
-90.392,-117.938,-991.139,-0.338,-0.789,0.418
-82.508,-120.490,-993.868,-1.547,-0.910,0.416
-77.604,-128.887,-993.404,-2.127,-0.866,0.485
-76.419,-138.556,-992.849,-1.972,-0.679,0.424
-79.282,-149.976,-995.757,-0.980,-0.361,0.222
-87.175,-154.642,-996.687,0.717,-0.095,0.089
-94.417,-147.943,-994.010,2.536,0.134,-0.050
-92.097,-134.974,-994.531,3.605,0.202,-0.136
-86.000,-127.000,-998.000,3.640,0.000,0.070
-84.710,-127.959,-996.267,2.316,-0.306,0.278
-87.840,-125.415,-996.503,0.423,-0.562,0.145
-90.799,-122.371,-996.643,-1.429,-0.767,-0.027
-90.054,-125.318,-995.127,-3.232,-0.897,0.100
-86.633,-136.456,-994.477,-4.077,-0.885,0.239
-84.854,-151.903,-994.128,-3.425,-0.726,0.192
-85.007,-153.522,-996.123,-1.424,-0.547,0.137
-84.160,-143.782,-996.040,1.018,-0.365,0.135
-80.930,-135.334,-996.732,2.869,-0.174,0.290
-77.923,-131.044,-995.617,3.580,-0.071,0.528
-79.381,-127.881,-991.263,3.065,-0.128,0.510
-82.203,-125.428,-991.291,2.007,-0.251,0.384
-84.850,-130.219,-989.784,0.811,-0.177,0.589
-87.341,-139.680,-984.266,-0.376,-0.240,0.861
-90.000,-154.000,-983.000,-1.050,-0.420,0.770
-92.078,-167.890,-985.463,-0.596,-0.369,0.528
-89.886,-168.582,-990.576,0.829,-0.209,0.248
-87.704,-156.181,-997.967,2.388,-0.012,-0.121
-85.660,-134.821,-1000.268,3.267,-0.035,-0.399
-83.519,-115.818,-1001.959,2.689,0.095,-0.177
-85.992,-108.274,-1003.602,1.263,0.289,0.607
-91.418,-110.384,-996.325,-0.428,0.127,0.978
-95.762,-117.281,-991.937,-2.396,0.073,0.837
-97.888,-131.255,-994.425,-3.213,-0.127,1.232
-96.240,-151.887,-996.494,-2.505,-0.412,1.868
-89.680,-158.241,-1001.158,-1.057,-0.310,1.913
-85.932,-148.827,-1007.878,1.187,0.023,1.833
-84.408,-137.407,-1013.353,3.207,0.241,2.278
-84.428,-125.227,-1014.851,3.505,0.102,2.693
-90.000,-118.000,-1011.000,2.590,-0.140,2.800
-92.862,-121.467,-1005.041,1.130,-0.322,3.206
-94.374,-134.459,-997.354,-0.966,-0.540,3.647
-94.806,-147.966,-991.375,-2.742,-0.855,3.768
-90.000,-158.414,-990.869,-3.231,-1.055,3.769
-85.531,-166.423,-991.086,-2.274,-1.024,3.653
-82.276,-165.832,-995.115,-0.368,-0.969,3.437
-79.861,-153.706,-995.697,1.528,-0.903,3.047
-78.153,-135.279,-990.303,2.746,-0.781,2.740
-75.714,-123.958,-987.162,2.962,-0.647,2.715
-72.254,-122.397,-980.136,2.203,-0.627,2.815
-70.047,-125.008,-976.964,0.694,-0.586,2.920
-73.011,-130.954,-977.734,-0.726,-0.393,2.755
-78.687,-136.456,-975.352,-1.665,-0.244,2.402
-82.332,-140.663,-977.713,-2.390,-0.114,1.960
-82.000,-146.000,-983.000,-2.310,0.140,1.610
-77.033,-152.395,-989.848,-1.108,0.500,1.380
-71.414,-151.130,-995.884,0.919,0.878,1.006
-73.229,-137.956,-999.106,2.995,1.167,0.793
-78.218,-124.332,-1001.985,4.029,1.356,0.774
-76.784,-119.389,-998.968,3.719,1.538,0.915
-75.045,-124.922,-995.630,2.372,1.607,1.066
-78.396,-133.624,-994.836,1.046,1.535,1.048
-84.504,-142.243,-991.200,0.566,1.537,1.051
-90.641,-151.568,-992.619,0.731,1.549,0.994
-96.415,-154.600,-997.928,1.368,1.471,0.973
-97.913,-151.586,-999.461,2.129,1.210,0.980
-91.741,-143.881,-1002.678,2.443,0.772,0.988
-88.904,-136.239,-1005.237,2.040,0.376,0.960
-90.203,-135.221,-1005.038,1.103,0.017,0.913
-92.000,-139.000,-1006.000,0.140,-0.280,0.980
-93.139,-146.016,-1005.250,-0.663,-0.576,0.875
-92.927,-149.486,-1003.577,-1.198,-0.909,0.632
-97.458,-145.928,-1001.054,-1.220,-1.074,0.415
-95.008,-139.100,-998.838,-1.022,-1.186,0.324
-85.673,-133.142,-999.354,-0.958,-1.285,0.384
-81.411,-132.174,-1001.250,-0.660,-1.237,0.529
-79.953,-132.959,-999.749,-0.018,-1.110,0.630
-79.994,-129.460,-997.073,0.590,-0.990,0.562
-80.449,-124.280,-996.474,0.930,-0.858,0.659
-84.346,-126.602,-992.994,0.433,-0.890,0.748
-86.872,-131.704,-991.436,-0.743,-1.149,0.560
-84.804,-131.043,-991.608,-1.576,-1.321,0.300
-82.039,-128.023,-991.141,-2.131,-1.429,0.091
-78.523,-125.979,-994.612,-2.557,-1.371,0.082
-77.000,-131.000,-996.000,-2.450,-1.120,0.140
-76.989,-138.632,-995.068,-1.880,-0.938,-0.026
-76.509,-136.538,-993.899,-0.777,-0.711,-0.298
-75.116,-133.776,-990.549,0.526,-0.455,-0.400
-78.977,-136.554,-990.190,1.122,-0.252,-0.470
-84.381,-133.946,-993.041,1.211,-0.225,-0.610
-83.564,-126.262,-995.194,1.129,-0.290,-0.608
-83.010,-121.900,-995.013,0.328,-0.361,-0.402
-82.133,-124.537,-997.644,-1.079,-0.548,-0.278
-81.572,-131.507,-1001.019,-2.364,-0.623,-0.392
-84.137,-136.640,-998.953,-3.047,-0.680,-0.472
-85.633,-140.541,-996.334,-2.892,-0.679,-0.532
-86.576,-147.475,-993.193,-2.301,-0.611,-0.569
-88.582,-150.877,-992.297,-1.552,-0.631,-0.705
-88.854,-143.509,-995.411,-0.354,-0.545,-1.012
-87.000,-136.000,-996.000,0.770,-0.560,-0.910
-85.166,-128.729,-997.517,1.013,-0.630,-0.762
-84.900,-117.145,-999.903,0.618,-0.621,-0.777
-84.326,-115.084,-998.981,-0.227,-0.669,-0.392
-81.528,-122.580,-995.856,-1.664,-0.753,-0.148
-83.680,-133.568,-993.531,-2.885,-0.879,-0.423
-88.978,-143.641,-996.931,-3.011,-0.802,-0.763
-91.112,-144.860,-997.873,-2.313,-0.699,-0.918
-92.860,-142.253,-996.073,-1.397,-0.705,-1.040
-94.033,-138.020,-995.169,-0.708,-0.620,-1.121
-92.509,-134.755,-995.993,-0.616,-0.831,-1.139
-88.359,-131.737,-1000.332,-0.835,-1.150,-1.279
-86.590,-127.661,-997.538,-0.986,-1.191,-1.142
-85.470,-132.427,-994.771,-1.459,-1.329,-0.837
-85.314,-141.299,-994.839,-2.205,-1.567,-0.770
-89.000,-149.000,-994.000,-2.590,-1.610,-0.840
-89.284,-151.351,-995.919,-2.336,-1.549,-1.031
-87.513,-148.530,-995.040,-1.537,-1.488,-1.054
-85.055,-145.856,-996.170,-0.733,-1.452,-1.165
-80.131,-135.185,-995.834,-0.309,-1.510,-1.499
-75.417,-125.190,-993.401,-0.208,-1.534,-1.487
-74.040,-122.764,-995.448,-0.422,-1.443,-1.287
-75.062,-123.107,-994.830,-0.717,-1.322,-1.106
-75.861,-124.040,-992.223,-0.892,-1.261,-0.981
-79.067,-123.561,-989.388,-1.279,-1.263,-1.036
-82.338,-127.598,-988.659,-1.732,-1.225,-1.052
-83.442,-133.773,-988.983,-1.880,-1.096,-1.117
-81.581,-138.782,-991.549,-1.836,-0.878,-1.392
-76.320,-134.317,-996.049,-1.334,-0.738,-1.440
-74.136,-126.448,-998.453,-0.800,-0.604,-1.231
-79.000,-128.000,-1002.000,-0.980,-0.490,-1.190
-84.660,-127.265,-999.767,-1.411,-0.554,-1.312
-84.040,-128.409,-996.735,-1.751,-0.518,-1.361
-80.745,-133.670,-997.143,-1.843,-0.469,-1.198
-80.618,-139.190,-993.089,-1.585,-0.535,-1.114
-87.010,-144.276,-990.651,-1.302,-0.723,-1.416
-90.854,-141.998,-994.032,-1.056,-0.935,-1.825
-84.409,-138.885,-999.450,-0.663,-0.825,-1.879
-80.907,-138.079,-1004.724,-0.170,-0.763,-1.687
-84.039,-135.439,-1005.576,0.061,-0.890,-1.767
-88.360,-126.362,-1002.075,0.022,-0.953,-1.925
-91.507,-117.236,-999.415,-0.388,-1.028,-1.721
-89.394,-119.140,-998.830,-1.276,-1.059,-1.419
-86.446,-126.208,-1000.471,-1.988,-1.179,-1.311
-85.810,-132.952,-999.563,-2.257,-1.439,-1.251
-82.000,-137.000,-997.000,-2.170,-1.610,-1.260
-78.883,-136.426,-998.603,-1.875,-1.618,-1.383
-81.312,-132.510,-1000.077,-1.400,-1.559,-1.459
-82.174,-128.076,-999.189,-0.708,-1.471,-1.458
-82.491,-126.435,-998.661,-0.405,-1.326,-1.289
-84.966,-125.342,-998.780,-0.594,-1.391,-1.190
-87.874,-122.146,-997.616,-0.915,-1.562,-1.383
-93.438,-119.997,-996.986,-1.298,-1.537,-1.466
-96.074,-122.652,-995.257,-2.029,-1.599,-1.338
-93.643,-127.666,-993.444,-2.798,-1.731,-1.314
-91.056,-134.244,-997.034,-2.743,-1.798,-1.382
-88.156,-139.892,-996.713,-2.040,-1.833,-1.449
-86.495,-138.653,-993.837,-1.082,-1.808,-1.639
-85.580,-137.118,-994.134,-0.151,-1.830,-1.777
-83.760,-140.639,-993.872,0.585,-1.814,-1.932
-83.000,-142.000,-993.000,0.980,-1.820,-2.380
-82.875,-136.307,-993.776,1.172,-1.887,-2.769
-84.536,-127.977,-994.235,1.035,-1.883,-2.867
-84.425,-123.032,-993.992,0.256,-1.955,-2.851
-81.344,-121.473,-995.107,-0.645,-2.119,-2.698
-78.815,-122.836,-993.257,-1.882,-2.145,-2.560
-73.989,-125.571,-997.332,-2.117,-1.889,-2.476
-75.434,-127.032,-998.811,-1.043,-1.668,-2.066
-79.954,-125.302,-996.988,-0.277,-1.430,-1.886
-78.930,-120.947,-995.237,0.870,-0.991,-1.827
-80.587,-115.575,-991.688,1.430,-0.749,-1.471
-80.358,-107.048,-992.903,1.120,-0.665,-1.328
-80.131,-120.767,-980.481,0.530,-0.994,-1.082
-75.483,-147.063,-991.295,-0.600,-1.353,-1.640
-71.919,-127.147,-1005.169,0.779,-0.697,-2.488
-92.000,-97.000,-986.000,3.150,-0.140,-1.750
-100.672,-103.240,-995.062,1.298,-0.387,-1.006
-86.227,-123.321,-1001.468,-1.197,-0.357,-1.014
-86.612,-141.294,-993.330,-0.668,-0.210,-1.212
-94.899,-135.530,-1002.989,-0.339,-0.405,-1.610
-97.524,-125.556,-1002.450,-0.331,-0.507,-1.607
-96.340,-134.487,-994.651,-0.078,-0.594,-1.254
-94.025,-137.836,-994.210,-0.607,-0.785,-1.205
-97.689,-134.246,-996.954,-0.905,-1.026,-1.520
-97.956,-132.626,-995.979,-0.974,-1.348,-1.578
-94.290,-136.323,-998.268,-0.840,-1.468,-1.392
-93.923,-137.972,-1000.751,-0.528,-1.494,-1.238
-91.631,-131.354,-1001.692,-0.498,-1.576,-1.210
-89.366,-123.775,-1004.143,-0.489,-1.626,-1.368
-85.110,-118.569,-1000.285,-0.688,-1.688,-1.213
-81.000,-120.000,-999.000,-1.260,-1.680,-0.980
-81.907,-124.311,-999.253,-1.735,-1.621,-1.036
-81.271,-128.989,-996.828,-1.510,-1.516,-1.102
-81.377,-129.145,-994.252,-0.873,-1.372,-1.171
-82.413,-121.235,-993.880,-0.211,-1.312,-1.176
-83.797,-115.421,-993.456,0.123,-1.354,-1.075
-86.480,-113.811,-994.797,-0.179,-1.407,-0.955
-86.995,-114.091,-999.180,-0.661,-1.398,-0.910
-87.013,-116.661,-998.128,-0.845,-1.338,-0.855
-86.807,-122.563,-999.233,-0.626,-1.215,-0.559
-88.901,-126.096,-1000.207,-0.374,-1.142,-0.393
-90.315,-121.162,-996.157,-0.101,-1.051,-0.482
-87.483,-116.588,-994.290,-0.056,-0.962,-0.462
-85.564,-117.870,-993.957,-0.634,-1.110,-0.413
-83.651,-122.986,-995.262,-1.074,-1.186,-0.425
-82.000,-129.000,-996.000,-0.840,-1.120,-0.490
-81.096,-129.420,-995.929,-0.389,-1.065,-0.555
-82.339,-126.574,-996.629,-0.358,-0.942,-0.601
-89.123,-125.189,-997.714,-0.555,-0.867,-0.694
-93.378,-125.406,-996.745,-0.741,-0.799,-0.652
-92.540,-128.095,-994.274,-1.000,-0.779,-0.503
-91.642,-128.852,-996.752,-1.030,-0.858,-0.406
-87.613,-127.963,-997.971,-0.816,-0.914,-0.426
-84.962,-127.137,-997.964,-0.385,-0.977,-0.489
-86.043,-125.719,-996.830,-0.124,-0.982,-0.479
-85.399,-129.836,-993.664,-0.291,-1.013,-0.610
-89.174,-137.791,-994.912,-0.376,-1.102,-0.845
-95.388,-139.333,-993.704,-0.280,-1.121,-1.119
-95.198,-130.589,-993.477,0.190,-1.119,-1.387
-90.075,-120.867,-996.325,0.658,-1.123,-1.292
-85.000,-117.000,-997.000,0.350,-1.190,-1.050
-83.969,-119.043,-996.232,-0.212,-1.258,-0.985
-83.457,-126.795,-995.975,-0.535,-1.225,-0.932
-82.503,-131.976,-999.348,-0.385,-1.071,-0.889
-83.970,-134.047,-994.980,0.414,-0.896,-0.964
-85.635,-134.802,-988.312,1.101,-0.806,-1.112
-88.989,-130.681,-990.888,1.173,-0.666,-1.309
-92.062,-124.547,-993.075,1.119,-0.636,-1.477
-90.226,-119.340,-993.939,1.003,-0.762,-1.475
-88.225,-115.624,-994.667,0.589,-0.828,-1.418
-86.813,-113.847,-996.738,0.242,-0.889,-1.279
-85.303,-114.936,-999.086,-0.064,-0.923,-1.076
-87.201,-116.877,-1000.201,-0.441,-0.874,-1.062
-89.707,-120.426,-999.353,-0.566,-0.717,-1.019
-92.439,-125.733,-998.055,-0.462,-0.625,-0.895
-94.000,-129.000,-1000.000,-0.070,-0.560,-0.840
-94.712,-130.186,-1000.072,0.663,-0.424,-0.786
-96.235,-126.218,-1000.550,1.111,-0.512,-0.626
-94.203,-119.426,-1001.171,0.990,-0.617,-0.450
-92.049,-118.569,-1000.051,0.602,-0.672,-0.383
-90.113,-125.022,-997.801,-0.078,-0.832,-0.206
-89.038,-132.305,-995.564,-0.638,-0.924,-0.266
-90.059,-133.906,-993.824,-0.529,-0.984,-0.578
-90.861,-131.215,-991.981,0.025,-0.984,-0.634
-93.470,-129.865,-994.860,0.530,-0.923,-0.570
-94.778,-130.097,-998.873,1.020,-0.864,-0.581
-95.600,-124.648,-1001.012,1.610,-0.803,-0.710
-95.760,-113.886,-1001.944,1.705,-0.738,-0.619
-94.844,-106.523,-1000.050,1.188,-0.699,-0.464
-94.979,-107.771,-996.488,0.166,-0.791,-0.400
-94.000,-116.000,-995.000,-0.910,-0.910,-0.210
-93.134,-125.636,-995.174,-1.164,-0.922,-0.201
-92.105,-132.902,-993.301,-0.604,-0.803,-0.246
-92.850,-133.770,-993.354,0.221,-0.753,-0.468
-94.999,-129.498,-993.290,0.930,-0.764,-0.734
-94.228,-128.092,-991.369,1.521,-0.655,-0.657
-89.598,-128.860,-993.757,1.566,-0.636,-0.746
-82.463,-125.778,-994.903,1.313,-0.627,-0.917
-78.042,-127.524,-993.040,1.013,-0.625,-0.973
-81.923,-133.328,-993.930,0.615,-0.695,-1.130
-91.375,-135.530,-991.168,0.350,-0.698,-1.455
-95.559,-139.647,-987.161,-0.261,-0.687,-1.815
-93.981,-138.165,-993.834,-0.351,-0.577,-1.876
-93.079,-134.452,-998.322,-0.398,-0.726,-1.820
-95.380,-133.522,-999.565,-1.153,-1.089,-2.001
-94.000,-126.000,-1004.000,-1.400,-1.120,-2.170
-88.365,-120.209,-1002.376,-1.628,-1.109,-1.890
-89.193,-121.467,-1001.343,-1.769,-1.184,-1.519
-90.410,-127.846,-998.019,-1.289,-1.140,-1.408
-89.643,-132.791,-995.003,-0.356,-0.906,-1.186
-87.777,-130.523,-995.570,0.761,-0.737,-1.028
-83.027,-125.809,-990.805,1.540,-0.784,-1.158
-82.075,-120.704,-991.335,1.819,-0.765,-1.181
-82.986,-120.722,-994.910,1.507,-0.704,-0.991
-82.905,-124.562,-995.620,1.027,-0.643,-1.007
-84.811,-124.647,-996.930,0.429,-0.621,-1.146
-91.649,-123.155,-996.089,-0.357,-0.635,-1.020
-95.869,-123.281,-995.962,-1.311,-0.640,-1.009
-92.802,-126.652,-994.249,-2.289,-0.731,-1.025
-90.873,-136.978,-994.432,-2.572,-0.770,-0.807
-89.000,-148.000,-997.000,-1.890,-0.770,-0.770
-86.165,-148.099,-999.253,-0.238,-0.723,-1.008
-86.513,-136.395,-1003.100,1.693,-0.537,-1.161
-88.100,-118.066,-1000.790,2.854,-0.462,-0.888
-90.375,-106.109,-999.553,2.640,-0.530,-0.504
-92.560,-106.045,-996.224,1.316,-0.575,-0.107
-91.509,-113.155,-995.331,-0.080,-0.654,0.382
-89.980,-124.983,-994.801,-1.034,-0.782,0.641
-90.896,-136.340,-993.809,-1.397,-0.966,0.702
-91.879,-141.044,-995.174,-1.180,-1.064,0.594
-91.773,-139.539,-996.764,-0.405,-0.922,0.525
-88.798,-138.910,-1003.198,0.653,-0.719,0.627
-86.430,-138.501,-998.281,1.658,-0.567,0.581
-87.207,-134.059,-1003.334,2.824,-0.455,0.474
-87.104,-125.746,-998.180,3.826,-0.333,0.590
-91.000,-120.000,-996.000,4.200,-0.280,0.770
-94.125,-114.130,-997.528,4.106,-0.171,0.936
-91.870,-108.501,-993.052,3.646,-0.006,1.296
-88.997,-107.506,-1003.642,2.817,-0.044,1.524
-88.351,-107.298,-994.988,1.624,-0.089,1.560
-92.574,-111.899,-1008.867,0.252,-0.186,1.630
-90.950,-112.993,-1001.878,-0.718,-0.188,1.604
-86.790,-117.612,-1003.199,-0.984,-0.065,1.690
-85.014,-122.882,-999.019,-0.985,-0.069,1.694
-88.370,-126.195,-988.313,-0.745,-0.065,1.447
-93.695,-132.438,-997.524,-0.265,-0.145,1.307
-94.769,-129.880,-973.128,-0.355,-0.328,1.130
-98.069,-130.820,-1003.472,-0.650,-0.468,0.867
-92.871,-129.770,-979.026,-0.626,-0.504,0.747
-91.077,-137.777,-1001.264,-0.801,-0.659,0.589
-87.000,-141.000,-997.000,-0.700,-0.700,0.210
-89.098,-141.897,-989.174,-0.159,-0.625,-0.101
-97.283,-139.752,-1022.703,0.437,-0.650,-0.393
-94.252,-120.320,-961.394,0.956,-0.614,-0.579
-104.803,-127.234,-1046.794,0.775,-0.845,-0.316
-93.378,-113.450,-935.705,0.060,-0.905,-0.218
-101.157,-130.865,-1061.940,-0.511,-1.139,-0.166
-88.303,-119.898,-948.352,-0.461,-1.067,0.080
-4.596,-6.349,-49.629,-0.021,-0.057,0.010
