acc_x[mg],acc_y[mg],acc_z[mg],gyro_x[dps],gyro_y[dps],gyro_z[dps]
-803.000,706.000,5.000,-26.110,-17.640,4.130
-813.326,620.335,-2.521,-30.519,-18.537,4.397
-720.455,471.742,5.325,-24.443,-16.671,5.229
-792.826,521.861,27.220,-18.650,-17.459,7.048
-740.785,467.677,37.293,-8.568,-14.440,8.923
-821.784,567.094,39.575,-4.150,-14.311,12.047
-786.643,598.390,54.201,-1.947,-12.264,13.654
-789.203,653.938,61.601,-2.830,-11.028,15.590
-794.190,647.731,51.377,-4.888,-9.921,17.741
-793.082,617.763,55.361,-7.126,-9.548,18.362
-806.526,644.314,54.739,-6.093,-10.867,17.649
-781.573,650.439,37.082,-2.740,-11.042,18.021
-792.383,655.565,16.133,-3.756,-11.601,20.039
-772.161,611.020,-0.674,-3.198,-11.428,21.061
-808.492,595.907,0.046,-1.620,-11.348,21.737
-834.000,580.000,6.000,0.840,-11.270,22.120
-841.856,609.196,1.469,5.019,-12.042,22.748
-850.490,630.345,-6.933,7.137,-12.984,24.393
-838.495,597.938,-8.643,6.928,-13.188,25.385
-834.801,584.001,-13.012,5.802,-14.373,24.657
-808.147,560.021,-11.554,5.630,-15.189,22.741
-810.888,556.925,-2.901,5.438,-15.794,20.981
-810.144,558.183,-6.382,4.825,-16.813,19.495
-805.786,571.736,-5.356,2.471,-17.794,18.520
-797.348,570.365,-5.796,-2.093,-18.187,18.192
-759.564,538.855,-17.933,-6.136,-18.319,17.862
-734.601,511.073,-31.234,-8.121,-18.832,17.490
-740.310,482.290,-41.574,-8.465,-20.110,17.300
-774.175,469.402,-39.759,-11.774,-23.812,16.795
-771.052,478.833,-42.054,-16.649,-28.242,14.614
-717.000,504.000,-43.000,-17.780,-28.910,12.110
-666.732,534.605,-23.629,-18.147,-26.319,11.681
-640.395,586.667,-0.331,-19.860,-24.157,12.234
-644.758,645.351,31.412,-22.498,-23.045,12.275
-683.223,721.442,57.877,-24.652,-23.176,11.921
-732.645,813.223,55.254,-25.417,-24.572,12.226
-756.053,850.707,63.632,-28.422,-25.383,13.090
-751.378,845.288,84.859,-30.613,-26.299,12.744
-748.921,834.456,79.143,-26.398,-28.219,12.295
-741.447,797.760,70.438,-20.471,-29.131,12.900
-700.985,723.332,76.128,-16.450,-28.862,12.369
-659.733,658.524,84.407,-10.467,-28.376,10.788
-658.004,643.523,96.864,-2.754,-27.668,9.713
-678.344,669.019,104.756,2.457,-27.174,8.714
-692.299,695.652,112.475,3.809,-26.638,7.871
-689.000,699.000,118.000,2.030,-25.900,7.070
-662.737,692.616,112.547,-0.005,-25.128,6.075
-639.307,693.477,115.562,-1.267,-24.062,5.455
-638.876,702.881,127.775,-3.567,-22.661,5.059
-652.386,710.784,142.289,-6.676,-21.243,4.963
-672.557,718.781,159.142,-9.963,-20.076,4.924
-680.729,715.147,167.935,-12.727,-18.912,4.854
-668.902,695.496,166.740,-12.926,-17.927,5.379
-666.623,686.465,164.910,-10.484,-17.312,6.118
-708.042,714.849,168.182,-6.382,-17.594,6.266
-780.069,775.535,169.732,-2.515,-18.829,5.501
-810.601,789.993,167.262,-3.269,-18.966,4.523
-763.662,733.337,164.984,-7.686,-17.646,3.432
-694.865,664.599,161.805,-9.468,-16.301,2.185
-659.349,627.675,158.820,-6.851,-15.633,1.743
-664.000,643.000,161.000,-3.850,-15.750,2.030
-688.048,683.046,160.027,-5.279,-16.138,2.816
-698.158,717.213,153.903,-10.879,-16.108,3.168
-706.776,735.009,157.704,-18.666,-16.828,2.307
-734.488,727.951,155.976,-29.466,-21.109,0.744
-740.033,704.439,148.729,-39.796,-25.984,-1.730
-719.411,692.490,161.525,-44.074,-26.030,-3.864
-711.972,697.087,182.566,-43.249,-22.994,-4.736
-707.962,683.135,203.390,-40.644,-20.027,-5.286
-689.044,650.511,221.798,-36.313,-17.177,-5.567
-671.006,610.910,233.694,-29.148,-14.414,-5.715
-667.256,580.694,239.643,-19.312,-11.964,-5.636
-677.218,592.879,237.359,-8.772,-9.645,-5.134
-699.278,630.143,233.726,-0.885,-7.647,-4.759
-715.168,673.096,226.827,2.622,-6.238,-4.881
-712.000,723.000,223.000,1.540,-4.760,-5.460
-700.592,771.894,223.604,-3.677,-3.369,-6.558
-694.538,795.045,232.327,-11.733,-2.818,-8.271
-696.161,775.358,248.980,-21.307,-3.381,-9.975
-681.929,733.245,244.865,-28.625,-4.436,-11.551
-653.414,672.065,235.569,-29.994,-4.150,-12.576
-639.448,605.890,230.336,-25.324,-2.760,-12.431
-641.670,555.722,223.775,-15.788,-1.682,-12.010
-657.419,526.706,223.977,-3.079,-0.890,-11.468
-678.281,540.774,225.451,10.696,-0.367,-10.676
-697.720,598.763,232.614,23.279,-0.065,-9.843
-703.470,668.515,217.577,32.218,-0.311,-8.384
-686.905,710.311,191.251,34.742,-0.749,-6.480
-674.293,751.330,194.841,30.687,-0.125,-5.191
-665.345,822.963,208.710,24.467,0.712,-5.276
-656.000,859.000,212.000,17.780,0.840,-6.020
-647.031,823.531,201.466,7.550,0.648,-6.050
-638.475,773.229,201.969,-4.242,0.861,-6.223
-664.040,737.495,220.450,-11.134,1.943,-7.342
-698.343,679.342,230.730,-12.715,3.148,-7.960
-701.151,610.942,232.254,-11.389,4.321,-7.679
-696.307,574.935,235.331,-6.763,5.638,-7.137
-696.204,571.750,247.118,0.227,7.195,-6.376
-704.905,592.768,254.515,8.054,8.372,-5.583
-718.256,625.985,231.875,16.016,8.027,-5.084
-720.463,664.706,194.610,21.486,7.527,-5.058
-716.722,676.739,176.744,21.628,8.043,-5.190
-722.694,648.248,170.015,18.818,8.793,-5.575
-744.826,628.257,169.252,18.535,9.136,-6.728
-764.917,636.156,179.598,20.979,8.805,-8.186
-765.000,650.000,185.000,22.540,8.400,-9.030
-753.844,661.486,192.162,21.793,8.730,-8.880
-741.794,666.605,202.706,20.625,9.192,-8.662
-729.556,655.668,203.467,20.969,9.286,-8.628
-720.993,635.674,199.185,21.529,9.250,-8.019
-721.737,618.686,184.092,22.787,8.519,-7.825
-736.010,618.242,156.777,25.857,7.610,-8.393
-748.414,620.714,141.652,27.538,7.350,-8.606
-748.921,615.871,142.942,27.366,7.596,-8.474
-754.305,626.455,137.174,28.045,7.975,-8.610
-756.334,635.931,122.092,28.394,7.682,-8.763
-745.401,630.188,111.278,25.873,6.987,-8.088
-739.636,623.900,108.776,21.504,6.411,-7.233
-741.940,635.850,112.826,17.046,6.077,-7.105
-742.529,674.828,123.033,12.631,5.751,-7.604
-730.000,710.000,137.000,8.330,5.460,-8.330
-706.224,709.309,138.616,3.646,5.295,-7.950
-692.487,662.931,122.184,0.039,4.969,-6.640
-697.198,602.098,104.400,-0.194,4.824,-5.860
-720.479,583.366,99.008,2.516,4.624,-6.257
-747.912,622.051,106.697,6.459,4.240,-7.420
-752.591,677.917,110.676,8.707,3.641,-7.373
-737.615,692.008,104.548,7.565,3.442,-5.814
-719.347,658.409,102.874,3.863,3.635,-4.403
-707.019,617.214,106.207,1.252,3.654,-4.185
-716.616,595.417,118.494,0.368,2.952,-4.496
-736.262,597.122,132.891,-3.179,-0.902,-4.385
-740.996,604.570,140.683,-9.116,-6.508,-4.495
-733.485,609.247,147.444,-15.896,-11.606,-4.226
-714.774,632.029,127.378,-21.910,-13.928,-3.156
-704.000,666.000,111.000,-28.910,-10.780,-1.260
-715.900,693.629,127.563,-40.879,-6.303,0.577
-723.743,738.428,136.692,-50.440,-2.899,-0.364
-724.195,766.848,149.156,-54.158,0.127,-1.316
-719.958,712.980,162.116,-57.808,1.978,0.196
-699.828,603.682,163.050,-59.222,3.271,0.778
-684.548,497.608,163.680,-51.680,4.260,-0.500
-696.910,424.021,157.489,-34.496,5.107,-1.742
-729.274,409.688,157.463,-12.733,6.014,-2.029
-762.484,479.283,166.709,10.062,7.105,-2.165
-785.547,596.846,176.785,30.676,7.901,-2.306
-788.818,693.519,187.083,44.336,8.386,-1.468
-764.808,744.516,189.643,49.395,9.560,-0.687
-731.719,758.200,184.288,48.953,10.350,-1.292
-713.157,766.145,177.098,45.703,10.329,-2.278
-708.000,762.000,150.000,39.550,9.800,-2.520
-721.328,748.224,120.838,33.653,8.926,-2.588
-743.790,734.990,118.593,27.044,8.241,-2.309
-753.775,698.380,114.378,17.054,6.827,-1.778
-767.385,699.763,96.209,9.831,5.568,-2.267
-777.842,721.823,86.634,4.416,5.675,-2.375
-773.512,700.678,104.975,-3.466,5.856,-1.398
-768.590,688.717,105.668,-7.476,5.166,-1.208
-756.588,670.218,86.730,-6.507,3.990,-1.167
-731.530,613.860,84.167,-6.591,3.645,-0.215
-716.233,554.670,83.959,-4.361,3.928,0.298
-726.821,527.185,90.113,3.940,3.764,0.002
-741.142,545.453,91.086,12.770,3.621,0.193
-741.963,595.275,104.021,19.104,3.926,0.826
-742.060,644.480,128.246,20.027,4.335,1.624
-755.000,655.000,159.000,12.600,2.310,2.590
-739.767,658.953,135.652,2.267,-2.538,2.349
-710.503,660.101,107.120,-5.517,-4.618,2.200
-722.554,607.859,204.724,-16.602,-5.736,3.482
-715.340,579.707,183.376,-32.592,-9.554,4.193
-700.622,622.115,63.202,-38.841,-8.613,5.512
-720.436,665.472,65.904,-37.036,-3.676,8.368
-738.264,704.181,75.779,-38.796,-1.292,10.476
-756.808,732.732,85.415,-41.603,-0.130,11.624
-762.174,706.856,96.577,-46.816,0.016,12.086
-758.135,638.642,98.304,-53.661,-0.071,11.401
-761.933,595.238,113.382,-55.342,0.501,9.380
-769.929,617.017,128.697,-50.201,0.623,6.732
-770.842,641.820,159.163,-42.599,0.532,5.415
-748.942,617.788,170.169,-36.913,0.602,5.666
-731.000,569.000,175.000,-30.100,1.120,5.460
-729.634,533.098,184.390,-19.422,1.282,3.757
-731.798,554.242,187.380,-5.142,1.220,1.919
-730.801,607.556,193.260,8.801,1.266,1.484
-725.154,626.762,194.603,16.704,0.886,2.215
-714.611,630.023,184.839,20.028,0.817,2.789
-712.139,651.053,173.697,22.344,1.126,2.685
-727.491,656.371,174.979,22.341,1.503,2.667
-744.920,647.897,163.470,19.491,1.873,2.496
-755.599,660.346,149.151,16.757,1.958,1.660
-758.939,677.010,145.973,13.631,2.023,1.100
-757.239,680.498,145.916,9.063,2.266,1.011
-750.078,677.650,156.254,4.787,2.623,0.752
-745.159,678.101,159.917,1.625,2.958,0.249
-742.201,669.631,160.427,-0.024,3.188,-0.280
-736.000,654.000,164.000,-0.560,3.500,-0.630
-734.164,657.443,168.456,0.666,3.494,-1.252
-733.685,679.049,163.339,4.729,2.908,-2.272
-741.214,693.595,132.502,9.718,2.473,-2.794
-744.276,674.067,103.205,13.649,2.278,-2.748
-733.563,641.449,92.580,16.780,2.133,-2.759
-730.051,624.821,112.675,19.372,2.061,-2.905
-730.998,627.945,146.778,19.388,1.471,-2.928
-728.481,644.740,149.779,15.646,0.545,-2.443
-718.149,657.832,142.071,10.539,0.152,-1.486
-705.817,664.096,144.550,6.281,0.169,-0.610
-700.150,662.775,147.033,3.244,0.349,-0.010
-701.692,672.976,143.497,1.306,0.769,0.331
-711.269,687.976,137.505,-0.486,1.159,0.443
-720.170,685.927,134.502,-3.190,1.531,0.489
-728.000,675.000,130.000,-5.740,1.890,0.280
-735.879,653.803,128.062,-6.587,2.146,-0.207
-743.474,629.650,126.354,-6.016,2.093,-0.606
-750.804,612.957,120.985,-3.577,1.599,-0.885
-753.661,623.700,114.929,1.059,1.534,-1.061
-748.690,648.144,115.531,5.352,2.057,-1.144
-734.297,658.324,124.002,7.695,2.888,-1.088
-722.391,658.474,129.200,9.288,4.002,-0.896
-716.396,640.880,130.033,10.575,4.849,-0.718
-714.604,619.278,129.722,11.111,5.392,-0.412
-725.633,610.326,131.713,11.724,5.385,-0.331
-740.870,616.696,130.080,12.727,4.769,-0.558
-750.450,631.732,124.850,12.965,4.334,-0.484
-752.957,643.355,124.273,11.704,4.291,-0.305
-750.493,656.025,126.471,9.337,4.526,-0.202
-745.000,668.000,130.000,6.930,4.760,-0.350
-735.269,678.836,131.817,4.901,4.929,-0.674
-730.750,677.640,132.166,3.352,5.184,-0.742
-732.825,651.574,123.907,2.978,4.866,-0.948
-737.798,619.665,110.131,4.293,4.042,-1.321
-741.906,602.490,107.180,7.415,3.772,-1.671
-741.767,605.813,109.515,11.769,4.084,-1.815
-740.882,631.532,112.243,16.198,4.510,-1.587
-736.555,663.049,114.027,18.897,4.754,-1.227
-728.578,680.432,112.536,18.167,4.763,-0.628
-724.561,680.550,108.819,15.087,4.710,-0.196
-731.446,670.514,100.540,11.806,4.356,-0.090
-742.127,668.140,95.663,8.778,3.805,-0.114
-743.217,670.859,94.373,6.078,3.257,-0.334
-739.523,678.957,91.830,3.688,2.732,-0.152
-736.000,692.000,94.000,0.980,2.450,0.140
-726.792,695.845,95.167,-2.124,2.268,0.190
-717.126,694.470,94.690,-4.866,2.091,0.378
-716.795,673.070,94.771,-6.675,1.839,0.448
-721.456,631.915,89.837,-7.282,1.502,0.633
-727.812,598.023,86.121,-5.715,1.222,0.917
-738.660,588.413,86.273,-1.538,0.916,0.901
-748.623,606.015,89.299,3.274,0.847,1.075
-753.879,634.871,91.108,6.445,0.976,1.384
-751.479,655.896,88.440,6.776,0.935,1.524
-745.565,658.227,87.820,4.682,0.825,1.504
-745.710,656.330,88.153,2.355,0.653,1.122
-747.094,659.637,90.662,0.688,0.517,0.631
-744.964,662.782,95.235,-0.665,0.461,0.367
-740.163,662.451,97.113,-1.668,0.244,0.367
-736.000,654.000,97.000,-2.240,0.210,0.560
-735.871,643.343,96.917,-2.290,0.463,0.696
-736.554,636.384,96.760,-1.653,0.510,0.656
-739.024,632.585,93.347,-0.568,0.475,0.607
-742.110,632.812,91.406,0.259,0.498,0.672
-741.435,640.162,90.100,0.985,0.496,0.709
-742.395,643.982,86.014,1.440,0.580,0.804
-741.722,643.107,82.831,1.233,0.551,0.910
-737.196,647.563,82.774,0.872,0.425,0.784
-738.134,653.943,87.724,0.350,0.409,0.648
-740.409,663.490,91.586,-0.297,0.499,0.579
-737.642,665.798,92.318,-1.366,0.636,0.555
-731.729,663.539,93.961,-2.606,0.580,0.534
-723.482,669.165,96.909,-2.962,0.612,0.359
-720.026,673.013,97.875,-3.042,0.968,0.284
-723.000,665.000,96.000,-3.360,1.190,0.350
-728.671,642.840,95.881,-3.523,1.195,0.247
-738.925,622.427,96.630,-2.792,1.143,-0.041
-746.194,624.958,98.565,0.047,1.069,-0.356
-745.582,656.490,101.357,4.152,1.057,-0.598
-735.709,689.483,101.676,6.470,1.187,-0.412
-717.937,702.249,97.630,5.802,1.362,0.207
-708.917,695.699,90.470,3.592,1.397,0.412
-715.121,670.112,85.268,1.323,1.217,0.164
-729.204,650.691,83.087,0.563,0.744,-0.229
-743.950,647.062,83.526,1.599,0.387,-0.705
-746.482,647.582,84.798,2.396,0.341,-0.676
-739.824,652.409,87.522,2.441,0.394,-0.336
-737.688,655.396,90.809,2.440,0.647,-0.056
-734.118,657.649,92.124,2.178,0.771,0.162
-730.000,663.000,92.000,1.680,0.770,0.210
-733.290,661.975,89.415,0.922,0.837,0.269
-736.430,654.272,87.487,-0.101,0.834,0.297
-738.936,647.818,85.230,-0.567,0.857,0.206
-742.526,644.744,83.573,-0.069,0.809,0.060
-742.526,648.003,86.420,0.336,0.910,-0.011
-741.849,655.790,89.568,-0.181,1.070,0.002
-740.919,662.421,91.062,-1.047,1.130,0.002
-740.101,665.068,91.864,-2.074,1.379,0.124
-736.517,662.538,94.584,-3.305,1.584,0.329
-730.067,660.558,92.951,-3.603,1.645,0.287
-728.861,652.962,84.871,-2.777,1.452,0.129
-731.145,640.659,80.546,-1.788,1.118,0.159
-737.575,634.318,76.447,-0.692,0.932,-0.014
-747.397,628.214,72.714,0.553,0.733,-0.228
-753.000,631.000,72.000,2.170,0.420,-0.350
-750.997,647.082,69.504,3.992,0.047,-0.502
-743.152,664.174,66.140,4.637,-0.201,-0.242
-737.859,663.992,62.357,3.598,-0.544,-0.023
-736.202,641.821,60.218,1.689,-1.035,0.042
-738.400,633.379,62.806,0.823,-1.526,0.021
-742.283,653.091,72.643,1.748,-1.959,-0.268
-737.409,679.663,80.218,2.205,-1.948,-0.184
-731.309,686.680,80.011,0.612,-1.944,0.247
-727.072,670.405,81.524,-2.091,-2.203,0.551
-724.784,652.838,82.642,-3.935,-2.257,0.374
-733.179,638.778,84.892,-3.885,-2.213,-0.000
-741.949,637.902,91.128,-2.648,-2.102,-0.078
-742.205,651.999,98.000,-1.303,-1.885,-0.043
-735.634,666.806,100.928,-0.477,-1.546,0.281
-726.000,669.000,97.000,-0.350,-1.120,0.700
-720.949,659.194,93.427,-0.876,-0.920,0.842
-726.205,653.818,89.618,-1.343,-0.898,0.714
-739.360,646.455,84.903,-1.049,-0.986,0.462
-745.298,647.891,84.080,-0.464,-1.072,0.426
-740.677,658.059,85.535,-0.131,-0.887,0.400
-737.652,658.521,86.036,-0.295,-0.770,0.457
-736.941,656.827,87.154,-0.811,-0.843,0.638
-736.076,652.383,88.121,-1.238,-0.778,0.632
-734.521,649.914,84.733,-1.395,-0.754,0.675
-732.615,650.248,84.264,-1.427,-0.798,0.763
-734.764,654.241,89.507,-1.541,-0.670,0.748
-737.649,661.889,93.192,-1.505,-0.458,0.656
-734.339,662.971,94.339,-1.616,-0.195,0.633
-729.449,666.938,96.315,-1.822,0.024,0.522
-727.000,669.000,96.000,-1.540,0.140,0.210
-725.024,659.210,91.659,-1.387,0.319,0.245
-727.269,643.568,88.469,-1.388,0.473,0.416
-733.842,632.570,87.726,-0.589,0.492,0.381
-742.752,637.118,88.023,1.154,0.508,0.314
-747.705,647.666,85.998,2.721,0.597,0.282
-745.155,654.013,85.029,2.936,0.625,0.371
-742.843,658.518,84.954,2.170,0.554,0.340
-738.495,670.745,85.769,1.316,0.493,0.158
-732.848,684.458,88.220,0.695,0.485,-0.134
-728.567,687.495,85.585,-0.048,0.501,-0.362
-720.873,688.398,86.033,-1.332,0.454,-0.280
-717.011,679.219,86.034,-2.466,0.387,-0.344
-718.960,652.956,80.146,-2.693,0.194,-0.405
-726.786,629.565,76.674,-1.806,-0.206,-0.265
-741.000,628.000,76.000,0.350,-0.560,-0.280
-749.686,641.886,78.563,2.521,-0.701,-0.127
-747.262,652.703,80.506,3.059,-0.608,0.302
-739.522,659.332,83.082,2.079,-0.489,0.568
-734.588,664.805,86.828,0.895,-0.525,0.469
-729.949,671.282,88.305,0.287,-0.556,0.315
-728.299,668.794,87.616,-0.619,-0.468,0.365
-733.485,653.971,85.947,-1.659,-0.503,0.260
-738.705,648.057,86.051,-1.532,-0.752,-0.050
-741.007,645.501,83.702,-0.424,-0.859,-0.159
-740.002,639.221,82.319,0.610,-0.704,-0.033
-740.771,642.484,84.303,1.150,-0.557,-0.034
-742.073,655.033,85.189,1.961,-0.595,-0.235
-740.095,663.436,84.706,2.369,-0.622,-0.253
-736.361,663.996,84.005,1.698,-0.553,-0.132
-734.000,665.000,84.000,1.260,-0.630,-0.280
-737.440,663.408,79.789,1.362,-0.926,-0.539
-737.580,663.012,77.363,1.599,-1.221,-0.571
-731.725,665.228,79.712,1.399,-1.240,-0.583
-728.907,660.130,79.730,0.777,-1.158,-0.668
-729.210,651.616,80.481,0.177,-1.236,-0.565
-731.781,642.994,80.979,-0.600,-1.348,-0.386
-736.384,637.958,82.225,-1.062,-1.321,-0.271
-739.940,644.067,85.776,-0.938,-1.135,-0.148
-737.417,659.157,87.752,-0.498,-0.999,-0.083
-730.391,673.394,87.533,-0.523,-0.896,0.010
-725.131,673.732,81.978,-1.615,-0.771,0.160
-726.536,653.385,78.269,-2.979,-0.813,0.221
-734.991,633.060,80.950,-3.609,-0.958,0.047
-744.111,642.235,82.055,-2.336,-1.153,-0.421
-745.000,666.000,84.000,-0.140,-1.260,-0.560
-734.018,680.855,86.870,0.371,-1.028,-0.252
-723.594,680.250,86.378,-0.533,-0.832,-0.085
-720.343,663.090,85.416,-1.352,-0.923,-0.081
-723.668,650.024,83.947,-1.337,-1.035,-0.253
-734.495,636.548,80.541,-0.589,-1.199,-0.355
-745.165,621.977,77.506,0.165,-1.460,-0.262
-753.527,628.193,78.241,0.979,-1.612,-0.284
-754.502,649.069,82.680,1.725,-1.488,-0.285
-743.267,676.101,85.511,1.329,-1.285,-0.222
-729.495,695.055,88.507,-0.845,-1.216,-0.166
-719.075,693.959,91.006,-4.008,-1.136,-0.116
-717.267,678.338,88.528,-6.493,-1.153,-0.205
-721.237,658.004,86.320,-7.272,-1.314,-0.407
-727.420,641.495,80.858,-6.821,-1.502,-0.394
-741.000,624.000,76.000,-5.950,-1.750,-0.140
-751.417,621.495,79.931,-4.608,-1.948,-0.114
-750.847,647.432,88.034,-2.800,-1.862,-0.279
-742.412,673.898,96.906,-2.213,-1.406,-0.120
-730.380,685.119,99.556,-3.966,-1.032,0.257
-722.938,681.532,100.731,-6.115,-0.981,0.168
-722.074,662.702,100.169,-7.107,-0.976,-0.323
-723.133,639.308,93.490,-6.543,-0.982,-0.646
-726.607,620.995,89.197,-4.346,-1.043,-0.767
-731.354,616.735,87.749,-1.176,-1.119,-0.732
-732.645,634.137,90.588,2.380,-1.019,-0.538
-733.608,657.745,92.709,4.569,-0.707,-0.176
-732.905,669.666,91.139,4.303,-0.489,0.269
-728.825,670.055,89.400,2.646,-0.523,0.557
-729.544,662.600,87.943,0.778,-0.641,0.727
-734.000,655.000,89.000,-0.700,-0.630,0.910
-738.216,652.856,89.073,-1.480,-0.732,0.983
-743.186,655.968,89.465,-1.779,-0.993,0.967
-743.004,663.736,91.265,-2.237,-1.109,1.033
-738.138,671.828,92.801,-2.913,-1.137,1.031
-734.812,673.314,95.019,-3.918,-1.248,0.952
-732.553,665.531,98.937,-4.756,-1.439,0.897
-733.212,652.950,99.797,-5.053,-1.464,0.836
-736.739,637.343,95.268,-4.888,-1.400,0.836
-740.638,621.324,95.206,-3.482,-1.408,0.944
-747.465,618.127,98.466,-1.338,-1.374,1.062
-751.344,631.871,98.523,0.875,-1.495,0.949
-746.946,649.182,95.316,2.630,-1.482,0.792
-737.994,657.502,94.299,2.815,-1.156,0.895
-730.185,660.410,97.495,1.768,-0.965,1.070
-729.000,662.000,99.000,0.630,-0.910,1.120
-729.238,661.078,98.314,-0.115,-0.910,1.114
-727.730,660.692,95.615,-0.757,-0.870,1.207
-730.436,656.164,95.170,-1.501,-0.785,1.393
-735.174,649.626,96.410,-2.099,-0.752,1.524
-737.787,645.234,95.933,-2.233,-0.653,1.541
-740.479,643.295,99.084,-1.912,-0.535,1.529
-739.774,654.332,103.194,-0.950,-0.409,1.303
-735.428,670.283,103.180,0.345,-0.287,0.991
-728.123,672.058,99.823,0.760,-0.220,1.022
-719.983,667.430,96.888,0.320,-0.201,1.046
-719.825,662.209,94.018,0.056,-0.222,0.847
-723.351,655.241,90.933,0.667,-0.183,0.762
-725.505,659.896,93.334,1.566,-0.123,0.896
-725.837,671.680,97.398,1.898,-0.059,1.074
-723.000,681.000,98.000,1.540,-0.000,1.190
-719.369,686.213,98.018,0.428,0.055,1.200
-719.477,678.128,96.879,-1.101,0.142,1.132
-726.097,659.754,93.832,-2.677,0.062,1.076
-733.649,645.860,93.009,-3.261,-0.013,0.788
-737.885,647.166,94.714,-2.300,0.148,0.477
-734.278,657.461,96.383,-0.889,0.310,0.524
-725.434,666.531,98.094,-0.122,0.429,0.716
-721.987,668.294,97.237,-0.502,0.492,0.902
-725.209,662.931,93.667,-1.093,0.388,0.834
-734.475,659.716,91.186,-0.932,0.216,0.524
-741.001,653.443,87.446,-0.536,-0.004,0.297
-741.970,651.852,86.504,-0.149,-0.232,0.134
-739.635,661.006,91.676,0.509,-0.267,-0.070
-732.991,667.800,94.123,1.210,-0.207,-0.314
-728.000,672.000,95.000,1.470,-0.280,-0.420
-721.905,671.519,94.370,1.024,-0.404,-0.357
-719.678,667.003,92.745,0.332,-0.481,-0.386
-725.016,659.451,93.919,0.171,-0.490,-0.481
-727.371,657.479,93.908,0.473,-0.498,-0.482
-726.517,666.673,96.032,0.801,-0.448,-0.505
-725.744,667.914,95.186,0.688,-0.227,-0.460
-725.024,659.333,91.938,0.089,-0.142,-0.268
-727.650,653.244,92.984,-0.406,-0.206,-0.270
-731.639,653.078,90.817,-0.175,-0.259,-0.405
-731.318,658.475,88.667,0.621,-0.345,-0.398
-731.356,664.022,90.143,0.615,-0.313,-0.236
-733.925,666.407,90.903,-0.142,-0.284,-0.102
-733.576,661.270,87.867,-0.601,-0.391,-0.171
-734.517,649.211,87.329,-1.062,-0.503,-0.212
-740.000,642.000,90.000,-1.400,-0.560,-0.350
-743.814,638.529,90.693,-1.118,-0.679,-0.614
-743.494,637.437,93.998,-0.768,-0.732,-0.550
-741.995,645.529,96.217,-0.470,-0.623,-0.410
-741.650,656.540,98.433,0.103,-0.686,-0.474
-737.325,664.673,100.426,0.059,-0.647,-0.624
-727.742,669.856,101.290,-0.740,-0.458,-0.817
-721.784,670.857,100.731,-0.961,-0.418,-0.989
-720.969,663.083,95.321,-0.460,-0.355,-0.929
-722.929,647.584,94.548,-0.040,-0.343,-0.616
-727.878,644.674,95.857,0.840,-0.361,-0.521
-727.284,662.949,96.338,2.924,-0.299,-0.588
-717.901,682.490,94.095,4.482,-0.119,-0.303
-708.679,688.601,86.756,3.851,-0.117,0.227
-707.573,686.186,82.596,1.743,-0.483,0.507
-717.000,677.000,80.000,-0.280,-0.770,0.490
-728.598,669.576,78.216,-1.362,-0.943,0.483
-736.061,664.157,75.943,-2.088,-1.302,0.573
-742.209,654.362,74.337,-3.191,-1.879,0.782
-747.106,657.649,79.788,-4.392,-2.235,0.798
-747.106,664.340,87.864,-5.154,-2.207,0.518
-741.311,661.872,92.890,-6.086,-2.179,0.423
-735.795,654.277,96.254,-7.356,-2.326,0.410
-736.754,646.369,98.899,-7.422,-2.512,0.102
-739.592,641.207,98.563,-5.945,-2.529,-0.245
-740.679,629.973,95.287,-4.293,-2.538,-0.282
-740.879,631.843,93.332,-2.979,-2.712,-0.377
-741.152,649.490,97.562,-1.425,-2.807,-0.718
-741.880,665.380,101.760,-0.398,-2.558,-0.848
-736.705,674.750,101.929,-0.936,-2.383,-0.844
-727.000,675.000,101.000,-2.240,-2.590,-0.910
-719.759,673.643,99.145,-3.364,-2.673,-0.977
-717.288,664.984,99.490,-4.064,-2.553,-0.907
-721.396,653.298,101.174,-4.369,-2.491,-0.683
-725.484,646.437,102.952,-4.113,-2.593,-0.630
-725.888,641.704,104.687,-3.094,-2.645,-0.590
-725.810,645.736,107.918,-1.614,-2.363,-0.361
-723.834,655.835,111.155,-0.424,-2.007,-0.123
-722.166,666.305,112.824,-0.002,-1.766,0.060
-718.177,671.470,114.947,-0.234,-1.534,0.174
-715.408,664.112,113.676,-0.788,-1.235,0.390
-721.159,651.667,112.833,-1.143,-0.961,0.582
-727.197,648.681,112.489,-0.738,-0.733,0.492
-731.040,648.925,110.562,0.471,-0.484,0.428
-733.162,653.364,111.219,1.330,-0.240,0.587
-734.000,663.000,112.000,1.400,0.070,0.630
-734.994,662.719,110.490,1.073,0.382,0.506
-734.756,656.763,106.873,0.378,0.551,0.436
-736.150,646.624,104.830,0.102,0.497,0.398
-736.987,645.554,102.380,0.414,0.354,0.486
-737.011,655.655,101.254,0.721,0.375,0.576
-736.476,662.739,104.716,0.758,0.429,0.560
-731.544,672.581,103.723,0.607,0.497,0.638
-726.310,668.246,100.207,-0.180,0.502,0.700
-724.957,649.716,97.059,-1.420,0.223,0.654
-733.436,635.846,92.277,-1.158,-0.107,0.530
-741.770,629.318,90.078,0.365,-0.363,0.472
-738.478,642.385,90.110,2.022,-0.588,0.509
-735.384,659.985,91.818,3.138,-0.733,0.611
-732.338,665.732,95.562,2.630,-0.773,0.879
-729.000,674.000,98.000,1.330,-0.840,0.910
-727.513,679.915,99.746,0.216,-1.022,0.662
-723.040,677.742,99.900,-0.646,-1.162,0.517
-721.978,669.796,96.477,-1.570,-1.260,0.419
-727.068,660.645,97.536,-2.121,-1.434,0.222
-732.582,661.010,102.942,-1.288,-1.563,-0.160
-732.258,662.977,105.200,-0.018,-1.419,-0.469
-727.668,659.512,104.913,0.902,-1.255,-0.563
-724.215,649.800,103.118,1.627,-1.258,-0.562
-722.732,646.095,103.375,2.505,-1.269,-0.553
-724.555,658.256,106.319,3.928,-1.150,-0.552
-723.915,667.420,106.889,4.782,-0.897,-0.307
-722.959,671.367,105.022,4.176,-0.843,-0.048
-725.998,669.654,103.817,2.782,-0.820,0.007
-728.254,668.658,104.057,1.795,-0.766,-0.011
-729.000,678.000,104.000,1.400,-0.630,-0.140
-725.829,683.649,103.231,0.441,-0.305,-0.153
-720.301,684.666,100.909,-1.258,-0.353,-0.078
-717.727,679.533,98.503,-3.067,-0.498,-0.046
-722.054,668.076,97.082,-4.637,-0.476,0.075
-729.653,650.374,93.443,-5.449,-0.512,0.153
-735.040,636.151,92.166,-5.381,-0.698,0.140
-739.287,638.538,94.151,-4.689,-1.074,0.221
-741.061,647.104,96.680,-3.648,-1.133,0.404
-738.136,663.461,101.912,-2.912,-0.938,0.597
-732.844,678.976,104.786,-3.175,-0.892,0.663
-727.402,680.159,105.438,-4.431,-0.952,0.531
-721.094,675.042,105.823,-5.851,-0.986,0.301
-720.967,663.510,102.985,-6.436,-0.985,-0.037
-726.820,647.901,102.176,-6.150,-1.068,-0.216
-730.000,642.000,104.000,-5.320,-1.190,-0.210
-732.748,649.177,104.838,-3.934,-1.261,-0.285
-731.044,663.502,106.447,-2.758,-1.173,-0.097
-723.626,680.602,107.466,-2.614,-1.014,0.152
-718.759,683.562,105.736,-3.621,-0.989,0.309
-718.408,667.617,103.020,-5.397,-1.101,0.591
-725.133,648.683,101.966,-6.708,-1.212,0.603
-735.792,632.000,103.155,-6.748,-1.344,0.484
-743.649,627.685,105.767,-5.590,-1.530,0.365
-744.702,634.953,109.118,-3.745,-1.558,0.209
-740.168,644.079,112.889,-2.500,-1.456,0.308
-733.451,653.117,114.824,-2.176,-1.287,0.334
-725.105,657.168,115.217,-2.050,-1.138,0.261
-721.742,659.729,116.244,-2.021,-1.117,0.275
-723.248,659.689,115.922,-1.749,-1.027,0.104
-725.000,657.000,117.000,-1.190,-0.840,-0.070
-730.078,654.467,118.199,-0.600,-0.653,-0.129
-734.031,652.531,115.744,0.223,-0.562,-0.233
-732.259,655.063,114.149,0.985,-0.543,-0.407
-729.537,655.596,113.891,1.302,-0.389,-0.550
-728.999,657.681,114.102,1.350,-0.241,-0.561
-730.091,667.484,113.831,1.504,-0.196,-0.666
-727.648,675.326,112.931,1.284,-0.057,-0.772
-722.382,673.603,112.033,0.362,0.066,-0.768
-718.450,663.268,113.246,-0.570,0.115,-0.824
-718.058,656.063,115.931,-0.701,0.276,-0.885
-719.919,653.701,115.753,0.297,0.439,-0.940
-719.354,655.702,119.099,1.488,0.545,-0.822
-718.808,663.414,120.527,2.324,0.796,-0.547
-716.470,668.474,116.448,2.763,1.083,-0.315
-715.000,669.000,114.000,2.730,1.190,-0.070
-719.917,663.216,108.113,2.391,1.203,0.065
-727.470,657.312,102.642,1.858,1.002,0.067
-734.889,657.988,101.675,1.655,0.801,0.101
-737.638,659.048,102.763,1.471,0.935,0.198
-738.112,656.673,104.719,0.975,0.960,0.335
-737.495,654.953,106.326,0.346,0.904,0.427
-734.897,655.990,106.998,-0.006,0.828,0.339
-735.848,652.394,106.963,0.009,0.701,0.277
-736.966,650.939,107.264,-0.201,0.765,0.306
-736.947,656.028,105.002,0.067,0.688,0.092
-735.905,656.872,103.147,0.442,0.598,-0.045
-731.414,660.117,102.883,0.215,0.665,0.033
-726.940,662.932,103.265,-0.004,0.712,-0.033
-725.918,659.537,103.993,-0.521,0.683,-0.065
-724.000,659.000,103.000,-0.980,0.490,0.000
-725.067,655.859,102.150,-0.882,0.418,0.110
-731.349,651.891,101.086,-0.582,0.388,0.349
-730.265,653.332,101.555,-0.311,0.257,0.525
-728.546,653.539,101.833,-0.082,0.155,0.604
-728.481,652.788,100.461,0.131,0.013,0.788
-726.783,652.918,100.011,0.009,-0.086,1.032
-728.165,653.138,101.151,-0.302,-0.144,1.200
-729.888,656.756,102.930,-0.543,-0.145,1.321
-730.993,656.135,103.618,-0.777,-0.077,1.439
-730.187,652.598,106.062,-1.082,-0.073,1.573
-729.592,658.730,107.641,-1.235,-0.039,1.626
-727.582,664.575,108.549,-0.993,0.029,1.598
-725.815,662.775,108.488,-1.058,0.093,1.620
-727.319,655.621,104.318,-1.257,0.137,1.599
-730.000,648.000,102.000,-0.840,0.000,1.470
-732.890,649.840,101.965,-0.011,-0.081,1.286
-731.731,659.502,102.585,0.964,0.037,1.185
-729.289,669.889,104.145,1.360,0.117,1.236
-725.689,674.192,105.779,0.783,0.156,1.254
-723.600,673.246,105.570,-0.127,0.113,1.123
-723.942,669.899,103.499,-0.733,0.063,0.949
-724.130,664.644,101.919,-1.075,-0.010,0.911
-726.862,660.382,101.898,-1.384,-0.135,0.910
-727.005,655.995,104.261,-1.392,-0.141,0.959
-728.173,660.823,107.251,-1.012,-0.151,1.002
-728.211,669.957,108.048,-0.666,-0.071,0.973
-723.544,672.435,105.805,-0.883,0.024,1.144
-720.130,670.508,105.057,-1.555,-0.010,1.159
-719.064,660.364,104.833,-2.165,0.000,1.040
-721.000,658.000,104.000,-2.030,-0.070,0.980
-721.943,664.517,105.703,-1.058,-0.031,0.846
-723.189,665.068,106.909,-0.377,0.179,0.893
-725.178,664.894,106.726,-0.089,0.189,0.881
-722.973,661.513,104.584,0.281,0.093,0.810
-718.433,660.503,102.191,0.774,0.067,0.721
-719.927,664.832,100.799,1.386,0.070,0.626
-724.241,666.030,102.235,1.609,0.070,0.705
-726.775,666.934,104.077,1.483,0.071,0.701
-729.044,666.498,102.065,1.220,0.063,0.751
-727.718,663.764,103.882,0.729,0.151,0.754
-730.029,662.778,105.348,0.414,0.258,0.609
-731.500,668.194,105.196,0.486,0.118,0.532
-726.177,676.027,105.809,0.536,-0.014,0.477
-722.624,677.589,102.420,0.008,0.096,0.499
-721.000,668.000,101.000,-1.190,0.210,0.560
-723.391,654.983,101.095,-2.140,0.103,0.517
-725.955,655.053,100.322,-1.645,-0.101,0.274
-725.738,660.593,98.805,-0.466,-0.186,0.219
-725.728,662.718,97.795,-0.230,-0.243,0.549
-724.386,665.156,100.106,-0.668,-0.301,0.719
-725.426,671.847,102.373,-0.952,-0.363,0.592
-725.890,677.061,102.981,-1.143,-0.344,0.486
-723.214,673.413,102.064,-1.693,-0.339,0.428
-721.219,668.403,101.967,-2.362,-0.578,0.301
-720.633,660.601,101.013,-2.461,-0.701,0.270
-721.999,657.125,98.776,-1.900,-0.720,0.264
-725.781,662.604,99.816,-1.167,-0.807,0.164
-728.210,665.754,101.389,-0.992,-0.862,0.143
-726.693,671.026,103.398,-1.146,-1.002,0.137
-725.000,676.000,105.000,-1.470,-1.050,0.140
-720.832,677.891,104.085,-2.137,-1.043,0.147
-717.055,675.888,104.110,-2.722,-1.100,0.084
-717.543,669.662,102.837,-3.115,-1.193,0.066
-718.497,665.526,101.713,-3.052,-1.319,0.068
-723.118,655.021,101.830,-2.763,-1.330,0.086
-727.603,647.476,101.105,-2.289,-1.434,0.152
-729.119,652.659,105.452,-1.240,-1.462,0.136
-729.236,663.084,108.117,-0.202,-1.335,0.134
-723.507,673.683,105.998,0.251,-1.333,0.251
-718.963,674.763,107.442,-0.378,-1.279,0.342
-719.996,668.890,107.680,-1.530,-1.280,0.333
-723.758,661.400,106.601,-1.966,-1.368,0.205
-726.298,657.431,105.539,-1.578,-1.407,0.021
-725.989,656.725,105.216,-1.062,-1.395,0.015
-727.000,654.000,108.000,-0.840,-1.400,0.140
-727.065,657.664,108.162,-0.384,-1.470,0.090
-727.474,667.324,108.320,0.211,-1.382,0.001
-728.796,673.323,110.227,0.114,-1.230,-0.013
-728.346,669.862,108.613,-0.669,-1.172,-0.189
-725.265,664.656,106.660,-1.119,-1.209,-0.447
-719.756,666.785,108.634,-0.809,-1.162,-0.677
-718.128,667.888,109.988,-0.470,-1.047,-0.770
-721.718,664.347,109.073,-0.227,-1.112,-0.764
-723.888,661.035,108.209,-0.085,-1.180,-0.934
-723.932,663.045,107.682,0.063,-1.211,-1.054
-723.234,667.965,108.737,0.480,-1.086,-1.038
-720.248,673.481,108.831,0.645,-0.941,-1.064
-717.072,675.771,109.352,0.362,-1.000,-1.029
-714.732,671.307,109.952,-0.241,-0.971,-0.977
-715.000,671.000,110.000,-0.630,-0.980,-0.980
-716.960,673.760,111.937,-0.297,-0.988,-0.923
-715.625,674.876,110.569,0.200,-0.965,-0.854
-714.660,672.992,109.953,0.295,-1.002,-0.803
-718.714,661.018,108.414,0.101,-0.948,-0.735
-727.772,643.202,103.392,0.135,-1.038,-0.675
-736.443,634.568,104.876,0.665,-1.114,-0.630
-737.850,644.249,108.193,1.777,-0.966,-0.704
-732.637,662.567,111.641,2.707,-0.786,-0.582
-723.082,680.514,115.032,2.309,-0.546,-0.312
-716.047,689.569,113.084,0.762,-0.362,-0.229
-714.396,680.263,110.576,-1.227,-0.401,-0.227
-718.973,664.963,106.972,-2.567,-0.564,-0.513
-729.026,650.520,103.214,-2.618,-0.645,-0.738
-735.750,640.119,103.111,-1.609,-0.714,-0.873
-739.000,642.000,104.000,0.000,-0.770,-1.050
-735.271,652.183,105.782,1.484,-0.709,-0.929
-727.396,663.182,106.088,2.574,-0.693,-0.936
-724.105,672.120,107.145,3.070,-0.706,-1.069
-721.097,681.985,110.651,2.958,-0.692,-1.190
-719.853,681.942,108.280,2.399,-0.727,-1.284
-721.454,671.581,104.512,1.667,-0.880,-1.360
-724.218,664.611,103.940,1.325,-0.983,-1.554
-725.097,660.271,102.151,1.514,-1.041,-1.675
-724.486,657.004,101.059,1.758,-1.172,-1.697
-727.710,651.139,100.483,1.568,-1.250,-1.579
-730.211,647.727,99.402,1.436,-1.535,-1.531
-733.359,653.507,101.722,1.691,-1.689,-1.535
-731.223,664.779,107.940,2.071,-1.471,-1.563
-724.132,676.481,111.106,2.136,-1.398,-1.602
-719.000,681.000,110.000,1.610,-1.330,-1.470
-709.190,678.737,108.278,1.158,-1.316,-1.522
-707.800,672.353,106.974,0.994,-1.397,-1.556
-715.566,665.226,107.322,1.077,-1.393,-1.555
-722.617,660.470,105.674,1.554,-1.409,-1.654
-728.753,656.521,103.367,2.057,-1.399,-1.543
-730.063,654.745,102.910,2.255,-1.504,-1.360
-732.244,655.173,103.110,2.155,-1.531,-1.175
-733.162,660.452,105.809,1.855,-1.342,-0.993
-730.414,665.197,106.334,1.156,-1.267,-0.813
-728.815,661.056,105.469,-0.119,-1.215,-0.631
-725.858,658.028,107.518,-1.547,-1.164,-0.438
-725.199,664.838,110.055,-2.188,-1.031,-0.311
-727.644,668.758,110.990,-2.196,-0.774,-0.240
-729.342,660.368,109.835,-2.993,-0.793,0.047
-733.000,653.000,110.000,-4.200,-0.910,0.070
-734.996,648.154,109.355,-4.125,-0.852,-0.255
-734.969,641.168,107.203,-3.028,-0.792,-0.206
-733.489,646.758,107.383,-1.847,-0.692,-0.065
-727.009,661.678,108.871,-0.828,-0.566,-0.050
-722.954,668.183,110.394,-0.407,-0.425,0.169
-721.646,668.961,109.692,-0.457,-0.251,0.279
-722.248,665.456,108.967,-0.804,-0.291,0.204
-726.739,655.736,107.230,-1.059,-0.416,0.145
-727.998,650.005,105.615,-0.595,-0.426,0.077
-728.474,651.733,107.902,0.194,-0.382,0.099
-728.755,654.891,106.646,0.884,-0.301,0.238
-726.779,661.757,106.868,1.019,-0.265,0.449
-724.110,669.559,109.204,0.626,-0.176,0.594
-723.156,665.595,106.523,0.029,-0.148,0.725
-726.000,657.000,106.000,-0.700,-0.210,0.840
-727.133,660.431,107.703,-0.660,-0.153,0.721
-725.120,671.289,110.188,0.106,-0.053,0.710
-720.993,677.269,111.631,0.323,0.170,0.948
-720.512,672.602,109.679,-0.414,0.350,1.121
-726.668,652.760,106.713,-1.213,0.329,1.071
-733.262,631.075,103.450,-1.046,0.264,0.864
-737.226,626.291,104.201,0.194,0.208,0.768
-738.974,636.790,106.820,1.969,0.269,0.766
-737.729,655.321,110.000,3.205,0.489,0.917
-733.742,673.402,113.235,2.935,0.808,1.162
-728.070,681.265,110.988,1.447,1.011,1.138
-720.385,678.313,107.520,-0.342,1.064,0.981
-718.300,666.800,103.610,-2.151,1.025,0.889
-722.822,657.545,100.998,-3.309,0.888,0.828
-728.000,665.000,104.000,-3.150,0.770,0.700
-729.595,676.137,105.259,-2.898,0.705,0.678
-722.404,677.866,102.762,-3.572,0.666,0.864
-717.752,672.553,100.658,-4.766,0.476,0.961
-720.977,661.908,99.510,-5.578,0.244,0.998
-723.774,655.190,101.020,-5.286,0.217,0.939
-726.753,653.856,104.752,-4.192,0.192,0.822
-730.260,654.043,106.035,-2.917,0.060,0.847
-732.074,654.845,107.759,-1.886,-0.003,0.972
-728.317,659.995,110.070,-1.086,0.105,0.957
-723.576,666.801,108.217,-0.393,0.216,0.707
-722.547,664.846,104.893,-0.038,0.127,0.557
-723.773,664.510,101.764,-0.047,-0.111,0.405
-726.571,666.246,102.828,-0.272,-0.216,0.247
-724.284,668.749,105.208,-0.163,-0.119,0.205
-720.000,675.000,107.000,0.070,0.000,0.210
-718.226,678.005,109.952,-0.265,0.010,0.333
-716.992,674.101,108.380,-0.793,-0.059,0.404
-717.755,663.863,109.035,-0.989,-0.072,0.449
-720.556,662.042,109.415,-0.466,-0.072,0.318
-724.201,658.227,105.810,0.379,-0.066,0.210
-726.312,654.274,106.333,1.069,-0.075,0.392
-728.169,660.358,105.870,1.803,-0.066,0.416
-729.072,660.129,105.812,2.232,-0.005,0.415
-727.946,660.740,108.685,2.024,0.096,0.480
-728.768,659.145,108.501,1.348,0.304,0.535
-727.739,658.650,107.745,0.940,0.332,0.571
-724.111,664.133,107.906,0.844,0.271,0.579
-721.374,665.304,106.607,0.243,0.400,0.766
-722.446,671.252,107.236,-0.609,0.496,0.830
-725.000,676.000,107.000,-1.190,0.490,0.700
-724.915,672.836,103.413,-1.656,0.486,0.631
-726.491,666.728,102.091,-2.381,0.505,0.639
-726.738,663.340,101.754,-2.761,0.407,0.533
-724.539,668.727,102.897,-2.218,0.328,0.308
-721.845,676.396,104.114,-1.673,0.355,0.306
-721.102,675.480,102.461,-1.764,0.240,0.351
-722.030,660.526,99.783,-2.436,0.056,0.351
-722.804,642.956,97.983,-2.695,-0.126,0.293
-726.416,638.954,100.152,-1.598,-0.264,0.100
-726.545,654.141,103.712,0.283,-0.293,0.048
-725.933,670.365,106.669,1.413,-0.238,0.153
-726.946,670.107,105.887,0.630,-0.230,0.390
-723.756,666.215,102.008,-0.554,-0.413,0.362
-721.950,666.181,102.323,-0.848,-0.485,0.114
-722.000,669.000,104.000,-0.840,-0.420,0.070
-722.778,670.359,103.178,-0.937,-0.470,0.010
-723.391,667.213,103.230,-1.235,-0.643,-0.007
-721.495,668.980,106.234,-1.074,-0.752,-0.000
-720.636,670.994,106.215,-0.604,-0.600,0.024
-721.268,662.620,102.755,-0.504,-0.607,0.086
-723.635,653.881,102.106,-0.650,-0.806,0.058
-726.156,657.640,103.101,-0.207,-0.839,-0.005
-727.882,664.722,104.865,0.972,-0.839,-0.007
-728.923,667.096,105.895,1.441,-0.839,0.121
-728.946,672.635,106.976,1.126,-0.851,0.116
-727.750,676.449,109.765,0.724,-0.757,-0.006
-721.116,674.505,111.672,0.092,-0.521,-0.131
-714.702,668.518,111.660,-0.602,-0.402,-0.227
-715.418,658.532,108.395,-0.743,-0.431,-0.202
-719.000,653.000,106.000,-0.280,-0.490,-0.140
-725.009,652.865,105.264,0.440,-0.380,-0.024
-729.072,654.596,103.297,1.062,-0.223,0.154
-727.903,661.564,103.321,1.028,-0.221,0.286
-728.343,672.793,104.872,0.774,-0.140,0.252
-726.496,677.775,106.497,0.175,0.084,0.338
-722.230,677.867,105.396,-0.857,0.121,0.414
-722.138,673.260,102.911,-1.672,-0.006,0.351
-724.763,659.135,103.001,-2.477,-0.001,0.420
-727.604,649.367,102.160,-2.430,-0.095,0.263
-727.721,652.183,102.882,-1.456,-0.229,0.161
-724.897,663.170,105.505,-0.761,-0.128,0.299
-721.043,671.817,105.812,-0.668,-0.053,0.397
-718.508,672.712,104.477,-1.183,-0.092,0.517
-719.294,668.957,102.794,-1.844,-0.236,0.479
-722.000,658.000,102.000,-2.310,-0.350,0.490
-725.555,653.189,101.822,-2.090,-0.406,0.448
-726.567,662.714,104.200,-0.981,-0.486,0.317
-723.995,670.905,105.081,-0.127,-0.499,0.553
-721.602,674.789,103.055,-0.244,-0.697,0.804
-718.773,677.951,105.307,-0.903,-0.874,0.842
-718.200,678.787,106.980,-1.531,-0.828,0.843
-720.137,673.262,105.939,-2.072,-0.843,0.920
-721.803,660.951,105.116,-2.564,-0.902,1.046
-725.850,651.918,103.828,-2.611,-1.032,1.003
-729.150,650.153,106.415,-1.971,-0.992,0.927
-726.878,653.554,109.572,-1.051,-0.798,0.871
-723.699,659.203,110.092,-0.543,-0.778,0.844
-722.629,659.336,109.626,-0.489,-0.752,0.944
-720.703,658.115,107.843,-0.395,-0.694,0.979
-721.000,660.000,109.000,-0.210,-0.630,0.980
-724.540,659.134,108.469,-0.033,-0.505,0.985
-726.066,660.986,106.484,0.208,-0.475,0.932
-725.357,668.714,109.194,0.391,-0.512,0.840
-724.047,677.562,109.663,0.415,-0.427,0.672
-722.104,683.015,108.925,0.251,-0.318,0.491
-720.783,676.006,108.836,-0.299,-0.267,0.311
-721.082,659.878,107.994,-0.859,-0.207,0.205
-721.993,652.084,108.912,-0.435,-0.211,0.085
-721.275,654.519,109.785,1.022,-0.115,-0.115
-719.792,663.663,110.470,2.468,0.052,-0.118
-716.461,676.509,107.617,2.978,0.062,0.011
-712.015,679.877,103.616,2.468,0.100,0.112
-711.118,677.353,104.638,1.529,0.145,0.132
-713.540,675.390,104.675,0.841,0.139,0.061
-718.000,666.000,101.000,0.700,0.070,0.070
-721.627,655.606,99.766,0.859,-0.176,0.132
-723.599,657.028,102.178,1.414,-0.252,0.185
-723.492,662.741,104.715,2.243,-0.077,0.288
-719.133,668.349,107.356,2.472,0.071,0.420
-716.602,676.539,107.731,2.170,0.175,0.533
-718.392,672.713,106.966,1.691,0.212,0.659
-719.054,663.715,106.927,1.162,0.211,0.694
-721.684,667.367,105.089,1.225,0.270,0.509
-724.262,676.587,106.215,1.707,0.445,0.308
-720.870,686.925,108.942,1.476,0.597,0.226
-715.704,691.543,107.800,0.428,0.695,0.180
-710.517,686.288,104.073,-0.547,0.813,0.101
-709.572,671.518,99.710,-1.229,0.715,0.078
-716.255,656.582,96.665,-1.357,0.539,0.149
-723.000,658.000,96.000,-0.490,0.420,0.140
-727.396,666.191,97.022,0.762,0.346,0.184
-730.054,667.907,95.025,1.193,0.378,0.414
-728.311,664.519,93.398,0.445,0.187,0.590
-725.346,668.768,97.808,-0.111,0.017,0.419
-722.920,679.404,100.169,0.113,0.120,0.124
-720.375,678.551,98.623,-0.043,0.118,0.177
-717.821,670.465,98.003,-0.833,-0.091,0.282
-716.906,666.151,98.859,-1.270,-0.338,0.281
-719.440,666.823,100.815,-0.617,-0.367,0.190
-719.802,673.286,100.026,0.480,-0.328,-0.003
-717.906,672.321,97.574,0.642,-0.414,0.109
-720.823,657.378,96.761,-0.043,-0.574,0.238
-724.915,651.067,97.573,0.026,-0.726,0.198
-725.992,661.210,101.723,1.086,-0.594,0.217
-724.000,677.000,104.000,1.820,-0.420,0.350
-718.838,686.535,102.290,1.317,-0.417,0.659
-714.471,687.705,100.580,-0.263,-0.457,0.755
-715.165,686.637,98.632,-1.698,-0.583,0.496
-721.754,672.841,97.472,-2.637,-0.673,0.205
-725.263,664.366,96.862,-3.070,-0.870,-0.016
-721.827,672.931,98.684,-2.557,-1.069,-0.261
-716.632,675.009,101.066,-1.926,-0.969,-0.266
-713.139,677.828,100.146,-1.622,-0.968,-0.016
-712.729,671.191,98.288,-1.757,-1.154,0.116
-714.583,654.802,98.496,-2.323,-1.258,0.213
-717.942,659.929,103.462,-1.757,-1.209,0.131
-718.576,673.295,106.775,-0.211,-1.039,0.099
-716.072,678.860,105.364,0.357,-0.986,0.374
-713.799,675.936,103.854,-0.470,-1.059,0.582
-716.000,667.000,104.000,-1.750,-1.050,0.630
-723.878,662.172,105.000,-2.090,-0.989,0.451
-728.064,663.486,104.255,-1.497,-0.926,0.378
-726.761,668.904,103.906,-1.199,-0.901,0.553
-724.646,671.939,103.920,-1.662,-0.904,0.693
-721.590,673.944,104.255,-2.287,-0.781,0.643
-718.195,675.949,105.166,-2.391,-0.695,0.356
-715.943,671.540,106.105,-2.859,-0.698,0.284
-716.889,667.996,107.026,-3.251,-0.635,0.228
-716.653,670.210,106.064,-2.165,-0.579,-0.036
-713.379,672.666,106.719,-0.932,-0.465,-0.050
-713.859,672.548,106.228,-0.553,-0.396,0.063
-717.443,670.807,104.479,-0.607,-0.440,0.034
-719.516,666.326,105.135,-0.593,-0.395,-0.115
-722.597,661.185,102.216,-0.397,-0.353,-0.127
-726.000,652.000,97.000,-0.420,-0.490,0.000
-728.545,641.106,96.504,-0.555,-0.687,0.120
-730.941,651.918,101.310,-0.377,-0.627,0.211
-728.922,673.393,105.872,0.160,-0.436,0.212
-720.444,685.056,107.684,-0.383,-0.455,0.440
-708.669,689.118,107.978,-2.374,-0.480,0.705
-705.177,678.329,108.101,-4.206,-0.408,0.785
-709.410,665.456,109.087,-5.137,-0.423,0.841
-715.503,663.923,109.968,-4.700,-0.422,0.776
-719.894,665.815,109.464,-3.673,-0.459,0.756
-719.379,674.160,106.927,-3.014,-0.602,0.826
-721.563,685.273,104.641,-2.264,-0.630,0.807
-720.570,687.061,100.925,-2.290,-0.661,0.562
-719.387,674.612,97.342,-3.361,-0.836,0.273
-723.549,654.158,98.335,-3.924,-1.092,0.026
-724.000,647.000,101.000,-3.010,-1.330,-0.280
-721.668,660.116,106.115,-0.610,-1.407,-0.365
-715.324,677.843,109.970,1.358,-1.298,-0.166
-708.700,687.497,108.876,1.289,-1.256,0.136
-705.667,684.578,107.014,0.234,-1.447,0.206
-709.642,671.277,105.590,-0.920,-1.564,0.106
-720.241,661.842,106.315,-1.504,-1.635,0.057
-725.152,663.348,107.002,-1.071,-1.756,-0.000
-726.026,667.775,107.822,-0.698,-1.756,0.124
-723.834,667.911,110.534,-1.083,-1.598,0.317
-721.090,663.153,112.103,-1.915,-1.366,0.421
-720.284,667.362,115.176,-2.292,-1.337,0.337
-717.272,680.531,117.603,-1.847,-1.266,0.126
-713.716,681.894,116.532,-1.754,-1.074,0.196
-708.128,677.548,116.050,-2.324,-1.052,0.360
-706.000,674.000,117.000,-2.450,-0.980,0.280
-710.154,663.995,116.492,-2.032,-0.795,0.257
-715.534,650.601,112.070,-1.565,-0.696,0.485
-719.409,642.595,111.209,-0.918,-0.726,0.688
-723.206,648.887,114.987,0.103,-0.578,0.907
-728.687,662.442,116.207,1.069,-0.203,1.251
-726.493,678.763,117.188,0.978,0.033,1.408
-718.485,689.356,115.779,-0.261,0.071,1.321
-714.222,690.007,113.992,-1.971,0.130,1.203
-712.037,690.882,113.720,-3.285,0.226,0.891
-713.530,688.536,108.503,-3.532,0.007,0.324
-716.428,674.653,102.845,-3.523,-0.345,-0.047
-717.073,653.966,99.770,-3.467,-0.622,-0.205
-720.722,647.792,99.267,-2.289,-0.916,-0.288
-727.925,647.802,102.743,-0.151,-0.973,-0.186
-728.000,652.000,109.000,1.610,-0.910,0.000
-721.775,668.715,115.369,2.235,-0.796,0.246
-717.516,678.953,117.684,1.955,-0.652,0.363
-711.566,685.852,118.811,1.162,-0.593,0.301
-706.566,691.813,118.228,0.096,-0.533,0.244
-704.252,698.699,116.715,-1.234,-0.588,0.043
-705.712,698.270,116.716,-2.499,-0.527,-0.178
-709.211,682.552,111.462,-3.423,-0.503,-0.288
-711.750,663.401,107.066,-3.926,-0.818,-0.410
-714.745,651.098,107.135,-3.072,-0.968,-0.493
-714.658,656.670,106.469,-1.063,-1.066,-0.384
-716.185,668.510,109.106,0.817,-1.146,-0.102
-716.073,686.823,111.476,1.895,-1.128,0.036
-713.531,690.749,108.818,1.561,-1.338,0.097
-715.504,673.502,105.752,0.295,-1.481,0.125
-719.000,665.000,107.000,-0.420,-1.610,-0.210
-721.919,664.131,109.782,0.127,-1.803,-0.600
-719.635,674.482,111.115,0.968,-1.872,-0.653
-714.070,681.689,114.765,0.825,-1.914,-0.582
-709.970,681.213,115.673,-0.206,-1.822,-0.532
-711.384,673.551,113.088,-1.402,-1.728,-0.470
-718.734,662.176,111.515,-1.930,-1.776,-0.513
-724.316,659.894,108.917,-1.720,-1.977,-0.638
-726.943,658.778,112.486,-1.231,-2.040,-0.698
-725.719,666.274,116.437,-0.727,-1.851,-0.701
-722.217,667.482,113.226,-0.341,-1.799,-0.727
-718.642,662.774,114.924,-0.039,-1.897,-0.875
-715.994,667.887,117.685,0.161,-2.185,-1.066
-718.193,671.558,118.492,0.266,-2.601,-1.245
-720.946,671.934,119.902,-0.354,-3.458,-1.431
-717.000,670.000,117.000,-1.260,-4.480,-1.680
-724.230,663.550,122.287,-2.579,-5.670,-1.977
-739.282,653.996,130.434,-5.442,-9.076,-2.510
-727.242,656.439,124.744,-6.858,-12.853,-3.560
-705.234,669.153,118.734,-5.079,-13.278,-3.941
-699.810,682.968,119.939,-3.153,-11.316,-2.981
-705.448,687.504,122.363,-2.937,-9.237,-2.220
-707.970,682.957,121.886,-3.220,-7.814,-2.170
-708.735,688.559,121.017,-2.900,-6.536,-2.046
-710.783,687.590,120.267,-2.750,-5.574,-1.902
-705.841,682.638,120.648,-3.131,-5.242,-1.852
-710.322,677.219,123.277,-3.709,-5.223,-1.774
-716.539,658.410,120.457,-3.807,-5.708,-1.707
-719.978,645.300,126.447,-3.771,-5.897,-1.443
-730.187,643.578,136.847,-4.248,-6.464,-1.351
-727.000,660.000,137.000,-3.710,-7.560,-1.610
-715.438,687.797,139.512,-2.864,-7.280,-1.464
-707.761,699.248,141.252,-3.678,-6.424,-1.093
-702.646,693.784,146.472,-5.587,-5.882,-1.097
-699.138,675.427,150.740,-7.616,-5.723,-1.304
-700.360,653.113,142.129,-8.230,-5.799,-1.431
-709.475,640.803,141.181,-6.982,-5.310,-1.364
-720.874,631.318,147.139,-5.409,-4.888,-1.096
-729.672,631.048,142.551,-3.529,-4.842,-0.851
-729.725,651.652,138.850,-1.502,-4.430,-0.740
-726.400,668.181,138.476,-0.769,-3.723,-0.479
-721.513,670.656,135.498,-1.200,-3.237,-0.199
-718.056,672.883,142.148,-2.394,-3.004,-0.125
-719.173,670.636,145.791,-3.791,-3.040,-0.167
-716.321,667.953,145.638,-4.199,-2.974,-0.294
-712.000,668.000,153.000,-4.060,-2.660,-0.210
-706.793,663.735,150.890,-3.688,-2.431,0.036
-703.734,660.397,148.347,-2.642,-1.972,0.234
-705.831,659.560,149.693,-1.276,-1.585,0.314
-710.959,660.476,148.498,0.350,-1.279,0.240
-716.654,657.968,151.542,1.803,-0.799,0.356
-716.238,648.536,154.485,2.507,-0.388,0.633
-711.672,639.396,156.062,3.302,0.185,1.093
-709.046,631.613,155.134,4.470,0.551,1.643
-710.799,625.889,155.299,5.186,0.608,2.117
-717.563,631.175,157.723,5.261,0.756,2.646
-725.732,637.249,153.168,4.960,1.007,2.981
-730.555,629.278,146.483,4.415,1.349,3.321
-732.323,631.131,146.606,3.828,1.604,3.518
-733.113,651.400,146.537,3.548,1.772,3.511
-734.000,669.000,141.000,3.290,1.890,3.710
-733.448,678.088,138.898,2.361,2.067,3.676
-728.833,683.909,139.230,1.126,2.228,3.426
-723.009,689.161,138.751,-0.049,2.262,3.212
-718.939,681.797,138.559,-1.240,2.380,2.862
-717.810,666.144,133.692,-1.604,2.316,2.283
-717.783,656.375,131.059,-1.011,2.030,1.812
-715.853,657.786,133.095,0.033,1.726,1.595
-714.197,677.188,132.142,1.688,1.482,1.408
-709.516,697.458,131.655,2.972,1.365,1.396
-703.457,710.849,133.113,2.874,1.181,1.360
-699.604,712.356,131.088,1.336,1.077,1.325
-697.405,694.399,124.989,-0.953,0.993,1.275
-701.935,684.097,121.771,-1.871,0.764,0.928
-706.207,691.753,126.040,-1.199,0.521,0.684
-704.000,702.000,133.000,-0.700,0.280,0.770
-698.077,701.432,135.179,-1.117,0.206,1.074
-692.850,688.496,133.788,-2.201,0.259,1.291
-696.804,674.436,136.434,-3.029,0.351,1.462
-705.409,658.940,141.783,-3.337,0.515,1.813
-712.347,641.888,144.690,-3.097,0.709,2.159
-716.450,636.101,145.016,-1.879,0.986,2.548
-715.893,643.813,147.374,-0.156,1.357,2.971
-714.217,654.207,153.598,0.888,1.658,3.335
-709.981,665.949,154.951,0.558,2.049,3.599
-707.938,677.038,148.778,-0.400,2.542,3.718
-711.007,679.241,142.792,-1.420,2.773,3.602
-714.826,678.489,142.305,-2.719,2.971,3.273
-720.668,673.620,140.792,-3.723,3.097,3.001
-721.723,664.819,133.978,-3.806,3.174,2.676
-721.000,657.000,130.000,-3.220,3.360,2.450
-725.447,645.100,125.783,-2.083,3.367,2.343
-725.931,648.016,123.676,0.066,3.354,2.087
-722.837,664.134,129.332,2.384,3.381,1.984
-720.455,672.442,130.755,3.836,3.535,1.884
-715.890,679.915,130.536,4.796,3.650,1.664
-710.758,684.591,135.037,4.994,3.550,1.396
-704.479,688.422,135.837,4.429,3.575,1.022
-699.207,691.231,132.291,3.821,3.575,0.721
-698.682,684.537,128.796,3.403,3.511,0.468
-700.165,681.578,125.158,3.468,3.455,0.286
-702.022,685.840,123.290,4.374,3.397,0.072
-703.322,688.435,124.681,5.654,3.306,0.022
-704.347,685.731,122.910,6.012,3.202,0.174
-706.381,682.692,119.777,5.879,3.221,0.127
-709.000,680.000,120.000,5.950,3.080,0.140
-709.439,679.837,118.425,5.818,2.832,0.098
-704.106,692.079,116.193,5.926,2.641,-0.066
-698.887,699.697,116.945,5.670,2.523,0.006
-699.954,697.169,122.277,4.432,2.514,0.105
-700.874,694.707,124.988,3.102,2.380,0.011
-701.394,686.222,120.992,2.214,2.206,-0.175
-706.581,670.709,117.697,1.645,2.094,-0.208
-715.339,657.453,111.464,1.625,2.094,-0.268
-721.553,660.325,110.639,3.046,2.168,-0.415
-720.610,671.683,115.920,4.752,2.156,-0.341
-715.575,679.306,114.715,5.394,2.238,-0.195
-710.988,687.925,116.376,5.347,2.351,-0.113
-708.075,692.489,115.995,4.367,2.385,-0.177
-704.450,688.914,111.510,3.022,2.378,-0.289
-704.000,677.000,110.000,1.750,2.450,-0.280
-708.519,666.373,108.905,1.020,2.698,-0.282
-708.298,669.644,110.639,1.882,2.801,-0.204
-703.954,676.023,109.916,3.102,2.804,0.080
-702.477,680.350,104.987,3.678,2.739,0.533
-703.623,688.555,98.528,3.868,2.484,0.859
-708.443,697.674,94.181,3.390,2.256,0.902
-715.495,699.872,88.385,2.368,1.846,0.750
-719.808,695.451,82.114,1.400,1.231,0.382
-722.291,690.482,84.707,0.515,0.835,-0.034
-724.095,690.410,91.638,0.105,0.491,-0.559
-717.487,689.506,103.976,0.163,-0.152,-0.999
-705.793,682.207,106.939,-0.428,-0.881,-1.025
-701.856,673.932,98.990,-1.035,-1.385,-0.967
-707.381,658.438,99.446,-1.195,-1.635,-0.897
-719.000,652.000,101.000,-0.630,-1.750,-0.910
-726.009,664.566,104.968,1.183,-1.822,-1.098
-721.575,681.691,110.416,2.532,-1.697,-1.143
-713.097,700.602,111.111,2.461,-1.391,-1.062
-707.118,700.779,110.470,1.068,-1.127,-1.096
-706.227,688.133,107.691,-0.682,-0.883,-1.417
-710.036,675.761,104.163,-1.578,-0.652,-1.831
-714.274,664.666,100.817,-1.088,-0.475,-2.039
-716.062,669.322,100.843,0.943,-0.174,-2.043
-712.459,676.453,102.788,2.973,0.397,-1.713
-706.619,684.846,103.092,4.528,1.128,-1.339
-707.371,688.233,102.583,5.231,1.792,-1.154
-714.672,682.940,101.430,4.542,2.363,-0.990
-723.857,688.639,101.085,3.519,3.018,-1.128
-733.406,693.029,103.692,1.933,3.854,-1.349
-739.000,691.000,110.000,-0.420,4.900,-1.400
-732.251,688.467,115.394,-3.020,5.944,-1.467
-715.121,685.696,119.008,-5.602,6.798,-1.456
-701.276,682.430,121.533,-7.582,7.265,-1.602
-695.420,677.037,122.177,-8.630,7.193,-1.940
-693.405,676.301,121.358,-8.615,7.005,-2.324
-692.700,676.480,118.257,-7.597,6.809,-2.633
-690.941,669.174,115.776,-5.702,6.643,-2.575
-694.404,656.096,109.685,-2.907,6.527,-2.334
-703.124,643.140,101.934,0.465,6.231,-1.886
-710.743,637.715,99.212,3.828,5.968,-1.364
-718.386,644.895,95.327,6.842,5.724,-1.188
-718.457,663.143,94.380,9.054,5.528,-1.006
-712.201,682.267,96.114,9.488,5.424,-0.665
-709.808,694.308,92.044,7.926,5.204,-0.380
-707.000,697.000,86.000,5.320,4.760,-0.140
-703.191,690.993,83.901,2.236,4.148,0.099
-705.034,687.625,85.420,-0.653,3.639,0.362
-712.406,688.640,87.228,-2.413,3.173,0.460
-718.767,685.770,88.224,-3.235,2.656,0.335
-721.956,680.818,85.689,-3.599,2.088,0.113
-724.361,672.735,83.866,-3.595,1.575,-0.229
-725.076,663.391,82.813,-2.846,1.157,-0.666
-727.722,655.718,80.116,-1.251,0.674,-1.155
-730.506,644.028,79.863,0.236,-0.091,-1.498
-734.053,632.358,81.615,1.091,-1.475,-1.655
-741.612,629.662,90.124,1.395,-3.437,-2.003
-743.384,640.261,99.568,1.593,-5.818,-2.590
-733.454,657.135,100.097,2.193,-7.849,-3.035
-712.866,673.535,94.251,3.060,-8.180,-2.956
-707.000,686.000,99.000,2.940,-7.350,-2.380
-724.163,679.489,113.231,0.319,-8.522,-2.121
-722.425,665.327,107.990,-2.500,-11.446,-2.775
-706.266,666.585,99.030,-2.939,-11.922,-3.198
-704.506,672.084,98.555,-2.440,-10.114,-2.642
-706.566,671.075,92.149,-1.537,-7.987,-2.191
-711.631,669.829,88.607,-0.405,-5.951,-1.856
-718.382,670.123,85.691,0.336,-4.602,-1.372
-721.793,675.283,83.883,1.192,-3.387,-1.257
-723.243,687.011,86.455,1.924,-2.325,-1.314
-721.278,698.292,89.455,2.107,-1.896,-1.416
-720.852,701.937,98.027,1.043,-2.096,-1.562
-717.190,696.703,108.352,-1.315,-3.046,-1.840
-708.145,690.296,111.956,-3.653,-4.404,-2.323
-702.603,684.967,104.343,-4.936,-5.234,-2.701
-704.000,675.000,98.000,-4.970,-5.040,-2.800
-709.253,667.093,104.860,-4.564,-4.822,-2.735
-712.666,672.892,106.262,-3.797,-4.907,-2.706
-712.237,686.644,98.547,-3.031,-4.804,-2.409
-709.149,695.644,97.286,-3.255,-4.486,-1.920
-710.060,696.258,97.600,-4.027,-3.880,-1.701
-714.952,691.616,93.980,-4.879,-3.441,-1.689
-717.130,683.122,89.714,-5.497,-3.356,-1.752
-720.577,667.418,87.935,-6.042,-3.234,-1.628
-727.214,651.854,90.905,-6.391,-3.048,-1.422
-735.049,649.110,95.533,-5.439,-2.964,-1.362
-740.840,655.188,98.757,-3.916,-3.164,-1.250
-738.654,663.657,101.081,-2.906,-3.332,-1.163
-730.421,665.012,103.729,-2.699,-3.262,-1.083
-727.057,657.960,103.742,-3.038,-3.213,-0.977
-730.000,652.000,102.000,-2.590,-3.150,-1.120
-733.422,639.040,103.546,-1.723,-3.209,-1.202
-737.155,635.037,107.179,-0.806,-3.088,-1.119
-738.538,651.108,115.370,0.877,-2.553,-1.144
-735.242,659.789,127.435,1.816,-2.311,-1.044
-723.363,666.882,135.096,0.868,-2.306,-0.992
-710.852,678.790,135.339,-0.691,-2.329,-1.167
-708.058,671.665,128.324,-1.897,-2.458,-1.341
-710.670,653.018,121.303,-2.456,-2.456,-1.463
-716.386,647.744,119.274,-1.684,-2.303,-1.536
-722.904,646.395,117.649,-0.037,-1.959,-1.451
-726.752,641.653,116.557,1.444,-1.652,-1.078
-725.982,653.784,117.764,2.922,-1.422,-0.851
-722.893,669.549,119.257,3.897,-1.083,-0.821
-718.160,677.339,117.447,3.870,-0.805,-0.681
-714.000,686.000,113.000,3.290,-0.630,-0.700
-714.615,680.013,110.208,2.272,-0.517,-0.827
-717.765,669.852,109.730,1.364,-0.211,-0.890
-721.259,668.584,111.114,1.438,0.260,-0.959
-721.365,666.728,112.906,2.385,0.830,-0.970
-718.562,667.909,114.734,3.356,1.653,-0.858
-713.819,670.172,116.216,4.166,2.294,-0.751
-712.117,668.808,117.127,4.717,2.844,-0.697
-714.024,664.532,119.809,4.955,3.215,-0.698
-712.150,654.817,119.823,5.066,3.152,-0.627
-714.326,643.751,115.764,4.911,3.279,-0.201
-721.790,643.452,115.611,5.424,3.417,0.262
-731.393,655.094,117.478,6.652,3.483,0.524
-736.230,669.159,114.709,7.160,3.703,0.654
-730.841,680.290,110.404,6.174,3.788,0.715
-724.000,682.000,107.000,3.640,3.920,0.840
-721.658,672.177,105.094,1.058,4.056,0.737
-726.298,657.534,104.496,-0.144,4.022,0.560
-730.203,651.205,102.205,0.056,3.880,0.631
-731.249,658.826,99.906,0.834,3.669,0.806
-729.964,661.248,98.403,1.205,3.505,1.102
-727.717,657.511,96.482,1.381,3.207,1.270
-729.239,657.942,93.791,1.627,2.928,1.180
-733.603,652.583,92.042,1.867,2.815,1.059
-737.133,649.148,91.961,2.261,2.478,0.937
-734.204,654.657,92.450,2.865,2.148,0.822
-731.889,660.349,94.006,3.594,2.047,0.663
-728.607,670.118,96.357,3.919,1.862,0.478
-722.365,680.335,101.738,3.657,1.726,0.276
-721.004,680.176,102.490,3.137,1.667,-0.057
-720.000,670.000,98.000,2.800,1.540,-0.420
-718.166,659.915,97.991,3.221,1.416,-0.839
-717.321,656.787,95.994,4.411,1.339,-1.249
-715.409,660.017,94.368,6.130,1.326,-1.433
-712.062,672.763,95.020,7.680,1.352,-1.491
-710.375,686.222,91.059,8.332,1.425,-1.430
-706.732,691.587,87.407,8.146,1.375,-1.306
-702.984,691.943,84.725,7.272,1.251,-1.260
-706.610,690.249,80.330,6.364,1.070,-1.263
-710.980,684.226,77.278,5.343,0.816,-1.117
-715.957,674.753,76.804,4.113,0.609,-0.828
-720.023,673.077,77.702,3.735,0.271,-0.762
-724.189,675.979,80.490,3.555,0.112,-0.737
-728.840,675.495,84.102,2.687,0.147,-0.588
-727.601,673.731,87.426,1.594,0.141,-0.568
-725.000,670.000,88.000,0.910,0.140,-0.630
-720.514,658.222,86.904,0.770,0.070,-0.581
-721.621,647.544,88.091,0.961,0.163,-0.443
-729.245,648.912,86.206,2.080,0.267,-0.416
-730.515,653.843,84.865,3.491,0.318,-0.399
-727.794,667.494,86.443,4.009,0.507,-0.320
-725.579,681.969,85.746,3.700,0.757,-0.269
-726.206,678.142,84.886,2.472,0.915,-0.204
-729.760,664.913,81.350,1.061,0.913,-0.140
-731.758,657.977,78.801,0.400,0.861,-0.235
-732.596,659.582,80.087,0.358,0.773,-0.378
-732.769,659.380,78.820,0.483,0.812,-0.206
-730.484,661.906,78.049,0.265,0.824,-0.006
-726.743,669.508,79.307,-0.073,0.759,-0.014
-722.244,676.706,78.793,-0.059,0.770,-0.078
-718.000,672.000,77.000,-0.280,0.700,0.000
-718.492,660.501,75.158,-0.820,0.532,0.314
-722.022,664.110,75.402,-0.359,0.184,0.409
-725.145,675.061,77.127,0.731,-0.122,0.596
-728.282,697.692,75.582,0.660,-0.322,1.150
-726.535,716.484,71.335,-1.250,-0.609,1.485
-723.697,714.339,68.606,-5.077,-0.903,1.526
-725.193,700.357,67.981,-9.559,-1.138,1.223
-726.958,672.996,67.941,-12.845,-1.498,0.671
-726.373,657.571,70.695,-14.105,-2.118,0.177
-724.890,656.344,76.931,-13.243,-2.443,-0.224
-725.149,651.070,81.261,-11.544,-2.439,-0.190
-723.998,645.925,84.848,-9.801,-2.451,0.141
-722.914,645.325,89.145,-7.622,-2.326,0.202
-722.797,648.604,91.236,-5.426,-2.143,0.222
-720.000,653.000,93.000,-3.710,-1.960,0.280
-720.502,655.354,93.245,-2.745,-1.825,0.276
-723.477,650.839,91.312,-2.269,-1.865,0.295
-724.890,652.135,91.588,-1.666,-1.891,0.221
-726.854,660.441,95.271,-1.175,-1.672,0.256
-726.268,669.927,99.264,-1.064,-1.347,0.411
-724.631,677.634,99.715,-1.583,-1.059,0.619
-721.635,671.255,96.698,-2.516,-0.908,0.850
-717.118,664.384,92.334,-3.120,-0.974,0.785
-720.233,656.480,89.169,-3.333,-0.987,0.595
-727.228,650.182,90.022,-2.705,-1.005,0.433
-730.343,661.084,92.044,-1.200,-1.113,0.212
-730.389,668.432,91.304,-0.101,-1.094,0.152
-726.679,666.133,89.529,0.182,-1.039,0.337
-724.977,666.334,89.007,0.510,-1.062,0.225
-724.000,670.000,89.000,1.400,-1.260,-0.280
-722.780,672.724,87.336,2.109,-1.569,-0.595
-724.373,676.460,86.402,2.525,-1.777,-0.907
-720.936,684.517,89.176,3.305,-1.881,-1.376
-717.546,679.438,89.062,3.882,-1.893,-1.664
-716.371,660.507,83.955,4.219,-2.060,-1.795
-716.269,649.646,82.013,5.093,-2.364,-1.918
-719.264,649.202,83.087,6.481,-2.371,-1.954
-722.718,656.073,85.588,7.647,-2.308,-1.708
-725.243,672.430,93.736,7.774,-2.287,-1.375
-720.910,690.060,101.708,6.735,-1.941,-1.273
-713.190,695.249,103.360,4.936,-1.464,-1.202
-707.620,689.276,102.585,3.332,-1.123,-1.067
-706.056,677.958,101.750,2.321,-0.934,-1.051
-709.928,663.929,100.780,1.794,-0.722,-0.955
-719.000,652.000,98.000,2.310,-0.280,-0.840
-729.770,641.998,94.470,3.469,0.102,-0.849
-735.112,639.908,90.770,4.484,0.298,-0.696
-737.423,644.146,84.105,5.298,0.450,-0.529
-737.709,651.592,78.180,5.583,0.518,-0.436
-738.653,663.037,74.906,4.801,0.597,-0.304
-741.466,667.035,72.427,2.954,0.611,-0.290
-741.981,665.922,69.819,1.063,0.318,-0.355
-740.302,664.173,69.752,-0.445,-0.112,-0.415
-735.128,665.162,75.355,-1.898,-0.379,-0.476
-730.815,675.883,81.939,-2.757,-0.557,-0.541
-724.238,683.027,86.620,-3.307,-0.725,-0.552
-717.159,681.414,88.318,-4.205,-0.793,-0.405
-714.138,673.787,87.805,-4.689,-0.867,-0.244
-713.355,659.642,86.707,-4.577,-0.910,-0.207
-721.000,645.000,84.000,-3.920,-0.910,-0.140
-728.349,634.689,83.740,-2.497,-0.973,-0.016
-732.525,635.633,85.099,-0.833,-0.951,0.091
-735.710,644.381,83.869,0.623,-0.782,0.295
-732.428,653.932,82.442,1.459,-0.640,0.564
-728.916,661.204,84.016,1.290,-0.640,0.756
-727.763,666.185,87.911,0.515,-0.612,0.750
-726.917,671.253,91.228,-0.109,-0.478,0.621
-724.329,670.326,93.845,-0.536,-0.296,0.561
-719.807,665.374,95.507,-0.614,-0.063,0.598
-717.559,657.589,98.233,-0.279,0.262,0.781
-719.959,649.537,98.185,0.523,0.651,0.860
-724.862,650.577,94.741,2.287,0.826,0.860
-723.866,661.523,97.193,3.645,1.115,1.037
-719.362,680.853,97.589,4.120,1.696,1.135
-714.000,689.000,94.000,4.270,2.100,1.470
-706.571,683.849,90.744,3.204,2.408,2.091
-708.299,677.636,85.839,1.441,2.586,2.460
-717.797,669.955,84.430,0.271,2.535,2.590
-725.614,673.238,82.916,0.020,2.286,2.575
-730.492,682.770,81.654,-0.074,1.868,2.619
-733.360,696.338,77.329,-0.598,1.552,2.665
-731.687,701.591,70.841,-2.211,1.395,2.738
-728.069,689.838,75.423,-4.809,1.402,2.687
-729.579,683.232,79.343,-5.721,1.128,2.117
-728.662,674.910,77.188,-4.920,0.396,1.541
-724.655,665.993,77.576,-4.183,-0.158,1.248
-726.499,656.348,77.898,-2.971,-0.491,1.200
-731.390,642.577,78.691,-1.196,-0.642,1.273
-734.175,646.065,85.404,0.559,-0.435,1.153
-732.000,669.000,94.000,2.590,0.070,0.770
-722.940,695.930,98.452,4.023,0.630,0.438
-710.023,707.122,101.267,3.377,0.982,0.390
-703.997,703.040,96.755,2.146,1.151,0.127
-707.261,688.708,86.382,1.789,1.237,-0.276
-713.847,668.296,77.879,1.937,1.402,-0.643
-724.494,652.752,70.594,2.790,1.457,-1.070
-730.011,643.919,67.965,4.336,1.322,-1.347
-726.358,656.299,68.817,6.172,1.325,-1.533
-723.226,676.143,72.374,7.289,1.348,-1.463
-723.192,685.266,71.154,7.134,1.179,-1.178
-724.737,689.929,62.835,6.210,0.810,-1.163
-721.541,680.621,61.323,4.586,0.528,-1.525
-717.385,666.291,61.740,3.467,0.361,-1.941
-719.302,660.668,61.110,4.007,0.100,-2.284
-717.000,663.000,63.000,4.970,-0.070,-2.380
-712.460,672.255,65.378,5.474,-0.134,-2.306
-708.674,684.313,70.092,5.715,-0.149,-2.378
-704.571,692.230,69.933,5.179,-0.122,-2.282
-709.828,677.614,62.506,3.667,-0.225,-2.034
-717.519,653.014,56.357,2.484,-0.575,-1.829
-724.787,653.712,58.041,2.546,-0.886,-1.961
-730.122,672.451,63.338,2.870,-0.905,-2.249
-727.410,684.713,65.923,2.320,-0.841,-2.118
-721.453,681.832,65.485,1.116,-0.923,-1.968
-716.164,675.389,63.745,0.128,-1.230,-1.982
-717.910,675.213,65.266,-0.196,-1.375,-2.152
-723.130,673.791,65.794,-0.215,-1.309,-2.259
-727.131,670.996,64.666,-0.184,-1.476,-2.249
-730.448,663.181,62.534,-0.057,-1.710,-2.310
-734.000,650.000,61.000,-0.070,-1.890,-2.170
-737.778,647.200,63.717,0.201,-2.023,-2.096
-737.894,654.995,63.949,0.585,-2.028,-2.077
-738.519,665.280,65.888,0.204,-2.067,-1.871
-734.828,677.516,69.942,-0.853,-2.117,-1.623
-727.161,686.395,71.132,-2.515,-2.083,-1.542
-721.649,684.024,69.204,-4.315,-2.129,-1.620
-716.877,667.520,65.894,-5.756,-2.408,-1.530
-721.338,653.509,67.726,-6.070,-2.777,-1.531
-729.417,649.370,70.585,-4.801,-2.984,-1.580
-736.680,641.136,71.956,-3.110,-3.095,-1.272
-743.519,641.339,71.277,-1.346,-3.240,-0.972
-742.206,659.472,71.960,0.233,-3.291,-1.064
-735.517,677.815,76.081,0.941,-3.173,-1.211
-725.347,687.861,75.602,0.484,-3.079,-1.191
-718.000,684.000,73.000,-0.840,-3.220,-1.330
-719.278,665.951,71.987,-2.055,-3.468,-1.461
-725.001,651.519,73.195,-2.269,-3.622,-1.556
-730.605,650.698,75.851,-1.605,-3.622,-1.676
-731.888,655.110,78.364,-1.379,-3.496,-1.431
-730.151,655.336,80.809,-1.717,-3.396,-1.049
-728.556,654.143,82.443,-2.538,-3.241,-0.688
-725.732,662.027,86.408,-3.244,-2.991,-0.487
-722.239,676.211,90.842,-3.401,-2.750,-0.496
-719.539,679.182,90.500,-4.099,-2.493,-0.321
-717.264,672.580,88.955,-4.493,-2.391,-0.253
-717.574,664.340,88.972,-4.140,-2.308,-0.282
-722.805,649.015,86.503,-3.344,-2.035,-0.121
-730.156,636.422,85.102,-2.130,-1.853,0.048
-735.640,636.579,87.295,-0.749,-1.722,0.249
-738.000,641.000,87.000,0.630,-1.470,0.630
-737.415,648.860,86.677,0.951,-1.170,1.187
-733.361,666.457,89.970,0.484,-0.816,1.466
-730.141,678.733,91.809,-0.839,-0.463,1.456
-729.098,673.835,89.312,-2.964,-0.285,1.480
-725.412,671.561,87.977,-4.276,-0.282,1.286
-725.439,676.682,89.132,-4.548,-0.166,0.892
-727.048,668.698,86.641,-4.406,0.006,0.699
-728.713,645.852,81.362,-4.546,-0.057,0.829
-732.526,628.171,78.204,-3.823,-0.243,0.816
-733.838,631.637,78.420,-1.316,-0.354,0.665
-736.921,650.922,80.011,1.056,-0.285,0.854
-734.431,674.619,81.775,2.146,-0.176,1.032
-726.788,687.783,81.391,1.609,-0.246,1.057
-721.140,679.724,77.375,-0.144,-0.370,1.036
-717.000,663.000,76.000,-1.540,-0.560,0.840
-720.200,651.656,78.458,-1.812,-0.811,0.593
-723.209,653.824,83.089,-1.042,-0.914,0.464
-721.638,664.795,88.806,0.035,-0.848,0.677
-720.147,671.429,89.683,0.712,-0.660,0.995
-720.201,668.202,86.660,0.645,-0.533,1.196
-722.605,654.419,83.348,0.112,-0.578,1.339
-725.190,645.963,83.161,0.423,-0.631,1.087
-726.956,652.322,85.874,1.897,-0.571,0.716
-726.392,658.455,86.085,3.492,-0.391,0.673
-723.650,660.054,86.145,4.491,-0.276,0.810
-718.687,662.375,84.370,5.177,-0.301,0.817
-716.586,661.994,80.359,5.774,-0.214,0.789
-718.946,657.725,80.479,6.129,-0.007,1.092
-723.961,660.243,82.166,6.674,0.164,1.264
-730.000,673.000,82.000,6.930,0.280,1.330
-733.496,681.008,80.218,6.206,0.329,1.639
-736.556,675.382,79.851,4.763,0.593,1.767
-736.525,665.918,79.616,3.375,0.814,1.652
-734.778,670.806,79.057,2.986,0.709,1.375
-728.769,684.605,82.458,2.650,0.875,1.097
-720.415,685.826,82.449,1.628,1.073,0.967
-716.825,677.387,81.104,0.554,1.125,1.064
-715.870,673.037,83.905,-0.126,1.129,1.189
-719.951,675.039,81.423,0.225,0.993,1.176
-721.710,678.920,75.114,0.998,0.991,1.264
-719.959,680.185,70.013,1.017,0.910,1.161
-722.636,676.339,66.742,0.362,0.785,0.986
-727.450,668.741,63.947,-0.183,0.520,0.855
-731.444,667.515,60.726,-0.073,0.169,0.586
-732.000,673.000,62.000,0.630,-0.070,0.350
-729.555,674.074,63.849,1.001,-0.494,0.274
-725.317,675.565,65.819,0.735,-0.836,0.274
-721.632,679.104,69.335,0.813,-1.057,-0.049
-720.724,672.833,70.224,0.903,-1.149,-0.291
-723.241,658.031,71.761,0.710,-1.251,-0.277
-726.353,649.091,73.293,0.963,-1.427,-0.387
-725.964,653.730,76.370,1.994,-1.390,-0.574
-726.907,664.271,80.813,3.293,-1.149,-0.639
-725.900,671.258,81.811,3.453,-0.716,-0.450
-721.836,671.811,82.959,2.505,-0.463,-0.445
-719.798,670.215,81.878,1.581,-0.331,-0.533
-718.326,674.557,81.353,1.283,-0.081,-0.614
-719.585,678.457,83.161,1.457,0.239,-0.701
-719.715,676.506,79.118,1.345,0.433,-0.528
-717.000,673.000,76.000,0.770,0.490,-0.420
-717.522,670.916,77.739,0.462,0.722,-0.361
-721.641,673.050,78.314,0.929,1.035,-0.334
-724.163,675.873,76.526,1.385,1.224,-0.393
-719.719,681.695,72.767,1.295,1.081,-0.470
-716.743,688.927,68.233,0.822,0.950,-0.620
-721.250,682.914,64.182,-0.129,0.768,-0.714
-726.418,663.503,61.893,-1.504,0.312,-0.778
-732.552,652.152,61.835,-2.247,-0.231,-1.020
-738.105,653.775,67.551,-1.860,-1.074,-1.412
-749.912,651.239,78.877,-3.184,-3.410,-1.568
-754.795,646.814,82.855,-6.679,-8.464,-2.169
-727.372,653.895,76.862,-7.912,-12.544,-3.430
-707.609,669.807,75.602,-6.113,-12.860,-3.578
-712.788,678.594,77.984,-4.438,-12.233,-2.754
-709.000,681.000,74.000,-3.640,-11.200,-2.310
-705.485,686.373,74.181,-3.132,-9.104,-1.845
-710.014,687.073,78.913,-2.816,-6.878,-1.327
-712.410,682.362,77.091,-2.127,-4.853,-1.249
-715.935,672.951,75.639,-1.473,-3.341,-1.206
-718.845,660.763,73.921,-1.371,-2.558,-0.935
-723.397,660.298,73.801,-0.757,-1.954,-0.749
-730.499,670.828,81.585,0.270,-1.531,-0.776
-734.019,677.734,84.132,0.448,-1.787,-0.837
-730.487,680.612,82.239,-0.123,-2.008,-0.893
-724.664,676.898,81.890,-0.819,-1.573,-0.935
-724.496,652.748,87.742,-1.650,-1.053,-0.825
-726.742,630.298,94.713,-2.065,-1.234,-0.786
-726.513,634.747,86.990,-0.419,-1.710,-0.962
-723.517,651.659,88.590,2.581,-1.553,-0.863
-723.000,667.000,100.000,3.850,-1.330,-0.490
-725.841,674.887,100.695,3.241,-1.614,-0.458
-724.628,669.827,92.195,2.067,-1.950,-0.704
-724.902,655.166,81.956,0.937,-1.798,-0.872
-731.916,636.008,94.810,0.106,-1.755,-0.923
-732.472,619.089,103.672,-0.755,-2.664,-0.896
-722.329,629.547,84.675,0.065,-3.349,-0.796
-714.709,662.403,69.457,2.483,-2.954,-0.292
-713.913,683.140,69.697,3.760,-2.097,0.569
-716.701,690.748,70.311,3.417,-1.370,1.134
-723.678,695.569,65.614,2.530,-1.007,1.202
-731.157,696.730,77.965,1.317,-0.825,0.906
-731.814,687.394,86.539,-1.252,-1.108,0.560
-722.597,680.196,69.577,-3.236,-1.448,0.366
-717.000,679.054,55.972,-3.447,-1.302,0.188
-723.000,663.000,57.000,-3.920,-1.330,0.140
-731.681,658.078,62.476,-3.475,-1.510,-0.070
-739.949,675.297,65.824,-1.329,-1.813,-0.575
-744.045,685.853,75.526,0.516,-2.306,-0.862
-738.464,685.096,81.591,0.476,-2.776,-0.945
-726.353,673.513,76.542,-1.060,-3.240,-1.016
-721.950,660.175,72.473,-2.069,-3.470,-1.271
-724.178,651.781,73.221,-1.590,-3.734,-1.633
-726.761,662.202,77.543,0.188,-3.920,-1.814
-727.857,687.422,87.361,1.925,-3.864,-1.791
-721.935,701.146,102.546,1.800,-3.745,-1.554
-718.427,700.178,102.716,-0.180,-3.469,-1.422
-717.081,676.202,94.538,-2.674,-3.472,-1.551
-717.994,649.407,87.673,-4.451,-3.460,-1.716
-725.306,639.527,84.396,-4.316,-3.268,-1.654
-733.000,650.000,92.000,-2.450,-3.150,-1.470
-734.721,677.718,93.135,-0.531,-2.962,-1.250
-727.208,688.099,95.977,-0.374,-2.821,-0.763
-722.723,688.576,100.315,-2.406,-2.399,-0.532
-723.306,690.166,99.748,-4.262,-1.989,-0.852
-724.231,688.301,98.855,-4.917,-1.838,-1.429
-723.543,685.487,89.575,-4.781,-1.742,-2.003
-724.439,669.371,83.773,-3.837,-1.829,-2.332
-735.905,650.924,77.799,-2.530,-1.888,-2.753
-748.129,645.589,67.492,0.487,-1.902,-3.472
-752.320,648.659,64.281,4.878,-1.768,-4.048
-745.382,651.384,68.957,8.709,-1.556,-4.120
-736.308,654.364,83.290,12.053,-1.392,-4.036
-731.516,658.797,92.131,14.461,-1.196,-4.079
-726.254,671.509,93.842,15.541,-0.824,-4.140
-723.000,683.000,108.000,14.770,-0.000,-4.130
-723.336,681.183,118.217,12.135,0.964,-3.777
-729.047,684.568,111.639,9.548,2.083,-3.529
-727.242,691.019,104.848,7.427,3.136,-3.762
-718.163,685.209,100.820,5.070,3.667,-3.848
-716.065,657.589,95.916,2.862,4.083,-3.764
-720.368,638.345,89.518,1.545,4.391,-3.890
-728.727,642.298,85.917,1.184,4.563,-3.907
-737.471,638.626,85.181,1.303,4.688,-3.537
-741.211,632.496,81.102,1.934,4.600,-3.089
-738.269,633.482,77.394,3.133,4.354,-2.812
-735.523,644.759,77.882,4.294,4.206,-2.572
-734.266,650.881,81.714,4.522,4.170,-2.188
-734.181,654.992,81.317,4.329,3.865,-1.921
-733.487,673.812,81.475,4.576,3.437,-2.066
-726.000,680.000,84.000,3.990,3.010,-2.170
-718.624,673.362,76.553,2.466,2.586,-2.040
-717.140,662.052,69.077,1.205,2.044,-2.104
-722.271,650.946,65.763,0.419,1.339,-2.296
-733.053,643.016,62.163,-0.021,0.959,-2.226
-743.258,627.723,60.729,-0.739,0.611,-1.891
-747.334,622.900,63.015,-1.328,0.073,-1.648
-746.857,639.821,68.256,-1.079,-0.614,-1.690
-740.839,661.051,67.229,-0.747,-1.102,-1.702
-730.575,662.653,68.188,-2.054,-1.341,-1.138
-736.175,657.011,77.838,-5.075,-2.391,-0.767
-748.465,650.384,83.186,-8.070,-5.089,-1.352
-749.882,629.417,83.141,-10.049,-8.751,-2.025
-755.469,614.451,92.256,-10.847,-12.130,-2.531
-758.369,602.009,105.176,-11.847,-16.357,-2.914
-745.000,599.000,109.000,-11.760,-19.040,-3.010
-726.754,610.774,133.251,-11.098,-18.306,-2.202
-708.409,618.156,142.489,-13.445,-17.073,-0.424
-694.223,649.402,91.755,-14.535,-13.297,0.915
-695.891,689.675,66.263,-12.478,-8.266,2.021
-710.565,687.223,78.066,-11.168,-5.486,3.092
-732.310,655.249,76.061,-10.889,-3.441,3.657
-753.402,628.248,80.694,-10.675,-2.727,3.605
-768.120,605.700,83.421,-9.644,-2.622,2.859
-775.146,590.892,77.895,-7.804,-2.244,2.316
-769.461,600.989,82.088,-5.784,-2.371,1.962
-756.331,627.622,84.211,-3.279,-2.246,1.720
-739.970,660.930,83.155,-0.859,-2.034,2.007
-725.111,676.878,89.200,-0.608,-1.891,2.413
-718.512,675.945,91.916,-1.684,-1.464,2.513
-719.000,676.000,92.000,-2.310,-1.050,2.450
-724.789,666.794,95.009,-2.736,-0.804,2.573
-733.741,657.083,92.546,-2.167,-0.597,2.536
-744.149,652.501,93.751,-1.006,-0.570,2.160
-750.025,662.917,97.497,0.387,-0.709,1.507
-748.773,683.809,98.695,1.758,-0.797,0.797
-743.396,701.863,101.208,1.861,-0.849,0.210
-735.393,710.949,97.635,0.881,-0.836,-0.472
-729.285,698.519,96.782,-0.528,-0.773,-1.018
-728.359,677.927,98.433,-1.400,-0.847,-1.388
-731.824,656.787,96.319,-0.654,-1.227,-1.749
-733.457,647.568,101.242,1.746,-1.604,-2.083
-734.607,653.291,111.915,4.163,-1.690,-2.166
-733.915,661.968,117.973,5.705,-1.679,-2.084
-725.501,673.857,117.980,6.222,-1.675,-2.103
-719.000,684.000,120.000,5.530,-1.540,-2.100
-718.731,689.764,118.973,4.272,-1.292,-2.321
-721.996,687.940,110.750,3.039,-1.181,-2.705
-730.352,677.507,101.387,2.481,-1.242,-2.974
-742.796,650.228,89.185,2.228,-1.224,-3.228
-755.793,629.741,80.629,3.976,-1.057,-3.751
-765.364,641.539,77.253,9.011,-1.084,-4.487
-762.278,663.785,72.555,14.035,-1.270,-4.682
-750.834,684.969,67.182,16.768,-1.268,-4.492
-740.023,685.115,72.841,16.923,-1.109,-4.366
-725.530,672.827,94.163,15.454,-0.782,-4.331
-717.172,667.158,105.772,14.033,-0.387,-4.601
-716.840,645.305,106.341,13.178,-0.066,-4.625
-715.818,619.401,110.245,12.698,0.247,-4.193
-720.128,609.649,112.297,12.726,0.819,-3.798
-728.000,621.000,117.000,13.510,1.890,-3.500
-731.209,655.168,121.736,14.111,3.321,-3.208
-726.042,688.002,121.784,12.774,5.057,-2.747
-715.627,704.505,116.766,9.023,6.641,-2.303
-709.457,697.055,105.798,4.245,7.573,-2.039
-712.026,662.938,97.203,-0.466,8.201,-1.820
-724.597,628.101,90.330,-3.303,8.493,-1.860
-741.176,606.805,83.534,-2.891,8.385,-2.032
-752.462,597.351,77.508,-0.807,8.142,-1.668
-756.622,593.743,71.109,1.273,7.839,-0.726
-757.619,593.664,67.725,2.250,7.519,0.188
-758.025,609.955,65.539,2.927,7.002,0.623
-757.560,629.906,62.683,3.620,6.343,0.786
-756.456,641.076,60.319,2.578,5.671,1.195
-753.489,651.338,58.920,0.796,5.015,1.490
-752.000,654.000,60.000,-0.700,4.480,1.540
-753.098,654.178,63.332,-1.644,4.054,1.562
-749.373,662.373,67.401,-1.437,3.560,1.260
-741.077,667.959,67.326,-0.871,2.854,0.812
-735.265,666.572,64.566,-0.364,2.169,0.448
-733.829,660.651,61.271,0.144,1.624,0.185
-737.139,640.660,54.528,0.875,1.151,-0.038
-743.521,608.741,53.159,1.441,0.663,0.098
-751.264,592.986,54.984,2.689,0.241,0.473
-761.333,604.591,55.428,5.799,-0.186,0.588
-762.910,632.343,58.751,8.520,-0.469,0.954
-753.297,662.955,61.585,8.460,-0.526,1.561
-743.889,675.858,63.873,5.308,-0.737,1.970
-739.489,674.547,63.930,1.057,-0.884,1.986
-742.565,676.227,66.736,-1.957,-1.168,1.604
-742.000,672.000,70.000,-3.500,-1.190,1.120
-738.421,663.209,68.320,-4.836,-1.092,1.026
-735.420,653.469,67.026,-5.728,-1.269,1.142
-737.375,637.606,67.447,-5.497,-1.283,1.019
-744.984,624.323,70.054,-4.915,-1.790,0.974
-772.084,614.709,96.458,-5.691,-3.442,0.956
-831.421,613.896,151.961,-12.352,-12.897,-0.019
-781.340,625.378,140.603,-18.232,-27.666,-3.515
-647.394,652.445,78.617,-14.405,-28.480,-4.682
-635.484,678.405,76.515,-10.295,-16.707,-0.043
-683.734,672.946,80.142,-10.677,-8.687,2.873
-721.227,661.377,75.035,-10.917,-5.306,2.932
-753.074,667.897,84.734,-10.058,-3.082,3.460
-750.881,683.999,77.558,-8.908,-1.611,3.197
-741.752,692.045,74.461,-9.260,-0.409,2.934
-733.000,684.000,77.000,-10.640,0.070,2.800
-734.718,671.210,72.872,-12.033,0.064,2.480
-741.106,655.147,68.667,-12.149,0.179,2.314
-745.331,640.622,73.774,-10.439,0.122,2.010
-751.044,639.660,80.154,-7.944,-0.338,1.559
-746.264,654.252,75.985,-4.820,-0.647,1.139
-740.684,662.321,77.211,-2.790,-0.922,1.139
-733.539,661.090,84.545,-2.290,-1.283,0.943
-733.675,665.638,88.955,-1.932,-1.582,0.324
-734.241,668.026,87.693,-1.182,-1.966,-0.089
-729.611,665.336,95.548,-0.682,-2.158,-0.244
-730.386,655.426,109.222,-1.668,-2.482,-0.350
-724.229,657.174,102.629,-2.392,-2.855,-0.448
-722.861,662.734,95.520,-2.375,-2.706,-0.249
-727.570,653.997,99.546,-3.313,-2.319,0.114
-732.000,660.000,99.000,-3.570,-1.960,0.210
-737.822,667.854,97.916,-3.078,-1.768,0.254
-735.221,669.788,98.674,-3.506,-1.585,0.452
-732.973,676.802,100.214,-4.041,-1.127,0.478
-731.687,672.901,100.834,-4.404,-0.754,0.350
-729.800,661.571,97.483,-4.665,-0.686,0.226
-736.060,649.717,94.277,-4.254,-0.621,0.017
-745.658,626.724,89.564,-3.435,-0.793,-0.146
-750.876,600.060,85.986,-2.306,-0.982,-0.143
-751.031,605.764,89.519,0.432,-0.868,-0.133
-749.950,634.515,95.640,4.406,-0.731,-0.131
-741.711,657.241,97.015,6.992,-0.410,0.129
-732.878,680.223,96.269,7.265,-0.021,0.503
-733.834,686.957,104.094,5.229,0.515,0.505
-734.897,670.912,108.821,1.779,0.583,0.054
-734.000,651.000,103.000,-0.910,0.210,-0.420
-737.835,631.859,99.996,-2.039,0.122,-0.502
-745.085,616.015,101.596,-1.991,-0.530,-0.433
-744.264,618.822,107.397,-0.762,-1.064,-0.338
-739.423,642.324,111.252,1.128,-1.210,-0.010
-734.680,656.135,110.615,1.602,-1.480,0.322
-729.199,660.868,107.804,0.327,-1.452,0.525
-731.364,657.154,99.360,-1.388,-1.474,0.556
-735.675,646.282,95.929,-2.618,-1.351,0.492
-741.487,649.058,96.428,-2.530,-1.091,0.492
-744.547,649.705,94.622,-1.875,-0.920,0.477
-738.953,654.637,96.741,-1.428,-0.716,0.537
-735.960,667.235,98.507,-1.167,-0.558,0.532
-730.414,675.839,101.238,-1.115,-0.355,0.356
-722.102,687.436,103.965,-1.131,-0.191,0.092
-720.000,683.000,99.000,-1.400,-0.140,-0.210
-720.394,658.111,94.108,-2.067,-0.310,-0.284
-728.921,635.972,96.399,-2.325,-0.554,-0.306
-740.108,627.678,101.119,-0.984,-0.880,-0.465
-741.222,631.006,101.848,1.344,-1.414,-0.418
-736.939,645.466,103.082,2.950,-1.810,-0.042
-730.332,658.884,107.977,2.487,-2.207,0.357
-725.906,659.926,107.757,0.305,-2.608,0.571
-727.725,661.655,105.049,-1.826,-2.545,0.690
-731.862,667.320,105.231,-3.172,-2.134,0.818
-736.582,674.874,102.493,-3.801,-1.696,0.856
-738.525,676.503,99.762,-4.730,-1.309,0.825
-736.742,668.948,100.301,-6.215,-0.955,0.845
-734.337,661.946,99.684,-7.223,-0.596,0.704
-734.166,653.425,98.811,-7.283,-0.411,0.451
-736.000,642.000,96.000,-6.230,-0.490,0.210
-738.484,632.080,96.175,-4.881,-0.618,0.181
-742.068,628.276,102.739,-3.500,-0.708,0.361
-743.693,634.795,103.874,-1.442,-1.031,0.181
-740.229,651.186,103.419,0.545,-1.482,0.052
-733.373,660.689,110.292,0.955,-1.665,0.182
-730.749,657.869,116.774,-0.503,-2.121,0.103
-728.749,653.785,113.446,-2.116,-2.922,-0.084
-726.905,654.608,107.180,-2.586,-3.223,-0.208
-729.531,659.358,109.473,-2.702,-3.057,-0.115
-730.414,651.845,115.406,-3.386,-2.952,0.074
-732.260,646.691,114.361,-4.466,-3.198,0.266
-732.215,650.949,114.416,-5.723,-3.427,0.594
-730.919,641.280,123.514,-7.126,-3.435,1.053
-730.621,644.383,119.240,-7.798,-3.500,1.355
-725.000,663.000,112.000,-7.700,-3.150,1.470
-722.815,661.207,116.854,-8.087,-2.362,1.821
-724.233,643.150,112.685,-8.473,-1.614,2.189
-729.410,625.434,110.851,-7.385,-0.974,2.221
-741.478,623.243,111.838,-4.624,-0.626,1.858
-746.287,637.469,111.930,-0.820,-0.560,1.392
-742.915,654.394,118.127,1.831,-0.654,1.360
-737.582,662.170,115.484,1.588,-0.616,1.469
-734.854,660.322,110.207,0.235,-0.368,1.282
-740.381,655.260,108.268,-0.898,-0.176,1.025
-744.073,651.043,109.065,-1.515,-0.057,0.866
-739.177,651.707,114.626,-1.302,-0.192,0.876
-733.249,655.060,118.214,-1.750,-0.456,1.072
-726.820,667.762,121.159,-2.742,-0.455,1.109
-721.475,677.349,127.024,-3.856,-0.248,1.140
-720.000,673.000,131.000,-5.600,-0.140,1.330
-719.776,666.758,125.306,-7.151,-0.041,1.501
-723.160,647.014,119.781,-8.276,0.348,1.846
-729.611,620.094,122.090,-8.320,0.765,2.107
-735.919,618.133,122.757,-6.211,1.045,2.015
-735.480,642.739,121.840,-2.493,1.115,1.839
-726.563,666.603,121.730,0.497,1.039,1.945
-718.684,682.985,116.352,1.168,1.049,2.179
-720.459,682.353,107.550,0.126,0.926,2.114
-729.614,658.878,102.654,-1.559,0.740,1.891
-739.562,654.919,100.673,-1.779,0.474,1.500
-745.856,666.674,103.277,-0.217,-0.105,1.151
-741.599,669.938,107.465,0.336,-0.613,1.139
-734.169,676.201,108.258,-0.894,-0.811,1.073
-731.830,675.747,111.651,-2.381,-0.926,0.787
-731.000,660.000,114.000,-3.570,-0.980,0.420
-731.737,650.743,116.303,-3.866,-0.978,0.108
-733.058,655.278,119.946,-2.865,-0.984,-0.098
-731.414,654.947,119.611,-1.518,-0.993,-0.195
-728.443,656.988,124.325,-0.284,-1.157,-0.231
-727.497,660.542,126.638,0.212,-1.282,-0.323
-723.876,661.513,123.723,0.119,-1.253,-0.451
-722.129,661.524,124.976,-0.025,-1.261,-0.565
-724.876,647.230,119.558,-0.528,-1.260,-0.504
-726.227,640.364,117.658,-0.455,-1.265,-0.311
-729.924,652.034,123.836,0.526,-1.186,-0.204
-725.912,666.909,126.010,1.238,-1.002,0.052
-717.915,678.267,129.951,0.485,-0.834,0.457
-717.100,680.563,128.620,-1.648,-0.628,0.679
-718.468,673.451,124.844,-4.058,-0.389,0.775
-725.000,664.000,126.000,-5.740,-0.280,0.630
-729.898,661.270,125.139,-6.330,-0.172,0.422
-728.736,657.470,125.081,-6.483,0.037,0.521
-726.040,654.759,123.539,-6.110,0.052,0.575
-723.898,652.694,120.164,-5.561,-0.064,0.586
-724.659,641.268,116.423,-5.405,-0.191,0.791
-730.954,638.656,113.757,-4.852,-0.301,0.915
-739.461,643.322,115.185,-3.838,-0.436,0.833
-740.235,650.974,117.785,-2.861,-0.684,0.834
-737.344,664.041,119.959,-2.453,-0.819,0.905
-735.745,658.228,119.043,-3.206,-0.933,0.913
-733.723,645.048,120.901,-4.421,-1.005,0.851
-734.499,650.636,126.260,-4.579,-0.962,0.518
-732.471,663.682,128.491,-3.678,-0.995,0.215
-724.930,670.320,131.616,-3.149,-0.968,0.136
-722.000,666.000,134.000,-3.850,-0.910,0.140
-721.288,659.466,132.262,-4.500,-0.916,0.038
-720.339,657.678,131.875,-3.907,-0.816,-0.195
-723.112,654.502,130.856,-3.134,-0.705,-0.130
-723.654,651.123,127.084,-2.308,-0.708,-0.057
-725.063,647.531,127.698,-1.350,-0.689,-0.056
-729.979,647.465,127.557,-0.806,-0.714,0.007
-732.087,648.916,125.985,-0.311,-0.773,0.002
-732.997,646.097,125.237,0.113,-0.831,0.066
-731.019,648.711,121.916,0.438,-0.964,0.113
-726.218,652.524,126.133,0.499,-0.951,0.320
-723.898,654.377,131.875,0.311,-0.859,0.501
-723.517,661.494,134.073,0.472,-0.824,0.470
-719.044,665.402,136.216,0.632,-0.730,0.518
-714.961,664.763,133.444,0.361,-0.521,0.655
-721.000,659.000,131.000,-0.000,-0.280,0.770
-729.924,645.741,126.760,-0.111,-0.207,0.659
-735.683,640.140,124.894,0.591,-0.252,0.511
-738.431,644.535,129.015,1.870,-0.367,0.471
-735.514,648.977,130.084,2.609,-0.443,0.566
-730.013,651.769,129.670,2.709,-0.403,0.773
-729.266,651.416,125.688,2.333,-0.439,0.848
-731.116,646.603,120.748,1.860,-0.573,0.919
-732.801,644.759,119.032,1.497,-0.758,1.042
-735.626,652.839,120.801,1.307,-0.835,1.115
-735.201,667.242,126.479,1.396,-0.911,1.116
-730.687,675.994,129.098,0.663,-1.065,1.156
-723.122,677.167,131.071,-0.900,-0.974,1.175
-718.348,677.496,131.723,-2.501,-0.792,0.978
-720.425,666.427,129.769,-3.610,-0.690,0.825
-721.000,652.000,129.000,-3.710,-0.700,0.700
-722.333,650.729,128.713,-2.911,-0.662,0.563
-726.598,651.980,132.553,-1.678,-0.404,0.615
-725.194,658.621,135.488,-0.615,-0.334,0.599
-719.888,668.253,133.609,0.349,-0.320,0.558
-715.446,667.532,131.141,0.436,-0.129,0.681
-715.616,662.882,129.723,-0.181,0.028,0.680
-721.533,657.611,127.789,-0.193,0.068,0.550
-726.785,655.816,125.132,0.164,0.003,0.430
-727.954,659.497,124.157,0.993,0.001,0.300
-728.374,659.004,123.677,1.507,-0.073,0.267
-729.404,656.929,124.841,1.355,-0.236,0.294
-727.425,656.317,124.511,1.329,-0.293,0.252
-724.406,652.833,126.228,1.230,-0.255,0.201
-726.647,650.605,130.114,1.478,-0.122,0.214
-730.000,643.000,125.000,2.170,-0.140,0.210
-730.013,636.356,122.466,3.105,-0.273,0.152
-731.085,647.550,126.633,4.496,-0.237,0.050
-734.359,657.436,124.848,5.955,-0.188,-0.154
-736.856,652.430,118.542,6.711,-0.264,-0.438
-736.544,638.552,115.548,6.544,-0.408,-0.767
-735.686,640.199,117.735,7.074,-0.495,-1.249
-731.464,665.968,121.319,9.127,-0.410,-1.780
-722.701,678.040,126.577,10.361,-0.289,-1.839
-714.509,676.916,129.986,9.582,-0.126,-1.564
-709.451,685.913,129.514,8.680,0.125,-1.639
-708.955,697.590,131.874,8.326,0.342,-1.919
-708.145,701.118,132.006,7.305,0.640,-2.102
-706.809,696.061,124.201,5.504,0.899,-2.181
-708.403,691.387,118.705,3.747,0.990,-2.167
-712.000,686.000,120.000,2.520,1.050,-2.170
-715.706,680.613,119.597,1.783,1.057,-2.119
-716.515,675.411,113.982,1.062,0.961,-1.953
-720.210,668.077,108.453,0.468,0.783,-1.752
-727.964,666.916,105.837,0.302,0.592,-1.631
-731.632,663.870,104.731,0.244,0.291,-1.592
-731.912,657.922,105.216,-0.139,0.028,-1.406
-730.868,658.378,107.282,-0.886,-0.078,-1.101
-728.270,668.094,113.444,-0.937,-0.202,-0.984
-724.050,674.244,117.484,-0.923,-0.266,-0.844
-720.527,662.565,112.893,-2.220,-0.368,-0.474
-724.624,644.928,109.717,-3.475,-0.454,-0.236
-737.205,626.485,110.433,-3.831,-0.374,-0.225
-748.984,616.464,111.241,-3.041,-0.364,-0.301
-754.360,618.965,112.146,-1.246,-0.425,-0.263
-752.000,632.000,113.000,0.490,-0.420,-0.140
-743.484,650.287,112.288,1.511,-0.475,-0.027
-734.254,654.487,110.925,0.974,-0.519,0.165
-729.237,651.904,111.002,-0.398,-0.388,0.261
-732.351,638.911,108.200,-1.315,-0.369,0.299
-737.970,624.335,109.551,-1.142,-0.424,0.235
-742.841,628.915,114.855,0.785,-0.319,0.132
-740.375,635.460,116.132,3.404,-0.200,0.221
-729.698,644.265,120.594,5.225,0.042,0.342
-725.028,647.590,122.103,6.098,0.418,0.416
-725.405,637.915,114.654,6.715,0.625,0.386
-727.245,633.768,106.038,7.900,0.574,0.281
-729.977,642.294,104.271,9.852,0.419,0.146
-731.235,657.227,105.985,11.667,0.339,0.049
-732.147,663.163,101.065,12.446,0.353,-0.013
-733.000,663.000,99.000,12.530,0.350,-0.140
-732.344,662.491,101.591,12.420,0.348,-0.373
-729.701,660.181,105.777,12.150,0.319,-0.685
-726.781,674.272,112.611,11.768,0.174,-0.944
-718.521,700.507,114.224,11.170,0.172,-1.120
-708.548,712.765,115.958,9.780,0.365,-0.938
-702.749,718.052,114.937,7.804,0.626,-0.770
-698.945,712.711,106.245,5.948,0.848,-0.920
-704.221,687.015,97.535,3.995,0.782,-0.973
-715.369,670.109,93.173,2.618,0.695,-1.197
-726.389,667.588,92.806,2.733,0.717,-1.322
-732.581,665.997,89.872,3.452,0.638,-1.112
-730.366,664.771,89.424,3.745,0.466,-0.842
-730.756,653.132,89.484,2.876,0.199,-0.425
-734.518,642.763,86.762,1.357,0.061,-0.105
-737.000,654.000,88.000,1.190,0.000,0.070
-738.061,664.036,90.624,1.478,-0.125,0.193
-736.649,660.974,92.208,0.417,-0.198,0.318
-734.567,665.494,90.869,-0.648,-0.194,0.322
-732.878,672.359,92.824,-0.984,-0.072,0.047
-728.855,666.905,97.647,-1.525,-0.118,-0.094
-722.711,666.174,100.602,-2.233,-0.212,-0.174
-721.091,673.193,101.967,-2.451,-0.134,-0.361
-722.901,665.991,99.309,-2.452,-0.136,-0.419
-724.346,656.153,95.028,-2.186,-0.235,-0.426
-727.671,650.533,90.984,-1.403,-0.477,-0.343
-730.303,646.795,88.645,-0.661,-0.615,-0.191
-733.523,655.007,85.313,0.580,-0.691,-0.099
-734.651,650.553,84.066,1.409,-1.022,0.058
-733.076,644.326,85.218,0.787,-1.191,0.233
-737.000,652.000,89.000,0.420,-1.120,0.350
-735.231,658.746,94.606,0.428,-1.174,0.416
-726.815,681.861,96.082,0.301,-1.216,0.455
-721.885,699.735,99.754,-0.801,-1.100,0.597
-717.809,693.612,97.528,-3.319,-1.012,0.562
-719.679,677.555,92.954,-5.330,-0.965,0.192
-728.087,651.573,92.965,-6.383,-1.000,-0.135
-736.562,631.108,93.158,-5.739,-1.131,-0.445
-740.105,631.235,96.782,-2.972,-1.312,-0.634
-734.953,644.610,98.367,-0.115,-1.522,-0.373
-725.969,659.368,103.122,1.752,-1.472,-0.019
-719.539,676.604,105.318,2.166,-1.309,0.168
-719.484,683.620,103.349,1.304,-1.213,0.205
-721.679,674.123,102.033,-0.380,-1.084,0.107
-727.341,657.949,94.797,-2.285,-1.051,0.072
-738.000,635.000,90.000,-3.220,-1.050,0.070
-745.422,628.937,89.434,-2.563,-1.101,-0.103
-744.827,652.425,97.567,-0.597,-1.232,-0.247
-731.151,680.991,105.248,0.341,-1.258,0.022
-715.107,695.264,103.973,-1.066,-1.042,0.351
-710.755,691.251,103.762,-3.443,-0.746,0.281
-716.977,671.193,98.361,-5.283,-0.713,-0.001
-726.762,645.281,95.009,-5.640,-0.774,-0.299
-736.340,633.102,95.106,-4.369,-0.894,-0.420
-741.381,638.969,95.060,-1.522,-1.099,-0.371
-735.597,654.221,100.438,1.324,-1.090,-0.229
-726.423,670.914,103.021,2.411,-1.001,-0.017
-720.698,681.261,105.282,2.071,-0.971,-0.064
-718.620,676.992,105.214,0.408,-0.996,-0.263
-719.412,665.709,100.247,-1.657,-1.056,-0.360
-726.000,663.000,97.000,-2.380,-1.050,-0.350
-732.684,657.529,96.754,-2.137,-1.042,-0.168
-732.899,649.419,97.675,-1.999,-1.146,-0.071
-733.068,651.262,94.512,-1.733,-1.254,-0.045
-729.240,656.946,95.110,-1.143,-1.266,0.048
-728.943,660.445,95.020,-0.899,-1.401,0.080
-733.786,653.430,91.854,-1.332,-1.567,0.161
-735.115,647.156,96.448,-1.751,-1.610,0.128
-737.008,657.115,99.830,-1.013,-1.548,-0.060
-732.854,663.532,103.853,0.287,-1.474,-0.086
-725.314,667.468,105.335,0.865,-1.443,-0.018
-724.180,668.901,98.257,1.128,-1.330,0.014
-729.943,648.918,95.738,1.006,-1.360,-0.049
-735.339,639.295,95.850,1.312,-1.279,-0.310
-739.528,649.255,96.339,3.005,-1.303,-0.582
-737.000,650.000,101.000,3.920,-1.750,-0.420
-728.501,656.146,107.876,3.638,-1.776,-0.037
-728.453,663.783,113.645,2.994,-1.751,0.070
-723.208,660.208,111.946,1.833,-1.955,0.098
-718.926,667.017,109.286,1.029,-1.912,0.185
-721.827,667.284,112.224,-0.017,-1.909,0.213
-722.071,654.884,111.250,-1.479,-1.968,0.210
-724.137,658.794,108.982,-1.954,-1.955,0.209
-723.216,665.028,109.114,-1.578,-1.774,0.206
-720.551,664.070,106.431,-1.134,-1.413,0.365
-718.486,672.118,106.423,-0.773,-1.086,0.518
-721.724,677.315,106.430,-0.497,-0.836,0.394
-726.315,663.036,100.922,-0.971,-0.774,0.357
-727.717,645.236,94.098,-1.778,-0.861,0.314
-734.062,654.465,92.282,-1.096,-0.834,0.106
-735.000,681.000,97.000,0.770,-0.980,-0.070
-724.873,694.690,99.002,1.079,-1.356,-0.082
-714.632,702.095,99.623,-0.571,-1.519,-0.075
-711.998,690.859,99.445,-2.554,-1.612,-0.361
-714.656,662.106,96.840,-3.950,-1.765,-0.603
-720.512,657.081,99.385,-3.388,-1.996,-0.906
-727.284,659.593,99.410,-1.852,-2.305,-1.017
-731.257,657.037,98.148,-0.931,-2.540,-0.597
-733.091,660.640,101.829,-0.683,-2.907,-0.417
-728.634,667.368,101.860,-1.141,-3.215,-0.480
-721.845,678.510,105.906,-1.663,-3.061,-0.503
-717.733,676.074,111.665,-2.585,-2.790,-0.429
-720.302,660.763,106.554,-3.351,-2.717,-0.287
-732.251,632.908,101.021,-3.769,-2.741,-0.185
-745.874,609.760,102.686,-3.448,-2.709,-0.238
-753.000,626.000,110.000,-0.770,-2.380,-0.490
-747.023,654.419,118.061,2.008,-2.052,-0.460
-731.182,675.029,122.011,2.427,-1.949,-0.152
-716.675,684.759,119.569,0.823,-1.680,0.022
-714.225,669.687,114.717,-1.617,-1.413,-0.090
-720.934,645.938,113.804,-3.487,-1.126,-0.269
-730.150,638.620,111.181,-3.196,-0.783,-0.365
-736.110,637.907,108.886,-1.012,-0.779,-0.257
-732.458,641.214,106.252,0.807,-0.843,0.237
-728.329,653.676,105.978,1.798,-0.736,0.698
-727.129,660.683,109.665,1.670,-0.590,0.941
-727.376,667.264,106.180,0.740,-0.572,0.964
-730.107,669.525,105.062,-0.161,-0.689,0.884
-731.137,661.904,100.658,-1.488,-0.807,0.933
-733.609,650.387,96.236,-2.455,-0.925,0.986
-737.000,650.000,104.000,-2.240,-0.980,0.980
-733.425,666.564,110.214,-1.267,-1.091,0.854
-721.615,677.513,115.332,-0.740,-1.281,0.908
-713.402,678.381,114.170,-1.456,-1.422,1.109
-716.658,661.014,110.783,-2.705,-1.493,1.084
-723.724,641.781,110.784,-3.423,-1.456,1.036
-731.623,645.393,108.523,-2.505,-1.602,0.963
-733.874,659.042,107.957,-0.817,-1.909,1.073
-731.148,666.981,106.142,-0.764,-2.027,1.447
-729.554,664.196,106.361,-2.070,-2.039,1.563
-726.995,665.807,109.546,-3.270,-1.947,1.404
-727.961,662.676,113.900,-4.092,-1.812,1.234
-726.163,661.477,119.688,-4.247,-1.676,1.181
-720.306,671.257,123.780,-3.992,-1.494,1.202
-716.708,662.135,121.090,-4.118,-1.473,1.374
-719.000,640.000,115.000,-4.620,-1.400,1.680
-727.720,627.536,113.834,-4.233,-1.269,1.644
-733.959,644.468,116.432,-1.872,-1.218,1.470
-734.259,671.159,120.692,0.566,-1.130,1.545
-725.753,676.109,116.986,0.803,-1.103,1.682
-721.250,666.831,116.041,-0.816,-0.838,1.760
-720.887,651.706,120.430,-2.268,-0.512,1.518
-722.213,660.384,117.775,-1.324,-0.495,1.096
-721.379,669.212,117.891,0.354,-0.556,1.039
-717.699,668.689,116.900,0.576,-0.572,1.181
-718.866,679.121,113.421,0.674,-0.500,1.125
-716.882,679.415,113.107,0.839,-0.521,0.904
-720.875,683.852,112.136,0.838,-0.579,0.668
-717.455,668.811,109.322,0.526,-0.684,0.532
-722.734,654.581,110.415,-0.225,-0.951,0.483
-726.000,659.000,113.000,0.140,-1.120,0.420
-721.132,677.454,118.832,1.623,-1.131,0.409
-713.859,698.060,122.357,2.191,-1.050,0.556
-699.622,689.184,117.407,0.821,-1.125,0.791
-708.963,683.697,117.056,-1.389,-1.229,0.793
-708.813,659.118,110.927,-2.707,-1.319,0.522
-728.682,653.401,109.852,-2.627,-1.608,0.427
-727.774,650.090,111.854,-1.972,-1.754,0.576
-731.916,650.843,110.757,-1.174,-1.814,0.820
-742.512,653.222,114.643,-0.780,-1.844,1.028
-723.067,648.527,116.982,-0.657,-1.631,1.063
-734.184,685.510,125.108,-0.245,-1.135,1.000
-704.775,678.459,124.926,-0.513,-0.663,0.810
-719.515,694.568,127.261,-1.352,-0.534,0.680
-700.677,663.335,123.715,-2.550,-0.301,0.608
-714.000,655.000,121.000,-2.590,-0.070,0.350
-732.320,655.157,118.036,-0.866,-0.009,0.154
-707.849,628.914,110.233,1.178,-0.017,0.088
-768.179,686.856,117.107,2.909,-0.220,0.046
-675.114,607.668,100.150,3.165,-0.321,0.152
-799.005,742.834,122.717,3.697,-0.502,0.333
-600.926,565.969,96.264,2.659,-0.412,0.225
