acc_x[mg],acc_y[mg],acc_z[mg],gyro_x[dps],gyro_y[dps],gyro_z[dps]
154.747,767.267,-782.049,32.858,-6.179,3.282
39.016,709.359,-826.642,48.67,-4.934,4.415
119.383,701.039,-829.132,40.792,-5.942,3.624
73.013,684.71,-833.163,43.385,-5.654,2.935
131.547,702.931,-848.993,39.81,-5.547,2.186
137.687,667.265,-856.935,42.417,-4.606,2.403
164.659,657.005,-852.011,41.075,-4.213,2.699
118.145,651.487,-845.5,40.832,-3.028,2.235
127.626,654.242,-842.133,35.985,-2.072,0.597
96.088,675.283,-829.109,34.176,-1.641,-0.935
97.451,666.755,-826.121,31.082,-1.57,-1.968
82.67,642.86,-807.302,31.61,-2.029,-1.872
85.746,641.526,-801.013,30.484,-2.657,-1.53
70.362,608.941,-785.493,31.866,-2.974,-1.28
69.84,598.196,-774.776,31.88,-3.449,-1.454
69.291,600.566,-784.744,34.234,-3.83,-1.667
107.007,579.268,-767.703,34.804,-4.083,-1.573
88.008,604.565,-780.367,36.925,-4.086,-1.227
93.627,661.374,-807.074,36.472,-4.011,-0.759
80.326,667.51,-799.985,36.474,-4.148,-0.08
96.606,697.136,-825.352,34.487,-4.742,0.372
80.63,720.681,-820.497,33.899,-5.498,0.405
94.525,712.166,-823.036,31.02,-6.107,0.458
83.833,686.377,-833.832,29.06,-6.601,0.706
124.462,662.903,-833.699,26.326,-6.875,0.888
90.883,626.708,-811.78,26.765,-7.771,0.795
137.183,532.812,-857.852,29.895,-7.885,0.596
161.515,459.999,-879.184,38.276,-5.531,1.043
173.553,422.524,-860.655,44.578,-3.403,1.07
181.154,465.974,-973.921,51.406,1.111,-0.092
175.071,547.586,-946.055,54.125,7.714,0.658
103.882,618.667,-874.896,56.566,7.101,2.634
137.206,644.517,-897.935,54.601,5.277,2.357
127.22,660.064,-889.709,51.934,5.99,0.429
169.259,638.826,-930.549,49.232,7.359,-2.258
111.758,619.158,-912.458,48.527,8.379,-2.525
95.199,629.694,-869.803,47.022,8.384,-1.274
94.446,638.574,-859.941,45.578,7.456,-0.23
87.891,640.157,-853.881,41.494,6.124,-0.739
107.336,678.062,-852.491,37.938,4.916,-2.182
117.139,708.371,-836.157,34.382,4.042,-4.096
109.649,701.709,-846.195,32.625,4.085,-4.688
110.099,697.307,-843.378,29.782,4.217,-3.494
92.979,683.082,-858.288,28.218,4.59,-1.89
104.267,667.258,-835.488,25.179,4.476,-1.108
77.188,675.216,-838.419,22.074,3.34,-1.05
109.067,690.337,-853.476,19.173,2.753,-0.701
70.909,681.131,-841.27,19.039,1.857,-0.087
102.851,679.981,-834.896,17.07,1.313,-0.591
72.267,640.205,-847.008,15.233,1.467,-1.028
94.081,621.683,-865.991,13.304,1.43,-1.066
74.771,616.052,-873.274,13.217,1.395,-1.09
73.92,577.756,-875.639,12.136,1.254,-1.563
60.72,606.772,-859.751,11.849,1.103,-1.911
82.993,620.368,-879.367,10.602,0.996,-2.138
46.667,623.298,-894.297,11.044,0.985,-1.773
72.509,632.375,-890.423,10.614,0.648,-1.29
59.548,626.07,-879.473,11.229,0.157,-0.936
94.322,574.921,-890.957,11.372,-0.078,-0.915
76.376,554.605,-892.825,13.003,-0.04,-0.873
90.926,539.953,-874.574,13.986,0.591,-1.154
104.717,505.482,-874.807,16.383,1.214,-1.457
89.288,508.861,-847.85,18.661,1.926,-1.793
84.229,527.608,-850.396,22.116,2.799,-1.413
84.609,559.309,-847.23,24.024,3.118,-0.605
62.247,536.171,-848.461,25.746,3.61,0.687
80.16,573.099,-843.995,26.127,3.644,0.76
79.613,595.269,-847.075,27.052,3.181,1.21
65.739,606.296,-834.948,28.464,2.269,2.788
44.784,611.253,-833.613,31.349,1.8,4.811
83.874,611.021,-825.101,32.366,1.442,6.169
59.046,609.409,-817.89,33.547,1.001,6.962
62.339,577.235,-817.565,33.472,0.745,7.745
63.079,577.909,-830.23,33.803,0.246,8.553
72.866,556.198,-846.95,33.348,-0.263,8.857
66.565,531.162,-835.621,34.048,-0.48,8.919
82.172,517.273,-863.363,33.653,-0.489,9.04
101.509,527.633,-863.612,34.276,-0.571,9.332
98.587,513.146,-879.697,34.7,-0.515,10.264
93.074,552.906,-876.311,36.79,-0.141,11.174
115.076,566.649,-868.034,37.432,0.021,11.694
120.703,542.048,-890.973,38.219,0.043,12.211
80.507,563.166,-900.347,37.465,-0.037,12.484
107.79,538.97,-903.674,37.527,-0.381,12.499
102.943,539.851,-897.89,36.862,-1.112,12.532
99.685,561.728,-898.212,36.844,-1.907,13.291
110.19,547.345,-916.555,34.365,-2.637,14.25
74.44,555.821,-902.604,32.308,-3.507,14.619
99.483,564.419,-906.512,30.797,-4.607,14.639
119.426,603.85,-889.406,28.809,-5.656,14.788
127.194,651.982,-934.062,25.096,-5.108,15.593
116.485,666.527,-943.377,23.952,-3.612,17.376
109.913,689.713,-956.239,23.342,-2.567,19.549
82.517,623.633,-944.728,23.341,-2.02,21.346
132.931,589.627,-945.422,22.098,-1.911,21.731
91.084,569.387,-923.175,21.455,-1.462,21.383
103.48,560.956,-944.544,19.986,-1.189,21.059
91.649,569.07,-932.468,19.372,-0.853,21.609
107.099,582.555,-945.359,17.648,-0.952,22.034
122.652,587.775,-964.225,15.746,-1.095,22.33
138.919,617.802,-990.773,13.28,-0.654,23.187
153.128,600.802,-998.079,12.554,-0.138,24.276
150.306,567.981,-996.412,11.566,0.677,25.122
126.954,552.537,-984.521,11.232,1.31,25.454
134.02,535.836,-989.458,10.061,2.418,25.461
120.235,486.029,-969.107,9.666,3.281,25.43
117.064,467.957,-970.029,9.126,3.654,24.815
92.247,459.391,-929.294,9.386,3.271,23.897
107.94,443.368,-916.001,8.838,2.538,22.968
96.565,445.5,-899.654,9.015,1.914,22.352
106.541,436.877,-918.311,8.701,1.447,21.954
98.626,425.682,-904.542,9.797,1.431,21.972
124.16,427.508,-916.669,10.678,1.549,21.69
105.146,443.602,-895.103,12.27,1.468,21.571
142.217,440.033,-912.68,12.887,1.788,21.685
125.915,474.5,-904.585,14.235,2.072,21.966
134.978,494.912,-904.94,14.75,2.271,22.242
131.72,512.993,-895.263,15.803,2.261,22.243
136.765,523.411,-914.295,15.344,2.378,21.983
106.08,516.646,-926.788,15.263,2.801,21.988
134.526,538.952,-927.069,14.556,2.768,22.252
122.639,539.47,-939.259,14.409,2.502,23.117
135.922,525.546,-947.964,13.545,2.457,23.34
120.043,512.913,-930.116,13.231,2.315,22.961
111.886,512.485,-935.678,11.966,2.38,22.511
108.043,505.484,-935.803,11.436,2.174,22.023
124.155,521.734,-925.655,10.427,1.807,21.381
127.43,515.708,-939.53,9.946,1.953,20.746
126.843,492.688,-948.883,7.993,2.256,20.192
131.014,506.648,-972.205,6.751,2.298,19.642
150.385,528.033,-989.664,4.775,2.105,19.0
119.104,522.544,-976.556,3.589,1.667,18.353
170.912,504.147,-983.197,1.459,1.31,17.506
161.462,514.319,-965.393,0.136,1.069,16.651
169.777,516.323,-947.805,-1.736,0.87,15.645
132.758,496.108,-946.633,-2.809,0.723,14.721
174.217,500.702,-943.012,-4.207,0.478,14.072
171.064,492.232,-944.095,-4.504,0.377,13.929
163.097,512.124,-952.282,-5.635,0.46,13.88
168.15,516.687,-929.329,-6.47,0.216,13.767
166.835,545.275,-927.848,-8.407,-0.155,13.379
149.748,520.095,-931.464,-9.747,-0.473,12.882
169.913,527.84,-931.217,-11.384,-0.693,12.476
176.523,508.965,-932.74,-11.695,-0.877,12.488
176.281,496.267,-930.344,-12.178,-0.991,12.475
160.789,479.428,-930.717,-11.978,-1.186,12.311
167.402,480.78,-935.576,-12.821,-1.203,11.692
164.374,482.749,-929.428,-12.76,-1.708,11.085
144.698,501.465,-932.666,-13.442,-2.206,10.68
150.51,499.044,-914.316,-13.603,-2.629,10.176
173.75,512.681,-909.697,-14.535,-2.605,9.903
156.581,516.615,-889.804,-14.563,-2.436,9.789
143.768,499.772,-904.142,-15.461,-1.982,9.52
171.725,505.843,-913.041,-15.808,-1.511,9.269
146.712,521.671,-897.752,-16.243,-1.432,9.031
121.444,528.248,-909.765,-15.228,-1.904,9.032
126.226,518.444,-908.569,-14.922,-2.216,9.084
120.2,535.26,-898.683,-14.323,-2.423,9.274
132.638,510.788,-898.431,-14.446,-2.743,9.574
127.173,505.908,-906.184,-13.844,-3.205,9.879
131.874,492.89,-903.554,-13.76,-3.37,9.899
127.51,471.155,-885.726,-12.938,-3.442,10.154
151.846,451.616,-895.629,-12.971,-3.262,10.377
145.847,448.268,-890.995,-12.299,-3.187,10.264
159.765,425.394,-894.482,-12.435,-2.818,9.565
136.223,422.807,-902.159,-11.863,-2.799,8.813
156.263,445.212,-926.162,-12.25,-2.868,8.142
162.581,452.961,-932.041,-12.205,-2.985,7.586
150.474,476.713,-921.14,-13.283,-3.162,6.991
149.553,483.983,-926.352,-13.815,-3.257,6.632
163.894,495.127,-939.717,-14.949,-3.175,6.364
151.736,490.777,-929.714,-15.101,-3.283,6.616
155.914,517.472,-937.144,-15.605,-2.93,6.703
125.811,506.241,-922.678,-14.616,-2.918,7.026
161.673,495.127,-925.911,-13.832,-2.888,7.578
132.947,490.404,-929.808,-12.11,-2.451,8.195
155.045,504.637,-915.654,-10.846,-2.151,8.643
136.052,499.239,-904.917,-8.948,-2.24,9.167
147.488,495.209,-906.526,-7.571,-2.611,9.874
136.45,505.262,-907.306,-5.478,-2.803,10.523
155.741,510.345,-911.986,-4.1,-3.088,11.022
148.52,505.532,-878.601,-1.697,-3.392,11.372
153.577,537.202,-891.485,-1.578,-3.657,11.461
157.169,553.965,-910.317,-3.481,-4.356,11.446
161.66,571.839,-908.422,-4.599,-5.048,12.102
177.203,576.295,-885.977,-3.636,-5.043,13.414
171.202,562.208,-897.925,-4.106,-4.344,14.413
167.231,538.358,-874.535,-6.049,-3.728,14.226
162.655,510.574,-903.54,-9.296,-3.29,12.969
168.391,485.788,-895.118,-11.459,-3.302,11.537
176.85,493.755,-908.574,-13.433,-3.36,10.465
170.587,483.598,-892.119,-14.454,-3.377,10.063
172.131,474.57,-908.048,-15.197,-3.039,10.159
156.129,444.157,-917.248,-14.543,-2.441,10.158
177.489,464.557,-921.34,-14.062,-1.7,9.798
154.637,472.987,-910.25,-12.951,-1.507,9.376
158.761,497.149,-901.676,-12.472,-1.294,9.022
148.893,495.555,-907.524,-11.347,-1.342,9.023
160.176,523.879,-914.016,-10.628,-1.469,9.397
153.112,500.549,-901.096,-9.319,-1.394,9.905
166.365,490.563,-894.86,-8.988,-1.301,10.097
150.519,510.48,-897.695,-8.203,-1.249,10.121
172.628,512.04,-908.812,-8.386,-1.233,10.044
166.748,519.109,-904.848,-7.745,-1.384,10.105
167.046,500.535,-924.946,-7.542,-1.277,10.277
155.068,510.75,-904.251,-6.357,-1.272,10.745
163.903,505.932,-911.789,-5.398,-1.149,11.19
158.868,509.737,-893.429,-4.059,-1.122,11.375
167.79,498.442,-907.615,-3.497,-1.399,11.189
161.695,507.681,-902.989,-2.584,-1.502,10.736
166.572,501.09,-894.96,-2.33,-1.618,10.51
170.775,522.816,-871.395,-1.225,-1.985,10.832
164.763,526.728,-880.062,-0.634,-2.221,11.037
145.383,510.936,-871.081,0.357,-2.544,11.25
159.215,513.312,-900.137,0.745,-2.724,11.374
149.934,539.294,-904.989,2.003,-2.875,11.633
160.132,527.182,-905.622,2.772,-3.114,11.929
165.221,505.139,-894.152,3.656,-3.4,12.116
162.99,500.996,-912.383,3.373,-3.443,11.851
173.303,535.411,-912.568,3.602,-3.468,11.682
170.702,525.649,-938.831,3.387,-3.43,11.409
168.575,532.004,-930.618,3.802,-3.278,11.32
185.993,549.62,-928.582,3.419,-3.107,11.094
159.077,550.948,-936.966,3.358,-2.879,10.985
180.938,544.525,-926.115,2.566,-2.779,10.733
152.267,530.174,-919.627,2.501,-2.882,10.373
170.414,525.821,-917.277,1.683,-2.863,10.07
178.123,527.634,-913.111,1.535,-2.935,9.769
171.437,522.999,-898.381,1.0,-2.914,9.608
167.854,529.692,-913.291,1.188,-2.92,9.754
185.659,508.691,-888.519,0.722,-2.781,9.578
148.977,515.379,-863.002,0.904,-2.851,9.037
160.413,502.786,-880.086,0.309,-3.037,8.514
136.93,516.699,-862.22,0.417,-3.268,7.991
142.775,532.092,-875.119,0.121,-3.487,7.698
147.449,532.76,-862.042,0.334,-3.78,7.784
161.78,537.036,-868.655,-0.255,-3.918,7.825
155.456,558.543,-876.953,-0.525,-4.025,8.038
157.678,563.411,-892.511,-1.417,-4.148,8.132
166.234,528.271,-886.083,-1.555,-4.379,8.092
148.585,550.742,-896.818,-2.094,-4.52,7.942
149.539,556.414,-905.929,-2.156,-4.6,7.95
170.211,543.943,-911.651,-2.78,-4.731,8.009
148.708,572.604,-927.147,-2.929,-4.797,7.992
172.642,544.087,-916.717,-3.841,-4.766,7.818
164.513,563.016,-918.265,-4.197,-4.817,7.579
172.539,537.96,-921.086,-5.184,-4.787,7.405
171.682,539.911,-914.379,-5.418,-4.584,7.344
189.887,542.756,-914.368,-6.384,-4.244,7.133
155.998,525.111,-925.421,-6.868,-4.029,6.754
174.711,537.372,-907.495,-7.919,-3.935,6.234
159.598,536.151,-899.747,-8.199,-4.005,5.712
172.479,526.364,-910.228,-8.88,-3.998,5.419
137.424,513.157,-897.27,-8.816,-4.308,5.29
143.461,525.073,-895.786,-8.953,-4.491,5.342
150.291,527.512,-879.967,-7.814,-4.752,5.373
168.382,532.963,-898.333,-7.295,-5.018,5.369
142.841,517.656,-872.505,-6.033,-5.261,5.371
161.917,511.082,-868.208,-5.469,-5.308,5.214
165.73,503.247,-880.03,-4.374,-5.384,5.192
158.231,520.946,-874.173,-3.788,-5.48,5.348
151.52,528.063,-867.297,-2.731,-5.752,5.565
181.964,515.697,-873.462,-2.818,-6.033,5.436
150.94,529.461,-861.88,-2.422,-6.178,5.188
173.445,524.79,-890.357,-2.739,-6.292,4.945
157.253,521.253,-886.484,-2.397,-6.681,4.905
164.35,526.193,-892.33,-2.832,-6.713,4.988
160.0,519.609,-889.347,-2.949,-6.774,5.073
165.91,524.398,-909.44,-3.624,-6.59,4.948
158.734,528.874,-898.553,-3.49,-6.489,4.834
165.729,535.84,-920.961,-4.029,-6.469,4.679
170.813,540.919,-911.546,-4.285,-6.361,4.439
170.78,524.983,-911.996,-4.734,-6.376,4.167
137.393,534.911,-897.652,-4.414,-6.577,4.011
162.438,555.56,-901.868,-4.805,-6.627,3.992
148.171,546.395,-913.681,-4.702,-6.75,4.04
173.519,541.424,-914.484,-5.005,-6.863,4.103
165.826,527.279,-891.992,-4.582,-6.907,4.043
174.308,542.707,-909.008,-4.614,-7.009,4.014
147.479,539.845,-889.678,-4.065,-7.236,4.05
148.636,539.836,-872.465,-4.308,-7.519,4.045
156.19,529.711,-880.757,-4.041,-7.765,4.011
157.153,525.766,-901.368,-4.239,-7.971,3.836
162.414,543.298,-881.509,-3.817,-8.255,3.674
153.521,524.468,-888.201,-3.934,-8.512,3.651
147.929,513.592,-873.936,-3.866,-8.686,3.558
176.197,508.239,-890.386,-4.385,-8.657,3.26
163.069,531.541,-868.435,-4.325,-8.819,2.893
156.027,529.281,-879.561,-4.344,-8.906,2.406
140.949,527.54,-871.669,-3.642,-8.939,2.28
168.2,534.749,-901.504,-3.387,-8.665,2.309
146.405,526.408,-878.032,-2.664,-8.412,2.596
164.592,531.135,-901.233,-2.597,-8.13,2.728
130.056,535.499,-913.652,-1.913,-8.293,2.742
148.984,524.886,-915.528,-1.834,-8.541,2.493
137.984,558.6,-930.021,-1.129,-8.72,2.242
154.012,533.251,-945.927,-1.181,-8.872,2.15
145.626,555.6,-918.862,-0.94,-8.786,2.081
173.386,552.72,-926.356,-1.254,-8.432,2.068
147.161,549.136,-946.373,-1.315,-8.27,2.225
171.405,564.295,-947.002,-2.235,-8.03,2.379
154.392,561.474,-936.942,-2.846,-7.872,2.349
159.786,564.867,-950.159,-4.188,-7.534,2.258
135.667,575.097,-919.238,-4.858,-7.697,2.223
159.82,562.698,-929.413,-6.626,-7.802,2.072
143.352,559.884,-885.218,-7.599,-7.773,1.854
146.431,543.637,-901.935,-8.357,-7.653,1.765
113.341,568.262,-871.072,-8.356,-7.591,2.026
128.341,582.422,-914.88,-9.219,-7.526,2.13
133.361,597.704,-906.762,-9.721,-7.657,2.323
151.529,584.531,-928.848,-10.832,-8.078,2.379
133.069,595.428,-883.509,-11.47,-8.357,2.36
140.321,566.869,-878.88,-12.373,-8.377,2.548
149.756,563.235,-885.832,-12.28,-8.233,2.727
163.266,560.706,-875.433,-12.045,-7.947,3.062
135.902,545.967,-878.612,-11.016,-7.836,3.378
130.77,500.41,-894.786,-10.176,-8.044,3.604
119.145,506.158,-868.557,-8.824,-8.262,3.715
144.379,502.136,-867.26,-8.293,-8.541,3.555
118.168,507.277,-852.254,-7.321,-8.7,3.137
143.126,524.93,-857.075,-6.333,-8.829,2.944
138.236,545.964,-856.866,-4.708,-8.911,3.3
134.989,519.429,-881.411,-4.575,-8.82,3.579
133.673,524.539,-888.3,-4.643,-8.835,3.496
132.666,536.208,-887.304,-5.043,-8.789,3.07
156.634,545.948,-900.097,-4.229,-8.77,2.974
146.241,553.255,-898.875,-3.103,-8.91,3.402
160.566,534.378,-889.776,-1.632,-8.773,3.819
141.66,520.997,-892.078,0.216,-8.238,4.012
140.427,516.245,-893.862,2.398,-7.993,4.089
135.702,529.994,-906.923,3.137,-7.928,4.019
130.671,557.167,-909.738,3.777,-8.069,3.738
111.833,573.625,-906.038,3.206,-8.276,3.669
137.46,563.778,-896.953,2.939,-8.521,3.89
154.244,563.01,-902.489,1.888,-8.545,4.213
149.228,569.338,-892.265,1.053,-8.376,4.306
172.528,540.873,-908.561,-0.3,-7.997,4.253
158.12,560.381,-906.961,-0.62,-7.745,4.249
155.723,523.843,-900.487,-1.098,-7.573,4.201
132.562,525.891,-883.106,-0.829,-7.61,4.092
142.576,523.404,-900.383,-0.994,-7.476,3.931
132.065,517.505,-901.845,-0.157,-7.446,3.877
139.723,523.937,-906.428,0.499,-7.595,3.956
131.123,528.27,-900.309,1.44,-7.515,4.051
142.364,531.709,-917.301,0.972,-7.395,3.804
144.066,537.052,-895.503,0.797,-7.477,3.504
156.17,548.139,-910.051,0.143,-7.316,3.252
132.13,567.125,-895.435,-0.124,-7.282,3.148
144.103,560.945,-901.632,-1.285,-7.175,3.155
129.897,553.625,-890.774,-1.555,-6.798,3.361
152.174,559.899,-900.376,-2.094,-6.389,3.538
118.777,533.412,-898.675,-1.966,-5.96,3.588
141.48,523.39,-909.992,-2.025,-5.734,3.47
149.974,498.385,-896.574,-1.094,-5.743,3.273
138.019,512.459,-901.749,-0.233,-5.867,2.929
138.351,506.249,-894.456,1.354,-6.298,2.637
140.868,509.638,-885.922,2.489,-6.208,2.429
142.54,537.247,-901.803,3.778,-6.004,2.44
167.402,517.786,-900.966,4.093,-5.928,2.497
133.686,542.691,-910.657,4.676,-5.898,2.109
143.045,544.985,-913.473,4.51,-6.158,1.909
123.329,546.435,-899.278,4.943,-6.723,2.295
140.402,537.623,-916.75,4.953,-6.729,2.529
154.442,534.89,-908.088,5.08,-6.625,2.422
150.831,530.076,-905.716,4.557,-6.458,2.097
146.297,522.972,-889.554,4.866,-6.259,1.738
156.493,525.833,-896.351,4.761,-6.016,1.307
142.914,524.319,-895.129,5.338,-5.856,1.28
136.616,536.459,-892.108,5.623,-5.736,1.358
133.293,500.957,-891.643,6.344,-5.697,1.449
138.375,505.731,-901.2,6.299,-5.471,1.201
116.252,508.613,-905.058,6.615,-5.555,0.938
130.19,518.736,-916.31,6.434,-5.547,0.749
137.988,521.287,-898.301,6.877,-5.637,1.014
119.734,506.097,-893.004,6.805,-5.627,1.22
136.186,507.987,-875.572,7.159,-5.876,1.208
135.838,527.33,-889.831,7.116,-5.808,0.924
115.728,527.004,-888.095,7.723,-5.807,0.62
152.063,535.226,-899.559,7.822,-5.864,0.465
124.043,526.866,-908.78,8.332,-5.89,0.523
130.067,563.868,-905.979,8.03,-6.071,0.578
118.67,557.062,-925.392,7.985,-6.117,0.976
115.555,563.592,-917.821,7.21,-5.819,1.346
126.058,559.045,-927.471,6.622,-6.028,1.958
140.749,580.829,-927.026,5.199,-6.155,2.315
113.572,563.912,-916.871,4.472,-6.356,2.057
144.154,558.304,-931.4,2.977,-6.425,2.088
138.443,556.961,-922.858,1.91,-6.418,2.266
147.424,561.485,-901.526,0.373,-6.411,2.679
119.091,570.37,-900.963,-0.774,-6.381,2.787
120.214,555.238,-876.812,-2.436,-6.206,2.498
131.753,554.091,-886.007,-3.326,-6.002,2.184
135.681,548.281,-881.692,-4.326,-5.814,2.175
122.795,545.818,-887.728,-4.383,-5.742,2.391
132.875,519.403,-896.098,-4.49,-5.54,2.653
110.047,489.983,-868.67,-3.791,-5.396,2.765
122.269,491.792,-868.88,-3.157,-5.182,2.651
109.327,492.92,-886.521,-1.734,-5.059,2.229
118.435,472.75,-902.815,-0.215,-4.718,2.079
116.326,467.135,-909.438,2.089,-4.593,2.047
129.735,470.551,-922.721,3.801,-4.339,1.893
122.859,484.621,-930.995,5.628,-3.776,1.887
128.929,517.443,-956.65,6.66,-3.207,2.256
110.128,541.931,-988.763,7.663,-2.859,2.827
132.261,564.149,-997.312,7.113,-2.344,2.909
121.276,573.146,-976.422,6.482,-2.855,2.866
144.873,570.043,-965.284,5.103,-2.406,3.988
115.449,594.476,-950.526,3.912,-2.326,4.282
122.176,584.547,-937.516,1.615,-2.377,3.72
140.021,604.768,-921.32,-0.248,-2.183,3.432
143.647,598.559,-922.002,-2.102,-2.141,3.542
105.866,578.02,-885.535,-2.741,-1.975,4.085
115.213,556.737,-901.873,-3.657,-1.654,4.563
127.032,538.669,-884.55,-3.933,-1.338,4.718
117.418,521.081,-897.15,-4.466,-1.084,4.787
117.424,513.386,-905.63,-4.272,-1.072,4.569
139.492,501.187,-901.598,-4.085,-1.096,4.313
103.236,533.517,-903.75,-2.784,-1.083,4.219
141.436,494.583,-930.835,-1.572,-1.204,4.344
126.437,480.765,-926.8,-0.068,-0.985,4.413
131.779,488.392,-952.384,0.333,-0.615,4.152
135.748,485.687,-948.697,1.083,-0.355,3.814
134.237,479.755,-942.454,1.747,-0.282,3.342
138.298,495.367,-944.899,2.974,-0.1,3.162
143.447,534.158,-981.584,3.267,0.163,3.438
151.882,511.06,-972.02,3.966,0.341,3.744
151.215,504.151,-962.265,4.176,0.706,3.915
164.977,518.75,-944.49,4.195,1.192,3.844
158.455,510.155,-939.021,3.642,1.647,3.668
122.749,512.599,-927.294,4.188,1.516,3.652
146.222,514.128,-903.909,4.556,1.268,3.681
110.399,523.953,-880.811,5.479,0.936,3.946
148.798,519.383,-878.151,6.162,0.623,4.149
118.708,522.101,-859.245,7.126,0.2,4.352
107.006,520.447,-809.094,7.306,0.114,4.335
116.76,523.813,-801.619,8.02,-0.29,4.196
101.051,546.438,-801.943,8.389,-0.462,3.421
101.16,577.014,-817.141,8.245,-1.653,3.411
132.331,559.173,-826.849,7.406,-1.586,4.579
99.062,568.576,-825.777,6.715,-1.309,5.943
107.569,562.645,-834.762,5.0,-1.416,6.279
88.966,546.939,-832.071,3.499,-1.429,5.54
102.206,555.379,-838.033,1.313,-1.849,5.224
110.089,555.05,-876.046,-0.398,-2.062,4.703
113.818,576.918,-905.987,-2.145,-2.106,4.544
111.331,546.119,-908.111,-2.62,-2.306,4.502
112.481,543.849,-911.079,-3.32,-2.603,4.6
123.267,523.482,-932.138,-3.637,-2.714,4.579
128.125,521.545,-937.354,-4.734,-2.751,4.207
97.666,510.716,-920.032,-5.119,-2.753,3.489
119.986,504.551,-896.246,-5.843,-2.94,3.006
95.433,518.212,-884.385,-5.866,-3.216,2.424
113.302,515.985,-868.858,-6.268,-3.444,2.178
105.046,523.981,-898.077,-5.586,-3.585,1.988
100.71,514.648,-892.239,-4.997,-3.662,1.967
98.049,502.979,-878.371,-3.476,-3.935,2.229
103.901,492.103,-887.371,-2.216,-4.277,2.393
104.224,504.951,-889.147,-0.413,-4.616,2.406
99.647,495.785,-867.346,0.604,-4.76,2.315
98.82,496.236,-896.961,2.183,-4.789,2.396
116.822,497.633,-899.054,3.285,-4.977,2.753
97.708,490.056,-887.792,5.01,-5.163,2.941
125.301,484.861,-908.27,5.955,-5.494,3.054
96.426,467.429,-917.51,7.188,-5.583,2.825
132.839,478.942,-913.864,8.36,-5.807,2.576
122.648,463.423,-922.719,10.181,-5.885,2.594
125.914,479.519,-921.027,11.878,-5.978,3.081
104.377,472.937,-918.398,13.961,-6.605,3.503
139.09,506.196,-900.326,15.097,-6.711,3.941
118.736,523.02,-929.078,15.951,-6.947,3.909
116.454,533.242,-907.938,15.735,-7.028,3.6
99.224,560.965,-885.406,15.558,-7.399,3.35
106.299,589.146,-886.055,14.408,-7.782,3.495
92.474,605.225,-869.321,13.807,-8.572,4.212
119.652,604.329,-848.851,12.412,-8.855,5.257
107.485,605.165,-859.669,10.706,-9.02,5.839
93.361,583.02,-870.028,8.217,-9.002,5.916
85.775,568.838,-865.756,6.093,-9.242,5.773
80.199,564.147,-875.265,3.644,-9.458,5.751
73.259,569.01,-911.324,1.783,-9.737,5.681
92.077,563.399,-930.727,-0.241,-9.992,5.649
83.505,540.823,-925.589,-1.44,-10.319,5.429
108.386,557.682,-932.447,-2.966,-10.243,5.22
110.46,538.958,-946.044,-3.459,-10.392,5.381
110.264,550.804,-938.165,-3.985,-10.359,5.791
88.787,528.507,-930.899,-3.374,-10.377,6.054
105.294,499.096,-929.667,-3.133,-10.45,6.065
134.732,490.95,-920.239,-2.487,-10.206,5.923
130.683,483.002,-944.146,-2.014,-10.057,5.871
97.221,477.753,-933.54,-0.975,-10.093,5.863
124.227,474.305,-913.914,-0.444,-10.162,5.857
100.901,462.63,-905.297,0.648,-10.087,5.56
103.876,458.255,-900.814,1.051,-10.147,5.271
92.332,469.19,-901.901,2.269,-10.23,4.951
104.567,455.727,-905.24,3.044,-10.232,4.696
89.837,484.848,-877.743,4.119,-10.203,4.455
93.363,474.316,-889.775,4.785,-10.123,4.349
100.065,489.478,-863.845,6.022,-10.263,4.074
99.414,491.857,-876.125,6.431,-10.455,3.975
79.649,530.758,-878.437,7.086,-10.663,3.935
116.436,517.86,-876.842,7.053,-10.817,3.922
84.678,520.581,-890.234,7.325,-10.965,4.04
92.355,535.487,-891.399,6.896,-11.074,4.138
81.866,547.506,-902.16,6.458,-11.116,4.203
78.787,538.046,-915.817,5.421,-11.013,4.212
66.821,548.161,-937.584,5.061,-11.261,4.343
73.096,550.938,-926.298,4.359,-11.49,4.368
73.594,555.488,-922.164,3.685,-11.77,4.1
112.748,526.471,-938.441,2.375,-11.831,3.779
78.883,545.837,-924.719,1.455,-11.922,3.442
79.845,542.187,-924.713,0.307,-12.063,3.124
75.252,545.776,-921.275,-0.215,-12.119,2.894
97.061,538.019,-923.703,-1.081,-12.154,2.969
72.018,542.059,-884.368,-1.474,-12.424,2.927
80.466,527.307,-899.714,-2.322,-12.65,2.685
58.94,541.4,-889.539,-2.431,-13.015,2.182
51.45,515.107,-892.37,-2.953,-13.516,1.615
56.535,506.673,-887.048,-2.964,-14.057,1.105
42.841,525.721,-847.59,-3.512,-14.461,0.643
38.878,534.248,-860.41,-3.742,-14.926,0.152
40.48,528.84,-839.955,-4.37,-15.603,-0.268
23.392,518.086,-823.486,-4.811,-16.319,-0.717
17.356,524.347,-827.65,-5.795,-17.416,-1.324
2.832,542.334,-819.679,-6.627,-18.761,-2.082
-2.078,527.866,-786.13,-8.113,-20.198,-2.95
-34.059,531.929,-756.317,-9.49,-21.816,-3.809
-18.452,566.54,-743.126,-11.553,-23.458,-4.744
-36.215,586.051,-724.472,-13.938,-25.273,-5.679
-46.082,607.368,-708.135,-17.425,-27.121,-6.464
-72.112,617.787,-685.405,-21.396,-29.324,-7.492
-67.96,639.951,-646.4,-26.647,-31.703,-8.492
-94.725,653.878,-626.006,-32.487,-34.313,-9.77
-110.897,687.799,-607.903,-39.527,-37.208,-10.994
-131.924,697.611,-584.132,-46.718,-40.413,-12.245
-122.446,708.647,-548.4,-55.075,-43.869,-13.352
-166.861,704.678,-546.039,-63.812,-47.664,-14.894
-167.498,702.941,-542.82,-72.958,-51.36,-16.525
-177.74,702.423,-545.155,-81.346,-55.0,-18.273
-179.88,705.747,-548.615,-90.067,-58.87,-19.916
-186.147,704.155,-542.383,-98.476,-62.772,-21.833
-191.458,691.536,-556.361,-107.115,-66.351,-24.092
-195.726,641.851,-589.489,-112.798,-69.444,-26.568
-185.547,597.813,-639.901,-115.115,-72.234,-28.074
-206.616,549.314,-694.33,-114.614,-75.54,-28.842
-203.227,462.614,-707.587,-113.234,-78.761,-29.801
-209.15,377.936,-716.429,-109.271,-81.096,-31.818
-213.787,320.576,-714.844,-103.502,-82.396,-34.576
-253.598,272.758,-678.285,-95.619,-83.802,-37.662
-262.947,262.462,-688.384,-86.954,-85.553,-40.58
-298.969,246.434,-679.597,-77.323,-87.831,-43.082
-287.078,240.025,-678.312,-68.102,-90.363,-45.076
-317.189,278.386,-648.031,-58.465,-92.927,-46.74
-332.407,293.896,-627.884,-50.257,-95.425,-48.159
-314.005,361.069,-621.823,-43.245,-97.989,-49.548
-338.428,391.588,-597.138,-38.56,-100.508,-51.132
-345.718,434.514,-577.051,-35.531,-102.978,-52.944
-346.905,475.416,-568.955,-35.316,-105.155,-54.877
-363.056,520.08,-547.159,-36.995,-107.517,-57.024
-370.258,566.467,-561.447,-41.449,-109.626,-59.445
-375.157,613.339,-557.238,-47.656,-111.83,-61.946
-383.337,663.032,-582.739,-56.441,-113.893,-64.678
-375.281,710.452,-599.26,-66.603,-116.295,-67.866
-417.076,731.658,-592.157,-79.417,-119.066,-71.278
-419.741,781.384,-630.396,-93.153,-121.694,-75.211
-423.447,818.74,-650.229,-108.583,-124.313,-79.067
-430.465,849.102,-684.774,-124.746,-127.3,-82.866
-442.979,870.564,-713.298,-141.573,-130.299,-86.341
-444.217,906.16,-705.287,-158.51,-133.802,-89.881
-468.688,927.0,-706.896,-176.273,-137.163,-93.725
-483.367,923.426,-718.89,-193.347,-140.34,-97.894
-474.362,908.403,-725.668,-209.779,-142.715,-102.165
-479.865,877.675,-726.76,-223.417,-144.802,-106.308
-472.129,837.883,-763.183,-234.831,-146.775,-110.382
-455.94,793.283,-773.769,-243.5,-147.18,-113.902
-437.176,734.586,-787.668,-250.623,-145.944,-118.211
-443.632,676.671,-782.362,-255.116,-144.41,-122.825
-438.512,601.945,-734.066,-257.925,-142.646,-126.913
-439.412,563.046,-694.729,-258.405,-139.988,-131.504
-432.955,527.347,-681.032,-258.19,-137.013,-136.929
-447.221,502.743,-647.471,-256.165,-134.168,-142.539
-458.021,517.539,-618.682,-254.066,-131.321,-147.029
-481.625,497.439,-607.769,-249.413,-128.392,-151.28
-493.347,506.558,-593.572,-245.255,-125.686,-156.048
-495.792,557.9,-596.144,-242.912,-122.455,-160.263
-505.554,571.753,-615.402,-242.286,-118.374,-163.481
-526.102,619.849,-663.086,-240.324,-115.592,-166.805
-514.064,660.882,-664.996,-237.456,-114.008,-169.465
-523.271,686.813,-656.741,-234.894,-112.253,-171.118
-529.961,708.284,-663.899,-234.838,-110.426,-173.138
-572.477,748.507,-630.842,-234.752,-109.292,-176.564
-551.015,779.729,-610.817,-236.817,-107.583,-179.79
-559.03,801.524,-570.225,-241.143,-104.448,-182.162
-568.055,814.678,-582.276,-247.149,-101.096,-184.19
-557.704,861.45,-609.582,-252.515,-97.344,-186.849
-559.973,877.295,-618.119,-257.787,-93.407,-189.572
-568.0,929.372,-618.184,-261.879,-89.319,-191.02
-582.687,941.829,-591.918,-266.066,-84.978,-191.17
-585.183,940.982,-547.173,-269.28,-80.637,-191.238
-565.451,909.655,-518.849,-271.1,-75.285,-192.128
-601.659,871.481,-496.624,-271.509,-68.753,-193.362
-583.231,856.377,-449.405,-272.061,-62.533,-195.005
-624.769,808.753,-404.62,-271.489,-56.309,-196.435
-617.036,771.916,-374.46,-270.208,-51.093,-197.05
-639.587,761.132,-359.472,-267.221,-45.578,-197.476
-636.624,757.368,-347.911,-263.61,-40.605,-197.743
-655.8,726.341,-350.838,-259.132,-36.217,-197.775
-661.636,697.329,-356.055,-253.384,-30.709,-197.617
-667.905,677.128,-348.38,-245.506,-25.097,-196.486
-646.281,652.039,-345.407,-237.269,-18.759,-195.1
-679.557,693.797,-327.888,-228.083,-12.52,-193.07
-695.282,683.545,-326.402,-220.044,-7.517,-190.632
-701.574,688.98,-306.473,-213.435,-3.122,-189.058
-716.219,730.949,-318.332,-208.602,0.657,-187.501
-740.965,735.716,-290.103,-203.587,3.801,-185.101
-730.118,761.356,-277.02,-198.331,7.019,-181.829
-757.604,757.579,-252.254,-193.277,9.895,-178.714
-769.001,758.713,-234.132,-188.302,13.784,-175.741
-798.724,764.153,-222.773,-182.741,17.108,-173.349
-797.195,762.663,-204.295,-177.377,20.034,-170.65
-813.653,762.529,-168.607,-171.825,23.248,-167.569
-822.081,780.978,-125.322,-166.83,26.592,-164.223
-833.202,807.939,-120.232,-160.671,30.617,-161.063
-871.904,813.481,-126.68,-154.389,33.846,-158.61
-884.129,847.14,-111.492,-147.446,35.596,-155.895
-926.611,846.145,-117.179,-141.58,36.942,-153.558
-917.006,839.403,-127.185,-136.117,39.027,-151.654
-911.463,829.236,-116.46,-131.685,40.36,-148.335
-919.324,818.679,-109.865,-126.274,41.43,-143.64
-894.617,808.617,-97.019,-120.408,42.693,-138.194
-935.43,778.841,-89.675,-113.852,44.048,-132.646
-924.756,783.678,-95.062,-106.938,45.7,-126.849
-961.379,784.632,-77.597,-99.506,46.229,-121.567
-968.609,778.834,-77.509,-92.792,46.217,-116.63
-970.064,786.276,-60.604,-85.891,46.168,-112.399
-950.838,766.004,-64.164,-79.742,46.23,-107.557
-971.309,767.707,-50.773,-73.253,45.77,-101.989
-932.854,775.694,-38.203,-67.659,45.949,-95.82
-936.016,780.904,-15.879,-62.583,47.3,-89.729
-911.908,788.198,-16.074,-58.794,48.805,-83.715
-937.881,837.152,-7.077,-55.786,49.562,-78.117
-941.889,865.083,2.609,-54.062,50.044,-72.623
-948.445,896.653,23.39,-52.21,49.667,-66.695
-927.44,915.112,29.691,-50.825,48.732,-61.189
-957.623,920.99,31.986,-49.426,47.41,-56.224
-933.545,928.669,48.042,-47.901,45.699,-50.954
-959.995,891.29,60.694,-44.646,44.086,-45.215
-940.755,858.157,74.222,-40.945,42.557,-38.673
-950.401,841.431,60.692,-35.948,40.84,-31.906
-942.882,786.911,100.7,-30.251,39.424,-25.127
-926.019,786.968,129.025,-23.243,38.257,-18.986
-903.116,756.653,137.969,-16.445,37.631,-13.671
-891.001,792.827,167.143,-9.583,37.017,-9.117
-881.776,752.571,173.5,-2.983,36.556,-4.186
-872.376,772.656,174.157,3.407,35.88,0.808
-845.26,781.442,187.011,8.674,35.26,5.283
-867.616,800.653,179.693,12.747,34.547,9.585
-833.264,833.844,191.444,15.27,33.328,13.767
-837.955,832.119,192.178,16.947,31.542,17.75
-825.576,848.984,175.749,17.437,30.053,22.061
-806.916,884.97,204.306,17.227,28.782,25.876
-798.531,889.789,197.108,15.393,27.843,29.103
-796.265,903.814,190.381,12.503,26.747,31.798
-799.854,906.938,159.949,7.721,25.293,34.534
-775.197,937.54,171.998,2.354,23.766,36.687
-779.034,942.506,171.64,-4.417,21.991,38.941
-761.384,947.289,156.541,-11.585,20.251,41.146
-754.868,942.559,149.216,-19.645,18.794,43.338
-759.967,897.934,183.075,-26.44,17.124,45.737
-762.138,857.474,173.081,-32.402,14.666,48.057
-759.048,807.811,190.814,-36.247,12.363,50.016
-739.502,755.449,186.147,-38.625,10.5,52.046
-762.182,728.856,217.043,-38.909,8.626,54.344
-734.526,693.754,203.761,-38.218,7.03,56.897
-752.361,662.163,254.626,-36.061,5.773,59.553
-743.703,653.863,235.751,-32.717,4.567,62.723
-756.484,653.525,244.397,-27.822,3.093,66.258
-746.286,636.086,233.589,-22.306,1.864,69.911
-780.737,643.19,211.788,-15.613,0.738,73.216
-811.729,597.286,186.519,-8.578,-0.713,75.103
-869.844,549.303,252.167,-0.531,-4.79,76.744
-892.91,468.144,267.202,7.704,-10.398,79.417
-885.368,453.592,250.226,17.976,-15.366,82.131
-863.972,405.613,237.714,29.197,-18.616,84.796
-874.787,387.337,190.257,41.024,-21.858,86.962
-855.458,382.508,178.134,51.246,-24.474,88.873
-853.884,393.901,179.537,58.785,-27.221,89.912
-801.808,449.972,176.43,62.793,-29.316,90.736
-763.277,501.647,186.344,64.88,-30.627,91.736
-735.935,585.785,201.061,64.095,-30.948,92.752
-746.685,638.775,194.808,60.135,-30.578,92.96
-737.36,698.176,208.257,53.248,-30.852,92.51
-744.929,756.452,229.821,45.073,-32.269,91.463
-722.842,747.473,186.271,35.295,-33.703,89.986
-717.564,761.981,161.906,25.474,-34.787,87.762
-708.583,753.764,118.395,14.798,-35.015,85.202
-698.096,744.785,108.965,4.625,-35.233,81.899
-665.689,709.596,104.926,-4.718,-34.864,78.162
-678.964,637.013,63.883,-13.142,-33.801,73.703
-697.499,569.662,55.132,-20.91,-31.866,68.751
-724.205,485.588,39.603,-25.802,-30.103,63.832
-745.783,418.565,58.854,-29.018,-28.733,58.986
-763.826,316.051,37.438,-29.769,-28.022,54.095
-762.082,242.004,40.282,-28.359,-27.747,49.302
-772.385,151.507,38.0,-24.038,-27.04,44.289
-764.986,87.33,10.362,-17.931,-26.167,39.297
-761.391,19.668,4.056,-9.865,-25.623,34.142
-755.565,-33.9,-17.413,-1.731,-25.219,29.682
-745.612,-75.101,-28.492,7.057,-25.226,26.356
-754.006,-127.919,-25.561,16.007,-25.366,23.436
-736.207,-142.329,-39.842,26.104,-24.972,20.465
-730.403,-137.136,-36.46,36.544,-24.425,17.934
-738.458,-116.393,-36.628,48.146,-23.746,15.466
-733.279,-53.519,-43.954,59.759,-22.744,13.149
-741.896,3.855,-33.465,71.479,-21.673,10.738
-744.629,79.455,-58.176,82.061,-20.182,8.574
-763.787,171.907,-55.914,92.249,-19.009,6.315
-777.066,245.548,-85.628,100.875,-18.454,4.179
-775.214,339.551,-91.65,109.348,-18.696,2.009
-787.443,412.163,-102.627,116.984,-19.012,0.065
-772.051,479.158,-91.884,124.342,-19.847,-1.747
-741.954,538.776,-98.331,130.13,-19.555,-3.49
-714.556,586.763,-103.518,134.965,-19.117,-5.491
-693.837,615.92,-111.225,138.388,-18.163,-7.469
-712.401,611.037,-111.608,141.661,-17.38,-10.109
-690.299,615.172,-121.653,142.541,-15.783,-13.116
-681.201,600.976,-114.525,140.943,-13.768,-15.936
-689.689,598.814,-129.206,135.75,-10.869,-17.337
-714.155,586.797,-135.67,129.515,-7.855,-17.539
-732.311,579.481,-123.796,124.008,-5.291,-15.744
-777.422,573.19,-121.349,122.539,-3.983,-13.348
-785.489,552.442,-137.395,123.224,-3.453,-11.541
-844.162,548.216,-131.381,126.088,-3.972,-10.692
-811.249,563.96,-142.303,129.692,-4.702,-10.076
-850.555,526.727,-94.123,137.044,-7.471,-8.743
-836.336,458.75,-75.276,149.032,-11.612,-7.161
-803.21,423.727,-89.817,161.64,-12.953,-5.798
-775.347,415.051,-129.925,170.677,-10.055,-4.309
-813.383,405.085,-125.079,181.31,-3.441,-1.588
-863.991,438.1,-143.454,196.567,4.234,3.295
-986.837,477.735,-138.559,213.556,9.512,9.417
-1044.957,500.702,-135.726,226.014,10.452,15.366
-1114.53,546.267,-164.075,232.903,7.94,19.793
-1130.598,603.747,-199.116,235.452,3.303,24.061
-1121.884,639.823,-219.142,236.92,-0.567,28.75
-1111.637,704.623,-282.723,239.879,-1.832,33.649
-1094.046,741.55,-317.823,243.415,-3.099,38.824
-1084.136,770.834,-317.583,244.646,-5.425,44.853
-1072.905,756.648,-312.017,243.709,-8.139,50.61
-1024.615,757.19,-319.014,240.841,-9.723,55.276
-1045.612,775.108,-312.957,236.608,-10.652,58.105
-988.509,766.253,-332.396,230.807,-10.63,59.668
-995.027,789.375,-328.532,223.728,-10.834,60.818
-974.599,824.465,-328.203,215.234,-11.442,61.684
-972.581,822.356,-316.019,205.742,-12.415,61.965
-976.343,831.037,-290.699,194.965,-14.158,62.167
-981.797,852.811,-245.295,183.108,-16.062,61.609
-963.62,830.815,-190.213,170.308,-17.927,60.32
-963.022,817.467,-139.097,158.006,-18.958,58.713
-957.245,782.867,-115.095,146.161,-20.277,57.316
-913.276,753.339,-110.894,136.805,-19.435,55.906
-889.367,691.947,-101.278,130.414,-16.136,53.511
-889.387,654.212,-87.5,126.667,-15.943,51.931
-864.877,621.047,-107.597,122.774,-15.83,52.17
-856.123,587.868,-131.752,121.109,-15.252,52.54
-835.982,582.539,-162.271,119.475,-14.917,52.441
-836.294,553.245,-149.407,117.183,-14.443,52.003
-811.717,536.714,-155.561,113.951,-14.824,50.634
-806.602,523.91,-218.013,110.915,-13.854,47.941
-764.691,491.164,-211.226,109.097,-12.853,45.969
-750.951,495.459,-266.091,109.655,-12.455,45.41
-716.52,463.491,-271.916,112.291,-12.08,45.505
-738.685,450.739,-272.114,116.239,-12.428,45.475
-706.011,441.697,-266.394,120.237,-12.48,44.905
-709.713,440.221,-269.333,124.7,-12.447,43.184
-669.428,465.93,-275.256,128.615,-12.12,41.11
-686.664,502.929,-284.498,131.623,-10.326,40.345
-639.149,517.62,-300.512,134.862,-7.583,40.718
-670.208,544.573,-323.847,139.898,-5.103,41.154
-668.702,541.644,-322.079,147.375,-3.37,42.388
-658.795,536.696,-319.466,155.345,-1.271,42.878
-662.337,541.377,-341.237,160.898,1.088,42.384
-701.555,530.486,-344.897,163.707,1.83,39.632
-709.306,569.855,-338.046,161.323,1.918,34.354
-712.565,580.915,-362.199,153.719,1.472,27.434
-690.781,636.869,-385.242,141.932,0.713,20.719
-700.215,693.36,-393.353,129.546,-0.5,15.624
-694.816,713.696,-389.022,117.234,-1.964,12.65
-688.985,737.507,-367.072,105.737,-2.944,10.519
-692.127,716.968,-375.314,94.765,-3.728,8.083
-683.853,702.639,-346.421,84.758,-4.743,5.274
-683.917,702.346,-327.992,75.804,-5.922,2.507
-713.616,727.23,-313.067,68.5,-6.753,0.198
-705.248,749.447,-341.941,61.209,-7.744,-1.093
-677.664,787.709,-399.465,53.308,-8.036,-2.125
-664.223,802.109,-429.623,43.534,-7.339,-3.811
-634.926,850.953,-488.753,32.288,-4.516,-7.089
-629.027,896.038,-538.188,18.356,-0.138,-10.572
-610.85,891.275,-566.879,4.208,3.592,-12.483
-629.862,897.736,-566.538,-7.415,5.219,-12.685
-626.117,877.191,-557.216,-16.393,4.961,-12.757
-646.092,870.222,-530.612,-25.088,3.373,-13.456
-689.784,855.64,-511.172,-33.209,2.119,-15.812
-670.099,815.156,-476.892,-38.315,2.332,-19.279
-663.319,793.877,-461.562,-40.603,3.845,-22.273
-698.933,755.611,-456.823,-42.442,4.922,-22.524
-707.791,718.973,-429.81,-43.427,5.692,-21.862
-694.642,675.512,-411.526,-43.06,6.675,-21.06
-706.438,621.97,-396.54,-41.011,7.387,-20.319
-669.812,578.162,-391.256,-38.139,7.878,-18.932
-684.28,574.315,-369.899,-32.651,8.342,-17.555
-639.454,545.326,-354.389,-26.547,9.692,-15.994
-646.386,542.934,-382.392,-20.913,11.63,-14.901
-621.986,548.344,-395.918,-16.168,13.633,-14.154
-632.485,570.852,-413.749,-11.351,15.825,-13.371
-614.675,609.471,-432.999,-7.258,17.844,-12.012
-616.575,664.537,-436.749,-4.0,19.699,-10.57
-625.859,730.529,-445.756,-1.776,21.076,-9.235
-671.832,774.147,-447.651,-0.479,21.337,-8.38
-647.924,823.902,-471.57,-0.933,20.763,-7.765
-682.282,904.557,-475.278,-2.991,19.603,-8.143
-684.258,975.363,-474.123,-6.177,17.564,-9.088
-719.891,1030.39,-486.227,-9.551,14.541,-10.952
-734.058,1153.307,-509.226,-16.739,11.446,-13.384
-725.108,1256.224,-512.659,-29.119,7.747,-16.813
-739.754,1406.076,-532.285,-48.33,2.979,-20.9
-741.931,1522.415,-540.349,-73.495,-1.448,-24.807
-741.183,1637.076,-542.511,-102.336,-5.663,-28.318
-775.096,1714.029,-515.328,-133.365,-10.554,-31.671
-801.173,1808.547,-519.153,-168.328,-15.563,-33.425
-824.857,1882.052,-538.454,-207.687,-21.295,-35.269
-845.242,1951.615,-574.433,-251.232,-26.995,-38.388
-862.007,2025.283,-598.173,-295.102,-31.1,-43.069
-852.293,2034.418,-614.84,-336.607,-34.581,-46.38
-884.174,1997.965,-620.482,-374.038,-39.393,-46.563
-864.272,1941.588,-652.419,-408.085,-44.442,-43.091
-810.577,1794.561,-680.458,-439.364,-48.364,-39.369
-770.586,1619.375,-688.537,-467.097,-49.84,-37.767
-711.954,1478.503,-711.167,-488.779,-49.987,-36.319
-660.471,1235.646,-739.617,-504.17,-48.478,-31.307
-613.825,1037.12,-741.285,-510.951,-45.893,-24.834
-570.145,863.4,-755.836,-511.345,-41.086,-20.047
-589.025,732.965,-722.349,-505.31,-35.774,-15.31
-588.908,618.72,-655.294,-493.231,-31.913,-9.485
-644.344,495.491,-592.121,-474.918,-29.795,-3.27
-658.281,403.402,-543.013,-452.138,-29.563,5.665
-695.448,358.269,-486.617,-425.073,-29.714,16.277
-686.052,320.733,-415.559,-394.382,-29.649,27.809
-692.039,320.139,-377.627,-360.558,-29.729,39.837
-677.639,327.136,-312.171,-326.013,-29.337,52.405
-636.441,360.167,-253.526,-290.976,-28.96,65.885
-610.216,416.261,-206.407,-256.106,-27.784,80.209
-564.343,458.696,-191.285,-222.033,-26.13,93.927
-502.129,514.176,-143.803,-188.79,-23.669,107.033
-494.453,575.52,-124.729,-157.123,-21.149,118.512
-462.993,637.7,-105.187,-128.413,-18.4,128.208
-433.091,707.563,-131.782,-102.862,-14.965,136.129
-368.25,806.298,-119.108,-80.892,-10.533,142.22
-343.766,890.646,-139.208,-63.462,-5.572,146.734
-309.4,972.714,-176.998,-50.735,0.52,150.586
-295.465,1080.65,-197.546,-40.858,6.767,153.403
-253.781,1166.864,-187.606,-35.335,13.421,155.624
-245.517,1245.384,-199.33,-33.965,20.186,157.771
-255.5,1273.632,-217.608,-35.273,26.566,160.558
-242.193,1277.505,-203.544,-37.839,32.627,163.343
-236.418,1265.604,-212.491,-42.347,38.675,165.36
-224.222,1275.112,-223.801,-47.423,44.336,166.811
-199.392,1248.449,-229.845,-51.971,50.787,168.204
-193.174,1220.4,-221.094,-54.965,58.019,169.301
-188.851,1193.771,-226.856,-56.314,65.35,170.396
-220.542,1185.304,-242.028,-55.465,72.713,171.234
-225.805,1140.867,-233.749,-53.479,79.777,172.005
-262.41,1108.771,-232.656,-50.28,86.479,172.537
-265.603,1074.417,-256.222,-46.229,92.705,172.997
-247.659,1028.265,-266.354,-40.489,98.768,173.149
-261.29,1005.61,-271.955,-33.673,104.681,173.065
-284.194,966.755,-298.807,-25.474,110.403,172.72
-283.841,939.583,-326.794,-16.504,116.089,172.54
-280.804,895.267,-336.722,-6.72,121.393,171.767
-268.78,836.635,-357.273,3.613,126.988,170.87
-298.819,807.028,-401.038,15.613,132.447,169.679
-313.015,770.614,-394.924,28.383,137.581,168.588
-318.975,737.311,-399.212,41.98,141.994,167.311
-320.802,721.545,-391.575,55.619,146.214,165.423
-346.818,689.207,-383.954,69.822,150.401,162.051
-368.559,653.887,-427.146,83.049,154.269,157.539
-380.151,647.544,-430.403,95.542,157.441,152.136
-394.322,661.193,-439.939,106.215,160.027,146.579
-401.601,675.451,-438.175,115.661,162.263,141.285
-406.494,677.027,-453.025,123.955,164.485,136.336
-411.704,702.343,-478.752,130.036,166.969,131.241
-410.481,727.84,-478.315,133.56,169.606,126.682
-422.082,718.76,-487.938,135.994,171.601,122.587
-427.802,733.778,-484.628,137.03,172.962,118.775
-422.314,740.519,-497.416,136.723,173.748,114.537
-436.672,753.003,-513.306,134.699,174.966,109.259
-458.656,802.613,-491.741,132.565,174.842,103.09
-477.109,785.186,-494.365,129.777,174.743,96.93
-500.838,780.706,-512.41,127.358,173.744,90.707
-491.2,767.164,-515.849,123.771,173.012,85.095
-503.471,775.081,-481.29,120.22,171.9,79.204
-509.339,761.906,-465.886,116.147,170.474,73.663
-560.773,771.747,-458.255,112.154,168.994,68.108
-554.934,759.044,-449.447,107.673,167.109,62.83
-573.221,772.666,-452.439,103.096,164.299,58.047
-587.538,759.965,-455.057,98.002,161.148,53.936
-596.221,763.662,-445.35,92.952,157.165,49.818
-615.272,747.616,-427.259,87.832,152.413,45.649
-624.503,771.606,-400.905,82.331,147.454,40.6
-602.548,742.468,-398.974,76.617,142.67,35.564
-624.523,735.038,-392.825,71.129,138.106,30.917
-601.542,719.347,-392.769,65.165,134.159,27.026
-605.931,696.689,-410.292,59.692,130.577,23.204
-610.061,656.789,-404.647,55.018,127.378,19.722
-605.542,635.457,-408.291,51.677,124.811,16.027
-603.749,615.598,-401.288,48.455,122.71,12.246
-612.028,582.745,-401.809,46.229,119.877,8.355
-631.402,550.565,-432.206,45.038,117.373,5.273
-643.335,560.511,-410.496,44.851,114.516,2.385
-627.687,551.596,-419.147,45.401,111.485,-0.275
-649.618,565.015,-418.579,45.694,108.866,-2.85
-666.792,568.809,-410.166,45.922,105.654,-4.967
-670.77,595.396,-413.368,46.082,102.474,-6.702
-633.098,617.872,-415.466,46.23,99.358,-8.044
-645.734,604.986,-416.681,46.202,96.04,-9.11
-642.517,627.288,-406.01,45.418,92.974,-10.39
-650.886,610.471,-420.651,44.663,89.533,-11.733
-633.345,620.238,-398.468,43.26,86.338,-13.104
-642.736,599.781,-395.057,42.381,82.328,-14.594
-592.572,603.733,-416.151,41.442,78.707,-15.925
-581.332,603.429,-390.778,40.552,75.456,-17.433
-561.243,610.727,-409.598,39.473,72.61,-19.272
-550.033,640.233,-399.012,38.793,69.646,-21.24
-547.235,674.806,-410.48,37.057,66.403,-22.034
-554.143,701.79,-400.558,33.206,63.226,-22.601
-538.104,779.68,-414.444,26.723,60.053,-23.621
-534.889,836.74,-443.939,18.871,57.8,-26.733
-554.994,897.024,-439.206,7.294,56.82,-30.76
-658.423,877.889,-337.608,-7.6,52.06,-36.145
-707.93,809.722,-231.023,-23.819,42.206,-41.838
-723.564,749.032,-142.233,-38.641,30.31,-46.502
-669.513,627.525,-125.083,-50.961,21.38,-49.349
-609.568,566.927,-81.279,-58.678,15.477,-50.431
-498.79,490.292,-136.213,-61.245,13.808,-48.998
-464.254,483.401,-155.764,-58.866,15.417,-45.244
-398.081,473.872,-169.861,-51.377,18.13,-40.307
-424.161,459.982,-161.458,-39.486,20.839,-35.663
-424.373,434.353,-174.225,-25.54,22.84,-33.156
-419.025,462.845,-184.711,-12.542,23.784,-33.626
-395.43,468.28,-182.002,-1.724,23.577,-35.055
-385.313,477.612,-193.497,8.618,23.321,-35.934
-322.825,475.157,-241.582,19.841,23.693,-37.002
-307.966,460.96,-284.713,31.439,24.723,-37.988
-293.463,434.183,-291.205,42.903,25.097,-37.329
-323.2,442.849,-237.955,53.575,23.672,-35.5
-318.55,447.117,-233.071,62.147,20.859,-32.262
-306.514,502.533,-265.942,71.739,18.397,-29.094
-264.524,558.064,-312.928,83.527,17.377,-25.497
-246.811,605.833,-276.082,95.337,18.098,-23.552
-254.689,704.561,-263.429,100.923,17.582,-23.621
-325.49,821.015,-327.627,95.294,15.724,-25.681
-425.139,934.155,-279.805,83.022,9.32,-28.01
-495.58,1039.142,-200.135,71.508,-1.938,-30.997
-477.37,1120.808,-156.248,61.716,-12.305,-36.473
-448.067,1204.722,-171.719,49.175,-19.213,-46.084
-384.914,1232.717,-173.842,30.299,-24.745,-53.312
-347.767,1232.195,-177.66,10.582,-27.986,-56.81
-311.383,1219.629,-187.032,-6.719,-30.208,-56.278
-284.068,1143.921,-181.202,-20.882,-32.641,-53.407
-280.174,1073.318,-205.949,-32.864,-35.844,-50.14
-308.606,1001.734,-178.009,-41.935,-39.893,-48.905
-318.368,950.201,-175.777,-48.919,-43.948,-50.075
-309.073,901.784,-206.355,-54.166,-47.082,-52.501
-303.638,862.426,-269.411,-57.673,-49.592,-54.833
-323.313,861.007,-311.751,-57.76,-52.409,-56.78
-326.62,876.616,-326.106,-56.604,-54.777,-57.484
-353.963,914.879,-371.906,-57.834,-57.202,-58.043
-367.53,1009.537,-394.105,-62.34,-60.131,-58.215
-408.616,1085.236,-372.919,-69.352,-65.155,-58.816
-440.757,1180.737,-324.818,-80.41,-71.491,-59.233
-440.271,1254.881,-327.63,-97.865,-78.814,-60.132
-382.078,1308.133,-339.195,-122.879,-83.996,-61.886
-344.335,1295.747,-399.925,-151.331,-86.707,-65.174
-326.496,1286.714,-439.011,-180.713,-88.124,-68.898
-293.299,1282.926,-461.101,-210.164,-89.452,-72.674
-252.467,1213.132,-444.718,-239.817,-91.55,-76.501
-255.155,1123.609,-425.261,-264.673,-93.7,-80.75
-235.443,1028.622,-468.426,-279.942,-94.716,-84.603
-246.364,903.429,-479.801,-287.156,-93.29,-87.859
-243.445,755.978,-456.672,-287.736,-91.234,-91.645
-287.446,630.552,-406.101,-283.673,-89.17,-95.018
-352.149,517.775,-321.621,-273.665,-89.194,-95.885
-448.909,415.157,-248.367,-255.936,-90.809,-95.325
-496.511,401.144,-132.246,-231.377,-93.224,-93.704
-569.499,403.2,6.703,-202.988,-96.649,-92.256
-667.367,453.515,157.015,-174.09,-100.952,-90.057
-690.951,560.194,213.694,-148.416,-104.66,-87.645
-622.445,683.189,119.687,-128.132,-101.619,-85.002
-595.809,817.39,43.862,-110.933,-92.734,-82.924
-592.237,851.429,-15.546,-94.618,-81.729,-81.263
-586.557,906.626,-75.468,-82.523,-71.894,-79.795
-590.49,940.063,-129.942,-79.006,-65.097,-77.587
-573.436,948.912,-190.875,-82.001,-62.742,-75.276
-527.884,944.933,-227.573,-87.064,-62.007,-73.378
-521.194,970.159,-211.131,-90.558,-61.611,-72.62
-528.531,999.218,-179.502,-93.846,-60.275,-72.508
-513.766,1019.506,-128.193,-98.353,-57.888,-72.781
-506.422,1016.31,-145.318,-104.286,-54.01,-72.913
-529.231,998.534,-113.843,-108.497,-49.975,-72.875
-573.223,977.985,-110.393,-111.256,-47.164,-72.566
-568.59,980.407,-113.105,-113.13,-43.756,-73.379
-563.374,978.123,-136.868,-111.385,-39.146,-74.007
-570.022,936.32,-132.19,-104.429,-34.557,-74.801
-576.017,924.646,-159.559,-93.934,-30.281,-75.6
-572.068,907.594,-185.537,-80.855,-26.644,-76.742
-554.871,888.036,-187.814,-67.241,-22.646,-78.135
-593.995,882.306,-200.827,-55.25,-19.282,-79.909
-598.509,864.309,-188.474,-46.405,-16.792,-81.802
-547.32,868.895,-158.975,-40.283,-14.526,-84.736
-567.055,888.877,-168.598,-39.708,-9.994,-87.687
-534.631,932.8,-187.348,-45.63,-5.943,-89.441
-568.269,964.768,-174.93,-55.587,-4.14,-88.186
-586.104,981.943,-141.31,-64.883,-3.811,-84.868
-537.468,946.084,-114.194,-70.152,-3.259,-80.41
-509.055,870.229,-80.03,-69.876,-1.174,-76.492
-495.353,788.42,-34.745,-65.144,1.928,-73.705
-481.524,754.252,-15.658,-59.408,5.64,-72.421
-480.065,722.863,21.817,-54.108,9.552,-71.787
-515.54,718.169,46.82,-48.291,12.692,-71.659
-505.288,724.088,68.312,-41.65,15.385,-71.481
-477.453,761.722,74.491,-34.946,18.333,-71.756
-488.583,778.794,67.149,-28.676,21.549,-71.804
-492.964,779.697,45.349,-23.815,24.343,-71.279
-511.759,767.61,29.722,-21.724,26.559,-70.003
-512.656,735.862,34.211,-21.06,27.969,-68.915
-546.342,723.298,34.946,-20.018,29.194,-67.962
-558.192,701.069,34.814,-18.023,30.397,-67.514
-552.228,663.419,41.219,-16.198,31.458,-67.111
-585.435,669.915,18.976,-14.726,31.92,-66.809
-592.085,639.789,25.76,-13.38,32.476,-65.931
-609.213,664.674,20.341,-11.82,33.29,-65.173
-616.052,650.845,36.932,-11.397,33.931,-64.482
-647.781,658.118,59.237,-10.726,34.085,-64.57
-640.748,648.966,50.51,-9.79,34.351,-65.081
-658.023,669.596,34.459,-8.727,34.47,-66.11
-689.777,690.72,33.945,-8.133,34.479,-67.219
-693.647,727.748,14.563,-7.927,34.152,-68.569
-731.086,718.955,24.662,-7.881,33.826,-69.492
-748.775,707.78,20.475,-7.873,33.153,-70.192
-742.119,721.21,17.614,-8.399,32.781,-70.486
-744.441,731.333,8.424,-9.145,32.585,-70.892
-771.749,751.092,12.208,-10.555,33.092,-71.038
-793.347,767.13,10.179,-11.518,33.43,-70.969
-808.73,795.094,0.498,-11.875,33.98,-70.278
-816.231,820.885,-7.203,-12.465,34.493,-69.149
-809.483,799.461,-16.816,-13.54,35.131,-67.365
-841.832,795.735,12.027,-14.471,35.492,-65.454
-832.398,792.587,12.876,-14.84,36.075,-62.98
-818.139,795.012,15.561,-14.88,37.223,-60.352
-820.86,798.914,21.325,-13.857,38.571,-57.146
-839.174,790.904,34.709,-12.878,39.078,-54.183
-851.446,788.559,54.623,-12.04,39.319,-51.48
-842.494,786.523,42.198,-11.099,39.755,-49.573
-844.148,753.774,31.874,-10.274,39.685,-47.689
-854.414,751.784,40.696,-8.643,38.924,-45.558
-836.369,751.607,51.271,-6.601,38.535,-42.88
-844.925,748.978,65.16,-4.444,38.39,-40.597
-823.363,752.835,86.314,-2.773,38.402,-37.84
-820.783,757.206,101.318,-1.212,38.546,-35.177
-821.773,739.085,90.735,0.096,39.235,-32.354
-815.459,748.894,126.228,1.404,39.705,-29.735
-819.317,746.499,135.373,1.922,40.114,-26.507
-836.441,765.253,177.082,2.949,39.956,-23.245
-830.749,762.018,184.62,5.659,39.588,-19.579
-807.479,733.766,204.929,9.434,38.953,-16.422
-802.237,715.443,216.312,12.739,38.58,-13.682
-772.16,707.799,184.588,13.478,38.8,-12.309
-751.213,707.544,190.631,9.671,39.461,-11.565
-752.626,741.643,207.556,3.741,39.18,-11.223
-750.088,746.187,193.891,-0.687,38.177,-9.746
-755.829,758.776,166.044,-3.72,37.481,-7.929
-768.189,719.461,174.42,-7.23,36.788,-6.064
-751.023,692.934,186.345,-11.328,35.615,-5.164
-752.865,665.852,179.438,-15.467,34.983,-4.374
-737.415,606.802,174.213,-18.292,34.593,-4.066
-740.215,587.108,191.809,-19.531,34.125,-3.774
-728.623,586.737,196.411,-20.43,32.426,-3.432
-744.438,579.346,219.565,-22.642,30.785,-2.496
-747.771,585.144,208.079,-25.073,28.788,-1.848
-746.874,579.498,233.743,-26.495,27.954,-0.771
-756.776,585.548,260.636,-25.0,24.954,0.302
-729.655,586.514,259.249,-24.663,23.386,1.545
-722.505,613.774,253.957,-25.837,23.326,1.989
-726.145,641.19,267.424,-27.335,22.687,2.206
-747.885,644.86,267.491,-30.823,21.398,1.885
-717.835,663.753,265.361,-36.505,19.992,2.151
-729.124,665.809,248.661,-42.587,19.125,2.657
-690.439,670.439,256.153,-47.41,17.792,3.879
-715.863,704.199,239.107,-51.302,16.225,4.631
-688.997,745.682,261.245,-56.59,15.612,5.062
-676.843,743.764,264.836,-63.778,15.666,4.905
-686.917,761.247,285.112,-72.359,15.086,4.65
-685.844,808.182,294.371,-81.217,15.296,4.168
-668.311,792.496,289.716,-90.423,15.938,4.221
-674.202,793.306,281.49,-99.418,17.118,3.782
-670.763,803.413,300.419,-107.054,19.11,3.059
-684.272,765.851,287.312,-113.487,21.494,1.339
-681.797,773.725,316.801,-119.466,23.82,-0.902
-694.362,759.987,347.052,-124.691,25.077,-3.491
-698.96,717.796,357.452,-128.22,26.002,-5.78
-711.698,710.525,373.978,-129.795,26.648,-8.133
-667.065,720.041,360.831,-129.171,27.685,-10.102
-632.547,684.981,358.479,-126.739,30.189,-12.304
-626.634,700.411,383.439,-122.556,32.097,-13.503
-663.185,744.278,382.922,-117.421,32.944,-13.754
-659.568,749.159,391.309,-113.674,34.468,-13.529
-641.529,758.777,348.004,-111.395,36.624,-13.711
-589.918,782.998,195.43,-113.436,40.568,-14.025
-597.481,842.009,123.125,-117.165,45.761,-13.62
-596.279,889.751,85.552,-116.316,51.501,-11.746
-609.107,970.092,30.414,-111.017,56.933,-10.536
-628.656,987.265,-41.222,-105.466,60.413,-10.285
-686.477,993.963,-56.219,-102.057,61.324,-10.551
-710.624,961.946,-46.452,-101.624,60.133,-11.223
-718.779,907.383,-43.315,-103.395,57.944,-12.883
-725.89,841.575,-9.512,-105.156,56.304,-14.503
-708.89,805.798,-24.36,-105.951,54.841,-16.248
-688.898,741.633,-44.881,-105.155,54.806,-17.23
-692.16,693.003,-16.805,-102.319,55.188,-17.536
-685.29,627.49,-11.635,-97.239,55.981,-16.755
-677.123,602.015,-28.195,-91.83,56.632,-16.915
-671.438,569.089,-42.393,-88.821,58.396,-17.654
-665.867,546.398,-62.641,-88.726,60.381,-20.092
-654.975,549.839,-96.556,-90.414,62.271,-22.66
-675.902,568.985,-114.249,-92.864,63.163,-25.613
-666.325,590.157,-128.065,-95.927,63.624,-28.517
-687.808,584.512,-145.163,-99.78,62.72,-30.945
-711.304,571.032,-192.09,-103.157,62.027,-33.187
-711.346,556.738,-198.516,-105.563,61.79,-36.089
-746.932,520.866,-237.022,-106.739,60.937,-38.374
-758.43,465.654,-244.642,-104.988,59.716,-39.639
-786.344,453.711,-232.739,-99.154,58.942,-39.024
-780.88,406.944,-254.541,-90.432,58.111,-37.498
-763.558,399.282,-274.374,-80.463,58.296,-35.397
-785.777,389.394,-302.91,-69.568,58.603,-34.653
-804.496,379.817,-311.836,-58.72,58.627,-34.7
-799.861,369.05,-334.458,-49.547,58.241,-35.387
-806.798,347.919,-348.474,-41.275,57.36,-35.902
-788.369,315.556,-355.096,-34.902,55.947,-37.165
-797.889,297.181,-373.093,-30.549,54.118,-37.27
-803.756,293.176,-392.196,-28.052,51.694,-37.088
-772.945,262.927,-424.768,-26.61,50.693,-36.654
-780.824,256.643,-446.375,-25.86,51.287,-37.261
-801.282,267.854,-431.104,-28.286,51.689,-38.584
-882.6,322.158,-335.914,-35.784,49.67,-40.231
-941.44,455.398,-236.243,-46.08,45.861,-41.452
-997.473,598.59,-210.756,-57.507,41.063,-43.146
-1095.278,767.513,-99.669,-71.422,33.623,-44.329
-1183.261,950.009,42.764,-89.497,22.222,-44.037
-1194.196,1145.852,131.3,-110.331,11.696,-41.53
-1166.019,1322.416,160.005,-131.682,6.172,-39.031
-1087.119,1407.257,147.711,-153.758,4.904,-36.89
-1009.957,1361.461,93.873,-175.397,7.335,-36.557
-978.222,1198.566,48.359,-192.343,12.244,-38.625
-977.958,969.836,58.374,-204.394,14.736,-43.488
-971.692,724.604,63.235,-212.393,14.079,-49.032
-947.058,507.726,55.19,-214.557,11.956,-54.686
-906.266,346.119,60.489,-208.865,10.576,-58.137
-900.154,260.98,147.164,-195.054,9.19,-58.345
-855.939,214.578,133.27,-172.354,10.021,-55.177
-841.32,198.457,73.618,-144.339,14.239,-52.159
-829.922,169.286,48.314,-115.911,19.088,-49.92
-835.527,210.039,-22.495,-89.108,23.291,-49.279
-832.038,224.247,-115.379,-66.27,28.503,-49.2
-878.416,280.546,-186.31,-47.662,32.369,-48.846
-916.179,361.821,-249.081,-30.521,33.939,-46.968
-934.614,396.331,-292.684,-13.618,33.996,-44.482
-932.468,426.154,-299.765,2.787,33.343,-41.517
-932.08,480.527,-249.938,16.82,32.494,-39.217
-883.525,555.511,-267.645,27.196,32.009,-37.504
-878.725,625.529,-267.949,32.056,33.592,-37.435
-864.19,702.786,-276.373,30.414,36.333,-37.817
-869.933,799.7,-282.553,23.51,38.959,-38.859
-884.396,870.962,-279.324,12.171,41.083,-39.387
-882.711,881.924,-289.715,-1.676,42.324,-40.275
-889.522,869.453,-275.959,-16.35,43.773,-41.037
-867.836,834.386,-268.72,-31.013,45.291,-42.83
-851.107,771.371,-247.777,-45.08,46.848,-44.577
-848.122,720.745,-237.772,-57.569,47.537,-46.358
-868.916,651.066,-227.179,-67.624,48.307,-47.363
-900.601,604.649,-216.482,-75.176,48.288,-48.691
-927.4,563.37,-181.164,-80.376,47.262,-49.56
-942.585,506.454,-146.657,-83.839,45.201,-50.522
-924.049,477.72,-123.128,-86.171,42.998,-50.695
-929.527,433.539,-97.538,-87.505,40.119,-50.808
-957.025,401.751,-45.69,-87.172,36.837,-50.36
-922.842,394.833,-38.939,-84.973,33.537,-49.5
-927.916,378.064,-17.413,-80.932,31.141,-48.123
-901.166,367.183,-2.718,-76.429,28.434,-47.112
-926.003,339.929,11.966,-71.616,25.637,-46.022
-915.789,368.782,47.679,-66.58,22.351,-45.077
-883.249,305.816,59.453,-60.854,19.028,-43.516
-869.776,314.291,57.16,-55.253,17.087,-42.191
-853.318,280.98,48.442,-50.298,15.674,-40.822
-846.36,297.413,24.259,-45.895,14.504,-39.97
-827.912,294.491,-2.634,-41.185,13.314,-38.721
-842.032,299.711,-16.011,-35.959,12.099,-37.403
-822.072,284.819,0.178,-30.391,10.735,-35.578
-851.101,275.866,-14.656,-24.536,9.65,-34.521
-828.663,240.109,-35.717,-18.993,8.868,-33.417
-845.48,262.18,-29.364,-14.775,7.928,-32.601
-854.885,287.681,-44.817,-11.938,7.273,-30.831
-825.195,287.266,-49.909,-9.209,7.326,-28.795
-856.213,319.752,-60.077,-5.873,7.307,-26.0
-875.333,297.42,-59.41,-2.652,6.942,-23.536
-875.256,319.859,-65.73,0.32,6.643,-20.603
-879.046,326.429,-60.016,2.363,6.588,-17.812
-882.64,343.807,-18.368,3.966,6.377,-14.505
-881.162,337.031,8.889,5.017,6.021,-11.587
-860.901,339.671,17.021,4.819,7.757,-8.515
-848.758,370.552,-24.004,0.832,10.498,-6.448
-859.543,405.219,-31.193,-7.34,12.974,-4.111
-894.269,384.047,-31.093,-14.559,14.436,-1.139
-915.602,367.621,-12.586,-16.771,15.402,3.398
-945.738,334.988,-18.16,-15.985,16.102,6.808
-932.265,246.333,-2.511,-14.673,16.913,8.427
-963.455,204.457,-24.768,-13.154,17.525,8.267
-960.418,141.717,22.699,-10.295,17.411,8.526
-967.908,129.992,25.589,-5.803,16.836,8.819
-990.436,107.098,11.03,-0.778,16.889,9.851
-984.486,120.986,29.293,4.763,16.832,9.99
-999.413,119.275,45.469,9.684,16.841,9.768
-1009.123,140.855,18.283,12.556,16.865,8.458
-1016.266,163.907,10.655,14.248,16.82,7.18
-1036.338,203.692,12.758,14.749,16.418,5.569
-1029.073,222.022,11.395,13.737,16.115,4.695
-1035.843,260.176,-39.149,11.865,15.543,3.962
-1015.212,298.019,-22.776,9.847,17.338,3.692
-1072.405,310.254,-6.056,8.843,18.592,3.611
-1088.068,319.724,31.953,9.365,18.405,4.398
-1127.358,368.163,45.03,8.45,17.642,5.046
-1138.236,402.177,38.705,4.201,16.143,5.334
-1148.971,432.996,14.417,-2.447,14.499,4.457
-1130.858,431.002,9.953,-8.412,12.772,4.25
-1123.33,459.134,23.982,-13.757,12.62,4.581
-1112.964,461.314,55.507,-19.255,11.94,6.576
-1080.155,482.173,59.602,-25.258,10.835,8.251
-1054.783,485.971,56.047,-30.39,11.949,9.547
-1058.705,479.291,84.184,-35.276,12.526,9.547
-1039.293,479.177,78.472,-39.768,13.123,9.348
-999.387,471.291,53.585,-44.013,14.298,8.684
-988.889,407.917,64.428,-46.048,16.983,8.185
-1006.371,392.819,153.273,-45.718,16.966,8.465
-970.273,381.582,190.802,-44.854,17.95,9.333
-999.817,389.975,240.292,-45.052,19.245,7.951
-988.579,420.517,220.22,-47.66,18.435,6.15
-969.59,478.069,187.023,-53.898,19.287,2.827
-945.602,514.783,186.032,-60.177,18.874,-0.24
-940.273,527.261,193.858,-64.488,18.975,-2.772
-913.089,584.695,199.531,-65.374,20.432,-4.126
-867.968,595.169,195.161,-64.488,23.079,-6.462
-854.091,609.211,205.729,-64.312,26.277,-8.827
-865.946,634.956,219.882,-67.744,27.639,-11.496
-885.196,658.054,203.268,-72.512,25.894,-13.037
-906.932,655.664,238.651,-74.965,22.431,-13.614
-915.654,623.472,217.775,-74.102,18.633,-14.045
-937.153,598.958,201.259,-72.084,13.906,-15.447
-929.467,534.233,208.279,-69.596,10.222,-16.64
-937.284,520.327,208.571,-66.082,7.581,-17.775
-935.626,495.312,228.531,-59.985,4.967,-17.514
-919.678,478.208,235.031,-51.673,1.051,-16.413
-888.174,498.885,188.552,-42.435,-1.582,-13.988
-887.727,484.937,152.888,-34.355,-1.387,-13.719
-859.037,484.157,139.605,-29.205,-2.061,-14.751
-831.581,483.986,100.267,-28.09,-1.909,-17.501
-829.123,421.712,109.634,-28.655,-2.0,-21.051
-817.422,361.806,98.33,-30.387,-3.23,-24.378
-809.632,302.931,98.268,-30.605,-4.406,-25.113
-813.141,294.76,54.737,-26.16,-4.33,-23.998
-810.43,240.008,54.475,-17.988,-3.645,-22.28
-813.259,214.491,-38.005,-10.087,-2.466,-21.617
-826.301,186.348,-102.402,-3.705,-1.031,-21.366
-841.416,182.552,-184.255,1.331,-0.242,-21.677
-853.499,181.547,-266.751,6.861,-0.289,-20.569
-857.49,161.739,-303.239,11.547,-3.0,-18.608
-865.552,135.371,-335.834,15.003,-6.693,-15.419
-926.248,87.836,-331.27,17.129,-11.159,-12.713
-917.515,75.724,-317.679,18.213,-15.472,-8.807
-921.737,113.645,-321.48,17.307,-19.125,-4.893
-967.26,141.623,-321.807,14.772,-22.543,-0.513
-971.287,237.328,-351.797,11.967,-27.147,2.381
-986.263,294.707,-344.829,8.384,-30.929,2.652
-1058.86,371.235,-301.413,2.311,-34.57,-1.058
-1093.889,417.337,-260.289,-4.005,-40.364,-2.998
-1157.077,491.537,-146.068,-13.148,-47.572,-0.39
-1236.627,617.51,42.737,-24.608,-57.609,6.692
-1281.87,772.299,203.751,-39.822,-67.759,13.763
-1257.654,985.111,287.686,-58.873,-75.247,19.927
-1175.07,1181.104,331.96,-80.59,-78.044,23.601
-1109.291,1322.12,323.091,-100.648,-76.827,26.354
-1072.014,1328.516,242.864,-117.876,-73.695,25.106
-1031.45,1171.982,182.418,-133.775,-70.421,19.35
-980.418,934.134,107.509,-150.709,-68.007,9.946
-868.357,593.678,105.452,-166.045,-65.042,0.417
-758.823,306.237,87.649,-175.411,-61.989,-8.816
-690.145,14.541,59.712,-173.486,-57.972,-15.537
-629.383,-170.938,13.504,-160.605,-51.877,-20.235
-618.231,-309.274,2.791,-138.634,-43.29,-21.987
-603.283,-378.665,-13.728,-111.627,-33.808,-22.403
-648.708,-410.774,9.077,-82.446,-25.095,-22.103
-676.001,-371.218,53.506,-54.629,-17.625,-24.775
-672.525,-326.756,88.347,-29.076,-11.779,-27.971
-692.237,-241.724,71.835,-6.791,-6.441,-29.802
-680.265,-171.454,68.349,11.913,-2.123,-28.606
-693.255,-89.569,47.999,27.584,2.258,-26.341
-727.511,10.655,57.039,41.232,5.596,-23.879
-728.957,106.976,55.87,51.205,6.926,-22.207
-757.942,203.452,63.624,57.555,7.259,-20.688
-783.815,258.178,91.555,59.94,6.657,-20.391
-764.008,289.889,73.179,60.334,6.067,-19.844
-780.661,326.141,82.543,58.31,5.7,-20.303
-768.063,348.454,76.712,53.777,5.943,-20.39
-771.979,375.543,51.001,48.042,6.05,-21.003
-785.688,354.07,57.142,42.909,6.307,-21.019
-808.025,350.136,62.706,37.166,6.236,-21.64
-828.022,353.033,68.237,31.446,5.343,-22.058
-851.795,371.135,60.469,25.518,4.394,-23.292
-872.984,392.782,56.588,19.604,3.724,-24.793
-900.992,427.664,52.035,13.412,2.452,-27.298
-917.677,455.342,49.561,7.538,1.304,-29.521
-927.481,435.685,50.893,0.76,0.214,-32.077
-951.64,393.311,45.25,-5.331,0.603,-34.16
-952.784,337.91,77.269,-9.313,-0.292,-36.544
-989.179,214.209,165.548,-7.901,-2.093,-37.298
-999.273,124.924,219.783,-3.776,-4.343,-38.079
-999.042,38.524,279.497,3.514,-6.066,-37.984
-984.496,-42.614,307.826,11.093,-7.186,-38.593
-976.631,3.549,325.056,18.906,-6.725,-38.214
-991.932,58.512,309.757,24.934,-6.096,-37.765
-1006.69,178.546,252.398,28.905,-5.32,-36.861
-1011.024,278.417,245.176,30.815,-5.132,-36.103
-990.55,340.155,221.299,31.847,-4.489,-34.621
-1026.876,357.913,206.959,30.834,-4.278,-33.759
-1000.909,366.366,250.5,29.004,-5.66,-33.781
-961.414,354.982,240.359,26.928,-4.827,-34.318
-949.814,271.734,240.214,26.912,-3.153,-34.093
-931.306,250.666,236.705,28.873,-1.667,-34.707
-947.548,195.42,274.768,33.492,-0.095,-34.366
-924.112,180.361,221.213,38.913,0.978,-34.1
-933.123,201.45,235.303,44.344,1.418,-33.146
-947.221,241.865,244.091,48.547,1.162,-32.629
-937.941,248.705,237.597,52.469,0.366,-31.849
-922.252,266.83,238.375,54.513,-0.407,-31.635
-918.877,284.846,266.939,55.702,-0.92,-30.323
-895.025,297.566,270.435,55.993,-1.358,-29.92
-884.291,298.729,273.144,56.151,-1.198,-29.073
-853.069,297.78,281.186,54.062,-1.064,-28.431
-862.409,289.12,292.953,50.816,-0.512,-26.925
-836.857,287.254,285.898,46.883,0.024,-25.964
-840.782,294.766,289.692,43.511,0.989,-23.949
-841.145,289.186,286.66,41.058,1.529,-22.237
-827.956,312.999,268.553,41.345,2.074,-20.071
-848.27,329.147,257.996,42.254,2.596,-18.597
-828.582,311.444,265.069,42.312,2.686,-17.349
-824.208,322.838,254.733,40.916,2.647,-16.989
-829.17,318.447,254.68,39.633,2.81,-16.005
-814.679,330.294,274.686,37.324,2.909,-15.56
-844.892,338.187,267.248,35.259,2.871,-14.997
-861.918,360.336,273.554,33.719,2.378,-15.135
-863.337,373.228,293.23,33.363,1.534,-14.615
-867.312,387.908,287.444,31.663,0.979,-13.963
-862.224,348.283,308.187,30.006,0.473,-13.068
-847.074,351.677,316.281,27.926,-0.4,-12.712
-865.633,333.862,304.594,26.566,-0.951,-11.499
-883.336,344.38,326.541,25.113,-1.868,-11.09
-873.134,327.045,323.478,24.724,-2.869,-10.238
-886.013,310.635,311.973,24.615,-4.039,-10.434
-910.159,310.685,339.602,25.291,-5.121,-10.353
-915.502,312.533,328.142,25.662,-5.988,-10.701
-920.235,305.928,322.855,26.988,-6.555,-10.571
-916.26,301.775,326.869,27.865,-7.491,-11.046
-902.673,293.1,332.379,29.477,-8.215,-10.968
-925.518,296.759,318.547,30.666,-8.595,-11.546
-908.344,286.084,342.877,32.324,-8.571,-11.424
-925.76,313.36,344.326,33.054,-8.401,-11.392
-923.123,317.304,316.739,33.858,-8.165,-10.55
-932.399,323.495,296.913,33.999,-7.968,-10.996
-936.089,315.606,298.522,34.556,-7.456,-10.801
-945.299,366.999,288.561,34.386,-7.11,-11.017
-972.923,379.058,303.079,34.399,-7.091,-10.298
-969.872,397.507,307.925,33.392,-7.34,-9.919
-962.054,387.475,319.286,32.371,-7.165,-9.03
-966.282,410.392,298.818,30.583,-6.905,-8.934
-961.865,377.822,290.447,29.343,-6.341,-8.315
-975.27,400.11,312.207,27.807,-6.019,-8.321
-978.772,383.485,293.685,26.758,-5.997,-7.375
-991.425,375.942,288.961,25.419,-6.206,-6.642
-998.127,380.401,294.891,24.526,-6.394,-5.22
-979.448,381.441,287.602,23.436,-6.363,-4.427
-963.359,364.773,286.786,23.02,-5.765,-2.849
-956.538,354.216,261.648,22.498,-5.361,-1.934
-949.126,330.5,285.11,22.744,-4.937,-0.264
-922.558,332.604,260.523,22.606,-4.347,0.754
-892.923,314.38,284.004,22.92,-3.537,2.173
-895.148,300.633,254.036,22.474,-3.131,2.664
-891.427,309.791,274.336,22.411,-2.829,3.455
-892.486,306.62,262.09,21.66,-2.659,3.546
-863.304,287.877,266.879,21.282,-2.462,4.113
-869.983,288.836,272.533,19.415,-2.154,3.664
-853.152,296.376,277.456,18.021,-1.669,3.686
-846.638,289.877,267.314,16.577,-1.445,2.619
-852.587,288.078,267.989,16.238,-1.22,2.151
-852.366,271.446,253.691,15.28,-1.206,0.878
-833.581,263.558,271.317,14.804,-1.05,0.306
-854.449,267.28,245.414,13.994,-1.204,-0.819
-855.427,255.252,253.013,14.086,-1.101,-1.023
-855.647,265.274,221.77,13.694,-1.512,-1.819
-870.278,278.6,228.041,14.062,-1.982,-1.74
-853.65,312.328,214.67,13.617,-2.738,-2.381
-862.107,337.842,237.384,13.556,-3.209,-2.288
-881.48,372.762,226.649,12.794,-3.692,-2.845
-888.315,383.098,229.317,12.306,-3.505,-2.587
-902.071,386.167,214.319,10.743,-3.418,-2.602
-888.267,397.138,225.574,9.353,-3.208,-1.522
-917.81,398.5,224.114,7.655,-3.292,-0.82
-907.463,396.767,215.317,6.568,-3.347,0.287
-921.248,418.062,218.275,4.892,-3.737,0.78
-899.715,413.368,227.376,3.912,-3.62,2.024
-888.069,417.506,211.893,2.178,-3.57,2.632
-886.241,412.11,211.662,1.373,-3.461,3.594
-889.7,419.332,212.115,0.217,-3.296,3.604
-876.875,405.063,236.396,0.159,-2.977,4.536
-882.545,392.377,234.857,-0.574,-2.639,4.963
-880.771,398.088,264.948,-0.481,-2.097,6.061
-874.239,414.101,233.878,-0.73,-1.828,6.176
-887.172,404.297,242.653,0.083,-1.413,6.82
-906.488,420.599,253.09,0.74,-1.534,6.807
-896.344,404.746,264.038,2.217,-2.142,8.013
-909.507,413.221,255.67,3.253,-3.186,9.178
-909.814,399.509,280.258,5.134,-4.067,11.557
-894.96,397.847,260.816,6.218,-4.986,13.735
-887.306,412.669,263.279,8.302,-5.451,16.772
-872.484,408.603,235.339,9.813,-5.966,19.419
-890.591,401.344,238.186,11.334,-6.424,22.445
-871.009,415.037,207.106,10.745,-7.344,24.388
-857.159,427.055,202.169,9.435,-8.137,26.876
-843.976,455.687,186.314,6.487,-9.166,28.663
-850.234,469.434,180.19,4.043,-9.778,31.569
-867.979,481.708,160.222,0.471,-10.668,33.851
-856.783,491.017,152.752,-2.731,-11.083,37.09
-848.973,511.314,142.409,-7.371,-11.295,39.344
-854.805,498.402,150.215,-11.663,-11.266,41.976
-843.495,459.632,129.053,-16.995,-11.426,43.704
-843.633,443.886,112.57,-21.657,-11.491,45.911
-845.725,413.676,124.735,-26.697,-11.771,47.142
-825.651,376.015,138.705,-30.836,-12.246,49.043
-844.791,418.082,134.488,-35.821,-12.797,50.032
-838.693,378.793,139.393,-40.502,-12.992,51.328
-851.215,395.397,127.573,-45.787,-13.129,51.775
-848.404,393.634,140.46,-51.067,-12.931,52.844
-831.62,396.388,127.92,-57.688,-12.713,52.88
-839.55,385.702,148.807,-63.374,-12.425,53.658
-852.584,385.947,132.819,-69.111,-12.316,53.691
-869.201,357.476,141.902,-72.633,-12.845,54.634
-884.097,325.707,151.779,-75.368,-13.532,55.02
-888.267,295.254,151.197,-75.466,-14.215,55.732
-891.559,272.445,125.34,-74.506,-14.906,55.164
-884.751,235.71,133.208,-71.673,-15.613,55.066
-879.757,237.024,118.969,-68.915,-16.38,54.399
-903.796,231.672,132.662,-64.402,-16.937,55.099
-898.33,238.545,131.288,-60.9,-18.046,55.543
-923.646,214.383,136.806,-56.961,-18.977,56.892
-909.804,254.311,95.679,-54.456,-19.378,57.407
-924.607,265.129,108.246,-52.35,-19.041,58.181
-895.909,328.067,73.108,-53.844,-18.031,57.929
-898.147,360.298,83.24,-56.586,-16.235,58.716
-903.357,411.607,51.627,-60.766,-14.655,58.154
-907.422,386.125,46.538,-64.459,-13.557,58.238
-916.889,406.937,36.59,-70.017,-12.825,57.759
-877.367,373.221,60.987,-76.454,-12.053,57.801
-886.828,384.405,35.85,-84.164,-10.778,56.596
-885.373,345.992,17.543,-88.865,-10.121,55.952
-882.58,334.945,23.436,-90.864,-10.597,54.498
-844.717,265.62,15.467,-89.5,-9.732,53.268
-798.687,231.119,-8.09,-87.964,-6.164,50.799
-834.781,203.195,51.357,-84.388,-3.184,49.821
-883.335,218.033,90.029,-84.265,-3.623,48.403
-845.377,201.95,127.517,-83.025,-5.079,48.233
-813.456,233.808,142.535,-81.879,-4.436,47.001
-776.826,227.874,133.767,-79.231,-1.863,46.862
-778.469,269.407,143.348,-74.063,0.98,45.938
-756.251,248.48,84.923,-66.433,5.777,45.153
-750.331,284.57,99.584,-59.363,10.949,42.3
-753.003,301.348,116.065,-55.046,16.237,39.574
-770.679,377.664,151.795,-54.587,19.936,36.5
-757.043,424.445,184.636,-54.73,23.97,35.527
-770.258,511.367,199.499,-56.321,27.578,35.613
-752.237,535.324,257.437,-56.903,30.881,37.457
-748.366,576.238,247.363,-57.979,33.565,38.222
-755.216,574.756,284.208,-58.894,36.012,37.972
-755.543,598.304,314.147,-61.059,38.259,35.381
-769.902,593.243,323.849,-61.589,39.972,32.829
-792.348,587.334,304.563,-61.142,40.328,28.591
-785.081,539.736,289.916,-59.45,40.379,24.841
-743.676,519.716,234.647,-58.223,40.26,21.346
-724.647,494.495,168.503,-56.372,41.39,20.774
-701.369,517.554,91.444,-55.676,42.921,20.647
-683.933,545.808,65.16,-53.881,45.739,22.476
-694.402,573.608,52.143,-52.884,48.259,23.438
-723.016,569.433,79.655,-51.371,48.999,24.508
-713.092,568.093,66.85,-52.542,48.028,23.698
-736.666,515.984,96.456,-52.577,46.303,22.988
-765.648,460.364,132.483,-52.768,43.985,21.16
-799.106,377.254,174.245,-50.81,41.468,20.585
-814.82,309.872,163.477,-47.15,39.518,19.038
-825.209,253.659,158.465,-41.645,38.541,17.674
-827.659,225.776,137.144,-38.821,37.704,15.43
-811.498,192.259,145.31,-35.015,38.326,14.046
-770.396,175.994,56.935,-23.931,41.196,11.877
-737.748,180.308,47.023,-7.99,44.311,12.965
-731.546,213.576,73.849,0.01,48.348,14.069
-798.176,207.858,94.206,4.29,52.19,14.138
-878.081,242.698,65.228,4.399,52.627,12.026
-923.977,262.17,84.16,4.256,51.303,11.816
-971.887,323.268,69.345,1.4,50.367,11.875
-1017.29,415.953,60.032,1.178,48.909,13.435
-949.01,519.212,14.935,1.004,48.551,13.635
-970.035,545.652,35.016,-1.387,49.73,14.155
-985.405,596.716,32.215,-8.946,49.581,13.841
-1039.508,577.01,75.729,-16.65,47.424,14.551
-1099.907,554.856,136.428,-25.419,42.157,14.659
-1100.52,538.081,179.326,-33.419,35.137,16.228
-1074.638,574.049,195.665,-43.047,29.568,17.368
-1082.426,597.263,199.346,-49.949,24.922,20.638
-1055.664,615.339,208.649,-57.681,21.047,23.299
-1074.802,562.815,205.07,-64.765,17.067,26.57
-1069.016,573.495,194.621,-73.633,11.05,28.282
-1075.375,541.898,220.056,-81.929,5.373,30.751
-1076.534,562.062,262.805,-91.32,-1.157,32.083
-1082.962,599.521,346.623,-99.25,-7.128,35.068
-1037.6,707.493,437.714,-107.913,-11.329,37.88
-1005.729,808.968,486.455,-115.758,-12.588,42.258
-927.208,875.082,466.939,-123.108,-10.815,44.719
-873.09,809.899,430.161,-125.698,-4.872,44.488
-812.749,651.22,361.871,-125.167,2.505,38.142
-784.981,386.654,315.155,-123.531,10.07,28.472
-813.446,157.897,237.135,-126.799,14.453,16.451
-834.549,-43.404,241.44,-132.552,16.115,6.866
-815.88,-72.442,207.757,-139.478,15.728,-0.218
-806.509,-40.968,224.155,-142.673,16.583,-0.589
-766.886,17.919,253.027,-140.85,19.105,2.631
-739.074,41.933,293.612,-135.334,24.022,7.144
-746.707,78.912,351.167,-130.649,27.783,8.057
-792.193,46.065,330.446,-126.775,31.36,6.492
-876.535,115.029,473.408,-125.431,32.0,2.188
-938.553,183.93,621.89,-126.222,28.716,0.252
-838.161,258.511,550.371,-127.848,27.142,-0.379
-774.729,266.24,571.11,-124.453,29.098,2.511
-805.305,250.017,544.794,-122.14,31.266,2.67
-893.596,197.157,664.283,-120.598,29.046,3.455
-918.344,240.294,649.819,-122.403,22.918,2.468
-869.268,244.908,633.068,-119.782,18.452,2.705
-847.892,249.603,538.95,-115.485,16.566,2.507
-859.607,150.858,563.573,-107.956,15.874,3.59
-864.41,66.541,528.822,-102.822,15.926,1.31
-915.765,-39.285,654.538,-98.458,13.725,-0.418
-917.54,-66.654,719.736,-95.46,9.259,-1.204
-842.702,-38.901,736.571,-87.879,8.519,1.399
-817.069,31.226,705.846,-79.663,9.215,4.87
-771.097,105.776,633.617,-71.921,10.896,9.097
-724.216,188.656,576.611,-70.514,14.599,10.76
-722.208,200.576,550.616,-70.02,16.374,11.792
-710.969,180.972,463.461,-71.797,18.901,9.532
-728.654,141.747,464.695,-73.253,21.193,7.554
-734.177,121.852,372.013,-76.395,23.325,5.304
-755.894,86.16,391.338,-76.424,24.719,5.406
-765.53,94.668,404.906,-77.164,25.062,4.44
-784.994,101.585,411.701,-76.057,24.993,4.363
-758.863,136.957,364.401,-77.908,25.736,3.188
-772.171,160.231,357.936,-80.891,27.205,1.617
-787.192,152.853,277.353,-85.96,27.969,-1.855
-817.315,93.887,277.424,-89.734,27.953,-4.573
-829.121,82.887,266.025,-94.235,27.818,-7.947
-837.613,50.102,300.267,-95.467,27.576,-8.711
-840.693,77.548,326.81,-97.578,26.626,-10.23
-877.346,88.807,333.78,-96.256,25.033,-9.637
-832.752,124.686,336.159,-94.818,23.087,-9.443
-831.881,123.086,392.254,-90.891,21.673,-7.187
-815.067,152.671,379.081,-87.009,20.331,-5.487
-852.821,165.603,396.418,-81.152,18.965,-2.992
-818.846,229.572,389.914,-78.026,17.151,-2.618
-856.805,247.209,397.546,-73.592,15.29,-1.587
-852.564,278.381,411.41,-72.068,13.154,-2.019
-847.629,253.951,453.312,-70.155,11.87,-0.534
-802.938,230.611,425.194,-70.31,11.716,-0.149
-818.527,165.958,404.214,-67.057,12.678,1.394
-803.852,167.273,352.923,-65.769,13.371,1.047
-815.905,169.791,369.783,-62.971,13.373,2.827
-801.308,246.779,366.222,-61.782,13.104,4.424
-786.653,279.384,405.961,-60.303,13.731,6.764
-786.146,322.787,398.396,-62.365,14.441,6.596
-843.612,323.932,413.231,-64.573,15.1,7.046
-821.147,356.369,394.006,-69.798,15.486,5.874
-852.105,311.768,426.15,-74.116,15.647,5.695
-840.486,289.729,408.04,-80.404,15.533,4.691
-859.241,267.526,465.528,-83.526,15.218,5.841
-858.731,239.043,453.683,-85.907,15.22,5.992
-840.982,203.639,484.45,-84.478,15.234,7.549
-820.648,244.985,449.37,-84.244,15.704,8.154
-843.563,249.141,455.029,-83.277,15.545,10.203
-823.057,286.19,426.931,-84.596,15.743,10.6
-826.07,265.09,452.078,-82.423,16.67,12.614
-813.371,324.631,420.337,-82.942,16.692,13.131
-807.215,355.373,446.598,-82.6,16.8,14.535
-793.467,396.856,457.019,-83.063,17.378,14.828
-815.612,372.779,476.15,-80.352,18.263,16.966
-801.308,425.032,466.903,-79.588,19.338,17.838
-806.923,406.623,501.082,-77.577,20.844,19.919
-814.78,442.142,476.334,-78.172,22.229,20.549
-859.51,481.755,499.258,-76.37,23.521,22.411
-871.879,540.419,507.115,-77.219,23.881,22.638
-901.451,521.486,538.748,-78.178,24.381,24.212
-890.613,554.861,523.365,-81.009,24.636,24.904
-916.113,517.176,567.333,-81.831,24.319,27.021
-912.56,543.071,548.978,-84.152,23.917,28.146
-930.328,510.562,595.482,-83.884,23.506,30.568
-915.633,563.082,579.78,-85.718,22.767,30.538
-944.103,537.211,606.56,-86.115,22.08,31.347
-956.41,559.94,562.085,-89.11,21.68,30.195
-1008.792,540.623,592.977,-90.299,21.143,29.791
-1009.043,533.67,556.003,-93.792,20.179,27.606
-1044.912,486.393,606.82,-95.404,18.724,26.938
-1029.538,498.666,572.052,-98.562,17.656,25.002
-1060.995,480.107,605.238,-98.832,17.649,25.012
-1033.088,490.342,536.402,-100.452,17.767,23.462
-1058.698,461.609,575.054,-99.583,18.027,22.995
-1043.959,504.921,564.838,-101.309,18.157,20.699
-1105.534,512.851,580.232,-100.849,18.231,20.144
-1092.792,550.179,540.26,-101.966,18.352,18.216
-1102.295,561.537,570.246,-100.78,18.559,18.268
-1093.261,596.495,547.127,-101.485,19.159,17.045
-1125.891,586.409,575.469,-100.313,20.045,17.447
-1081.466,607.028,517.769,-102.131,21.266,16.128
-1125.274,639.13,570.572,-101.771,22.186,16.623
-1098.399,692.632,513.363,-103.725,23.424,15.961
-1135.031,710.152,520.499,-103.651,24.606,17.282
-1115.921,757.351,487.631,-105.769,25.198,17.058
-1131.984,756.648,502.319,-105.767,25.663,18.646
-1117.615,793.505,485.655,-108.33,26.212,18.785
-1162.367,784.176,519.29,-107.862,26.838,20.988
-1127.253,769.701,472.708,-108.938,27.471,21.318
-1123.858,744.64,507.693,-107.384,27.837,22.968
-1086.762,739.534,484.707,-108.679,27.655,23.136
-1073.739,701.667,490.113,-107.898,27.453,25.31
-1024.586,687.027,449.085,-109.485,27.532,25.839
-1044.357,651.479,441.71,-107.934,27.439,27.925
-1003.594,639.442,407.928,-108.811,27.129,27.893
-979.836,587.23,386.307,-108.043,26.902,29.184
-908.617,598.567,349.332,-109.975,26.48,28.44
-872.558,564.094,329.074,-108.974,26.246,29.235
-816.896,529.208,286.338,-110.603,26.092,28.486
-777.169,484.663,301.391,-109.834,26.014,29.215
-716.882,479.635,226.591,-111.462,25.874,27.747
-682.358,439.379,243.472,-110.532,25.858,27.926
-631.433,442.017,172.094,-113.061,26.064,26.307
-616.027,394.553,194.364,-113.533,26.411,26.707
-532.445,403.263,149.642,-116.312,26.48,25.455
-503.383,361.982,149.583,-116.722,26.79,26.369
-453.311,342.337,118.052,-119.751,26.542,25.44
-444.918,297.077,123.313,-119.504,26.287,26.343
-374.164,290.829,76.944,-121.771,26.447,25.756
-359.955,242.248,111.273,-121.232,26.383,27.815
-308.596,264.632,55.826,-123.66,26.105,28.158
-302.385,216.035,83.32,-123.457,25.643,29.903
-256.415,216.3,38.168,-125.919,24.937,29.232
-226.98,150.799,67.922,-124.825,23.617,29.95
-170.374,166.296,0.921,-126.743,22.318,28.857
-174.4,112.552,43.292,-125.799,21.036,30.276
-131.261,121.668,-4.269,-125.666,20.025,29.48
-137.764,98.804,-6.915,-122.89,19.469,30.126
-114.681,118.318,-59.841,-124.65,18.8,28.638
-108.2,102.86,-17.997,-122.782,18.531,29.424
-105.609,143.099,-46.208,-122.411,18.423,28.163
-138.099,121.856,-6.43,-118.231,18.259,28.833
-122.745,139.295,-39.295,-117.368,18.266,27.486
-182.598,128.048,0.861,-113.915,17.842,28.533
-192.753,153.024,-21.039,-113.653,16.758,27.265
-244.915,145.665,36.429,-111.176,15.06,28.283
-242.342,208.051,-21.54,-111.74,13.625,27.199
-316.263,235.749,-10.221,-108.582,11.404,28.275
-327.434,312.752,-40.689,-109.455,8.185,27.232
-364.898,372.611,-7.348,-108.477,5.421,28.862
-395.127,437.553,-25.701,-110.347,2.661,28.468
-460.272,453.308,-7.62,-107.776,0.329,30.288
-472.385,481.978,-88.646,-106.761,-1.805,29.575
-526.652,490.567,-9.533,-100.434,-4.096,31.766
-519.718,596.702,-54.471,-101.889,-4.909,31.752
-566.533,565.638,-33.367,-97.892,-4.669,35.054
-561.036,619.791,-65.442,-94.87,-3.122,36.386
-637.323,643.92,-48.878,-89.882,-0.223,38.337
-655.866,755.402,-78.723,-87.769,2.12,39.696
-741.765,833.8,-52.738,-81.775,5.841,45.096
-769.154,889.064,-90.549,-78.249,10.377,48.165
-890.467,916.192,-58.524,-71.24,13.631,54.354
-945.547,992.828,-54.277,-68.252,16.501,58.147
-1034.665,998.912,-0.482,-61.643,19.438,65.081
-1084.681,1085.428,-35.548,-58.801,21.801,70.455
-1168.02,1112.736,40.844,-53.487,23.608,78.773
-1198.942,1178.165,2.977,-53.557,24.719,84.664
-1244.693,1200.021,47.66,-51.01,25.387,92.725
-1266.344,1235.625,11.218,-53.682,25.856,98.102
-1312.496,1235.143,35.444,-52.994,26.528,105.358
-1281.482,1251.695,-57.219,-56.89,27.272,108.834
-1337.167,1233.843,-4.132,-57.785,27.722,113.885
-1309.313,1259.051,-51.423,-63.578,28.156,115.745
-1326.713,1226.445,-40.895,-66.086,29.683,120.496
-1293.65,1273.938,-58.871,-71.796,32.069,122.932
-1338.037,1217.397,16.009,-72.428,34.85,128.26
-1290.186,1251.575,-24.439,-76.437,37.405,131.914
-1330.506,1217.685,27.576,-75.035,39.818,138.738
-1285.165,1276.045,-8.034,-77.614,42.145,142.671
-1321.784,1283.106,60.632,-75.96,44.405,149.716
-1286.236,1328.66,32.779,-78.726,46.244,154.258
-1299.85,1332.487,106.535,-77.502,47.449,161.376
-1279.254,1338.919,50.852,-80.18,48.503,165.342
-1300.423,1308.261,125.369,-78.83,49.404,171.89
-1239.056,1327.043,82.555,-82.665,50.173,175.353
-1249.823,1264.103,161.044,-81.978,50.937,181.313
-1228.652,1267.518,126.08,-86.239,51.57,183.607
-1267.175,1194.482,193.241,-85.987,51.646,188.164
-1219.49,1192.115,167.818,-90.964,51.395,189.262
-1230.082,1156.607,231.927,-90.498,50.955,192.811
-1206.924,1181.989,173.322,-95.452,50.648,192.982
-1272.029,1236.325,369.566,-97.148,49.82,195.8
-1609.887,1515.693,1050.691,-118.774,44.893,195.973
-2322.912,1129.102,937.265,-155.565,25.488,179.729
-1886.017,387.343,639.971,-188.312,-0.303,147.095
-970.618,-58.186,881.211,-202.991,-0.531,155.973
-621.441,83.601,507.018,-185.343,17.719,185.22
-877.808,480.733,173.826,-128.866,32.569,205.885
-1034.003,1100.723,86.269,-89.555,33.084,207.255
-1015.158,1436.576,157.082,-89.523,26.102,204.079
-905.58,1620.084,100.204,-112.995,25.99,199.753
-1076.471,1594.528,108.986,-127.34,34.35,205.179
-1254.849,1445.731,85.591,-140.234,40.311,208.423
-1383.4,1237.019,188.411,-144.731,38.432,207.906
-1263.509,1203.206,81.789,-154.735,33.772,202.47
-1310.934,1133.936,166.077,-158.368,32.784,206.388
-1311.085,1078.69,130.17,-163.738,31.618,209.421
-1384.487,924.307,213.038,-160.638,28.596,212.833
-1306.259,889.609,139.662,-159.611,25.172,210.597
-1330.959,830.105,205.029,-151.962,23.344,212.285
-1268.641,841.466,121.817,-149.734,21.555,211.686
-1309.531,841.503,181.996,-142.168,20.061,215.925
-1219.778,904.107,101.005,-142.024,19.169,216.142
-1239.862,917.021,157.155,-139.737,19.007,220.745
-1165.984,950.281,99.837,-145.392,20.439,223.75
-1211.656,861.58,125.089,-146.107,23.255,230.076
-1107.955,795.543,76.979,-152.059,25.108,228.966
-1171.798,668.117,133.903,-150.348,25.389,228.037
-1087.005,632.796,23.896,-153.659,24.758,221.981
-1143.18,550.156,67.18,-149.323,24.493,221.351
-1055.891,554.697,-80.323,-150.456,22.746,217.755
-1077.034,568.049,31.665,-150.135,23.083,218.626
-1023.21,599.209,30.525,-157.511,24.072,215.643
-1067.859,556.29,69.231,-158.195,22.396,216.683
-984.933,526.714,-7.926,-164.239,22.011,212.802
-1063.442,460.765,77.023,-162.307,21.118,211.47
-1003.497,436.047,10.966,-168.749,20.305,204.296
-1032.783,376.565,73.199,-168.94,19.622,201.792
-948.836,400.448,7.763,-176.053,19.117,196.002
-1010.453,333.526,102.592,-175.324,19.392,195.906
-934.118,325.071,9.822,-180.899,20.264,190.814
-983.008,256.889,71.615,-178.258,21.155,189.554
-908.092,230.002,-12.23,-181.401,22.439,183.34
-938.814,119.483,87.743,-176.014,23.573,181.565
-878.393,103.1,9.333,-178.059,24.914,174.331
-900.451,-12.485,116.075,-171.766,26.548,171.937
-833.751,33.937,36.198,-172.04,28.722,164.584
-887.48,-51.799,105.423,-162.777,30.874,161.798
-825.232,-13.605,25.539,-161.515,32.575,153.967
-896.925,-59.624,118.107,-154.528,33.679,151.703
-822.048,-10.686,39.224,-157.733,33.527,144.488
-893.273,-43.35,142.691,-152.594,32.577,142.678
-806.897,0.035,58.816,-155.679,31.419,135.375
-881.166,-91.62,131.244,-149.925,30.636,133.656
-783.223,-23.128,-7.066,-152.491,29.481,124.62
-836.869,-45.474,90.479,-148.459,28.349,119.101
-769.03,28.253,-25.328,-155.408,26.761,108.86
-836.946,-10.193,86.035,-153.743,24.056,106.036
-728.923,14.702,-35.441,-161.142,22.087,96.595
-799.077,-55.988,104.177,-159.242,21.827,92.437
-703.586,-71.518,42.176,-166.422,21.833,81.801
-836.662,-222.181,185.275,-162.311,21.173,77.84
-729.172,-224.171,107.754,-165.516,20.282,67.016
-848.201,-330.903,265.571,-155.615,19.763,61.537
-737.646,-300.678,168.154,-154.525,19.808,49.959
-844.839,-397.155,293.65,-142.883,20.299,45.08
-775.216,-359.439,199.547,-142.505,20.777,33.45
-899.493,-428.008,314.158,-131.403,20.778,28.614
-835.001,-357.503,192.385,-132.578,20.945,16.711
-1003.834,-412.028,346.837,-123.821,20.139,12.204
-951.201,-370.397,220.582,-127.927,19.245,0.48
-1118.318,-467.218,417.327,-121.264,18.366,-4.345
-1085.647,-487.316,325.879,-129.324,16.337,-18.525
-1289.603,-618.394,502.662,-125.972,13.996,-25.894
-1342.888,-618.663,431.58,-132.41,11.428,-41.875
-1646.582,-763.836,637.047,-121.878,6.924,-50.794
-1746.867,-741.096,556.806,-123.856,1.661,-69.161
-2093.053,-910.991,748.317,-115.607,-3.677,-80.636
-2187.682,-860.232,629.188,-118.758,-10.924,-101.663
-2436.938,-1009.251,937.106,-108.221,-14.946,-113.594
-2482.966,-1023.453,818.088,-114.878,-15.791,-133.849
-2791.222,-1186.92,1019.501,-104.365,-20.149,-143.745
-2798.485,-1152.929,916.475,-106.875,-21.36,-161.958
-3099.435,-1219.068,1159.288,-92.81,-21.208,-170.492
-3175.545,-1126.115,1110.059,-96.078,-21.032,-188.573
-3541.167,-1358.484,1251.775,-89.302,-27.658,-204.421
-3579.201,-1348.782,914.771,-96.765,-33.658,-239.485
-3961.356,-1397.972,1003.948,-91.155,-35.645,-259.59
-3877.953,-1258.342,707.49,-106.19,-34.726,-290.129
-4139.971,-1399.552,821.861,-100.947,-27.104,-312.11
-4078.286,-1390.187,427.02,-113.17,-18.965,-351.034
-4419.402,-1540.699,443.748,-101.457,-8.392,-380.128
-4453.941,-1536.855,-12.861,-103.642,7.276,-421.32
-4931.649,-1662.018,77.93,-81.972,25.067,-448.301
-4942.965,-1516.465,-276.531,-80.18,45.927,-486.473
-5424.624,-1496.715,-167.733,-51.301,69.17,-511.054
-5501.952,-1151.437,-599.962,-40.819,94.511,-549.786
-6046.557,-1023.138,-411.693,-6.645,121.905,-575.744
-6140.405,-649.772,-782.873,1.553,150.035,-617.591
-6761.877,-519.102,-518.864,39.159,176.926,-643.014
-6884.712,-109.637,-864.643,48.825,202.004,-686.387
-7521.825,22.407,-523.804,87.618,223.535,-714.76
-7620.18,396.436,-798.129,99.279,243.422,-763.481
-8224.379,435.214,-368.285,144.964,261.283,-795.629
-8278.562,768.239,-747.116,163.486,275.71,-845.633
-8996.517,845.655,-229.419,221.756,285.871,-872.549
-9118.897,1273.509,-605.551,245.643,292.02,-919.773
-9819.057,1376.984,-49.097,309.656,288.695,-945.681
-9616.575,1877.686,-503.707,337.359,288.392,-995.214
-10593.054,1971.494,-176.972,411.457,280.114,-1019.212
-10444.821,2555.802,-846.742,441.519,260.518,-1064.861
-10920.109,2764.35,-254.612,521.872,239.571,-1079.174
-10218.773,3449.314,-1082.17,549.299,218.726,-1118.551
-10775.433,3362.563,-645.178,639.102,196.323,-1118.483
-10252.229,3694.342,-1929.783,673.492,171.077,-1162.198
-11096.382,3498.233,-1322.491,774.4,132.873,-1170.162
-10083.417,3968.23,-2759.469,796.33,94.124,-1214.154
-10973.456,3475.254,-1782.961,905.798,49.539,-1202.397
-9705.319,3884.986,-3554.944,909.683,2.49,-1242.942
-10880.581,3170.179,-1707.666,1015.967,-49.174,-1203.009
-8667.467,3404.021,-4215.679,978.474,-100.267,-1220.389
-10776.294,2002.88,-816.854,1118.589,-152.232,-1121.994
-5711.152,2658.442,-7432.019,1038.177,-183.03,-1150.96
-8449.782,184.022,2390.541,1330.348,-129.608,-892.287
-13181.792,8132.958,-5042.505,439.099,-558.06,-1087.265
-13123.38,2976.889,-6087.113,-622.783,-565.864,-1112.466
-9890.618,276.325,4206.412,232.249,-814.577,-402.654
-656.021,-1364.168,-1508.638,-33.208,-451.091,-633.231
-6321.496,-2541.318,-609.407,382.549,-307.417,-925.605
-5962.153,-142.83,-1644.728,611.017,-251.307,-1033.14
-8411.234,-674.903,-2444.379,690.548,-154.216,-891.619
-7230.586,-213.618,-3008.778,680.334,-176.663,-799.628
-7735.455,-783.81,-1957.013,822.41,-159.839,-715.602
-6504.803,-214.246,-2577.891,863.916,-155.753,-724.992
-7212.804,-343.209,-1857.145,972.232,-162.404,-692.692
-6433.562,243.745,-2809.686,983.138,-187.305,-688.366
-6805.468,-37.29,-2700.432,1048.589,-201.82,-639.481
-6129.26,319.283,-3392.243,1039.807,-220.255,-621.625
-6538.052,-56.188,-3005.933,1079.977,-235.959,-558.387
-5941.202,48.703,-3277.732,1074.721,-258.201,-519.08
-6203.61,-494.342,-2701.154,1123.391,-275.794,-446.957
-5649.997,-789.618,-3048.622,1136.191,-297.266,-415.055
-5891.44,-1475.011,-2900.298,1205.156,-317.991,-366.808
-5487.898,-1592.485,-3699.136,1234.009,-335.803,-342.59
-5707.117,-2086.703,-3819.812,1282.161,-352.043,-284.662
-5108.274,-2242.669,-4494.316,1288.519,-372.157,-223.852
-4732.093,-2809.163,-4598.715,1328.875,-385.7,-132.398
-3650.317,-3108.516,-5391.616,1330.579,-381.463,-57.833
-3113.474,-3746.723,-5493.227,1383.004,-363.602,30.523
-2213.433,-3619.634,-6097.244,1409.451,-318.308,93.888
-2315.924,-3378.208,-5835.631,1462.192,-274.636,187.014
-1815.184,-2667.334,-5942.039,1470.499,-235.733,271.289
-1915.489,-2199.407,-5865.408,1485.895,-197.774,371.786
-1793.67,-1242.996,-5921.293,1447.972,-167.161,454.963
-2393.061,-345.082,-5355.841,1401.407,-145.535,540.617
-2283.147,876.907,-5165.024,1305.617,-138.686,600.752
-2180.418,1165.306,-4587.695,1204.133,-142.568,668.046
-1478.396,1300.806,-4402.127,1068.43,-141.443,701.237
-1236.523,1135.111,-3835.917,944.619,-135.346,725.197
-676.514,1129.62,-3760.608,813.794,-120.806,715.214
-795.649,851.767,-3337.114,710.701,-99.836,700.688
-702.169,641.126,-3202.698,593.172,-85.974,678.504
-990.981,358.762,-2690.531,511.38,-72.329,664.811
-878.329,493.219,-2656.897,423.633,-57.25,623.373
-1235.181,443.46,-2214.07,362.728,-46.251,606.384
-1304.244,447.177,-2199.171,289.187,-38.596,596.676
-1680.264,334.48,-1894.093,242.675,-42.003,588.997
-1638.809,376.693,-2019.446,184.07,-41.419,571.642
-1985.488,102.928,-1783.359,149.072,-41.995,581.239
-1825.018,28.683,-1958.937,117.01,-47.839,563.87
-1843.136,-300.596,-1881.391,116.874,-47.546,560.019
-1518.96,-461.486,-1964.466,108.978,-41.221,550.899
-1372.843,-693.583,-1904.887,126.609,-29.215,556.467
-1076.046,-652.628,-2052.677,128.083,-9.954,554.911
-1212.986,-687.561,-1838.153,139.463,5.772,564.688
-961.348,-455.534,-2015.18,134.716,21.98,562.292
-1070.821,-315.205,-1765.016,136.522,42.167,560.423
-876.719,-68.976,-1870.542,116.514,60.271,546.376
-926.87,-25.73,-1710.693,105.286,83.173,536.532
-1016.203,47.731,-1663.751,73.658,106.524,512.698
-1238.449,-14.316,-1542.094,59.865,115.576,501.672
-1020.103,77.057,-1664.165,34.836,128.353,484.826
-1074.179,96.786,-1385.599,22.94,142.551,479.957
-868.021,229.523,-1509.033,-4.888,158.846,470.149
-1001.457,178.371,-1299.992,-22.636,172.906,471.957
-924.979,218.299,-1354.379,-58.031,182.359,466.668
-1039.515,69.24,-1203.637,-82.238,187.294,467.769
-906.981,50.445,-1313.156,-116.889,191.457,460.133
-1010.269,-108.138,-1215.54,-137.288,193.803,458.279
-915.104,-159.056,-1322.353,-166.668,196.326,447.775
-1002.87,-328.785,-1229.455,-180.447,193.417,444.294
-831.199,-414.719,-1435.031,-203.403,193.781,432.982
-919.683,-607.496,-1283.578,-213.676,195.507,427.844
-721.675,-671.9,-1388.871,-233.908,195.051,415.056
-771.384,-797.728,-1234.091,-241.684,196.593,408.136
-610.016,-818.037,-1335.92,-259.851,198.498,393.184
-673.076,-959.514,-1271.481,-266.449,197.883,384.645
-510.851,-984.48,-1405.379,-283.185,198.26,369.644
-586.228,-1104.116,-1313.704,-287.615,199.159,360.851
-414.442,-1125.083,-1506.635,-300.725,199.143,344.773
-489.087,-1236.593,-1408.331,-302.281,200.033,335.716
-340.755,-1280.96,-1545.371,-314.613,199.616,320.607
-390.958,-1412.197,-1476.807,-316.272,198.364,309.893
-240.275,-1434.14,-1509.936,-325.93,197.507,293.966
-241.243,-1551.317,-1419.702,-325.029,196.127,283.079
-61.114,-1550.861,-1552.304,-333.938,195.625,265.529
-101.537,-1649.268,-1488.284,-330.672,195.251,253.877
15.559,-1597.331,-1601.678,-334.681,196.103,235.421
-75.848,-1666.996,-1542.341,-327.378,196.639,222.697
43.266,-1636.468,-1688.649,-330.18,197.102,204.758
-18.621,-1663.644,-1608.548,-324.015,196.642,193.418
96.072,-1630.507,-1705.541,-326.3,198.621,178.184
46.925,-1681.924,-1537.531,-319.726,200.201,168.155
237.366,-1629.357,-1636.987,-325.992,200.4,153.518
222.906,-1652.018,-1554.089,-322.951,203.827,145.072
322.858,-1575.876,-1636.178,-326.323,207.791,130.686
253.461,-1579.185,-1577.588,-319.445,211.161,120.903
352.613,-1510.176,-1664.041,-321.282,214.291,107.295
268.923,-1548.488,-1509.856,-316.987,215.768,99.969
412.051,-1510.227,-1605.237,-323.806,215.584,87.129
383.546,-1580.978,-1554.937,-320.204,215.893,78.974
513.431,-1553.47,-1620.562,-321.67,217.054,66.561
454.539,-1602.653,-1531.805,-312.32,217.987,59.589
569.232,-1610.015,-1574.783,-310.128,219.267,47.488
482.09,-1646.907,-1444.287,-299.136,220.681,39.187
586.623,-1568.169,-1499.15,-296.673,222.466,26.076
525.007,-1571.092,-1424.643,-285.499,224.034,18.914
600.652,-1451.689,-1514.799,-281.67,226.451,7.769
522.684,-1405.066,-1432.406,-270.021,229.038,1.463
605.837,-1300.532,-1508.949,-266.26,231.746,-9.017
516.581,-1264.905,-1413.853,-254.364,234.206,-14.41
602.719,-1170.941,-1481.489,-250.827,236.896,-24.32
540.322,-1131.681,-1399.22,-239.436,239.545,-29.534
613.728,-1059.943,-1459.794,-234.826,242.737,-38.511
534.824,-1024.615,-1359.832,-221.579,246.464,-41.644
604.436,-943.033,-1376.714,-215.336,250.465,-48.544
565.44,-945.518,-1262.784,-202.386,253.722,-50.808
634.329,-885.956,-1289.994,-197.826,257.713,-57.393
578.683,-865.415,-1162.106,-186.068,261.381,-59.501
664.011,-787.043,-1194.56,-181.276,265.822,-65.553
587.754,-796.321,-1060.003,-168.138,269.912,-67.71
643.449,-727.102,-1084.778,-163.135,273.916,-74.547
546.349,-699.723,-955.806,-152.951,277.277,-76.355
600.809,-634.913,-978.333,-151.644,280.391,-81.88
546.263,-612.58,-851.24,-144.834,283.547,-83.464
603.52,-532.876,-858.69,-146.421,286.612,-89.259
530.053,-537.111,-771.944,-139.767,288.599,-90.479
598.714,-487.605,-816.189,-139.174,290.404,-95.23
531.088,-508.295,-716.913,-130.74,291.419,-95.554
570.892,-455.604,-770.876,-127.51,291.864,-99.523
478.75,-485.979,-667.389,-116.331,291.204,-99.54
515.956,-455.356,-723.476,-112.305,289.488,-103.305
419.45,-461.156,-623.998,-101.832,286.69,-103.68
497.059,-429.162,-650.987,-97.543,283.826,-108.34
386.894,-444.41,-554.256,-85.623,280.357,-109.035
479.651,-394.137,-569.916,-79.456,277.429,-112.703
409.235,-398.856,-444.17,-66.545,274.889,-112.44
498.069,-347.507,-458.174,-61.122,273.418,-115.951
389.711,-326.066,-338.185,-50.547,271.779,-116.18
480.248,-240.115,-372.956,-48.244,270.367,-120.625
399.064,-233.837,-270.338,-40.904,268.903,-121.976
481.199,-167.092,-296.243,-40.389,267.621,-126.565
425.569,-123.385,-204.034,-34.294,265.548,-126.915
501.554,-87.489,-256.531,-35.318,264.036,-130.441
444.719,-75.807,-189.623,-30.102,263.295,-130.305
515.003,-9.044,-239.847,-30.547,262.185,-133.254
480.566,-28.165,-152.491,-25.02,260.488,-132.163
541.802,3.093,-219.808,-25.592,258.643,-134.483
484.667,-3.476,-162.669,-19.628,255.819,-132.662
533.97,27.266,-206.651,-20.022,253.603,-133.663
479.991,12.468,-135.372,-14.598,251.04,-131.202
507.519,29.304,-205.415,-15.388,247.277,-132.279
462.441,47.394,-151.645,-10.081,243.609,-130.206
527.78,98.592,-190.502,-10.164,242.481,-131.803
479.995,117.858,-101.291,-4.04,242.093,-130.16
538.734,190.003,-133.289,-4.242,242.214,-131.896
487.085,198.775,-21.541,0.954,242.468,-130.121
541.751,251.204,-50.274,-0.351,243.611,-131.947
455.677,231.59,36.428,4.695,245.104,-130.504
520.626,258.87,15.814,4.825,246.485,-131.869
465.972,222.651,112.637,11.151,246.705,-129.705
543.829,236.126,91.793,12.09,246.394,-130.389
484.729,229.078,164.147,19.253,244.713,-127.683
535.502,228.831,139.142,20.748,242.282,-128.2
485.195,207.52,187.613,29.034,239.488,-125.779
532.634,245.55,126.451,33.172,235.917,-126.919
496.17,222.368,187.064,41.988,232.055,-125.708
515.462,289.064,168.731,44.872,228.691,-128.076
438.41,295.908,238.637,54.286,223.764,-126.809
482.068,350.087,202.833,58.734,219.356,-128.103
389.088,369.162,254.197,68.213,216.1,-126.519
452.397,420.652,235.167,70.872,214.368,-128.639
396.405,422.36,298.311,77.695,214.016,-127.914
449.602,473.854,263.352,77.557,214.38,-130.04
416.906,496.49,317.736,80.558,214.465,-129.536
476.374,524.962,258.125,76.45,215.802,-132.372
394.675,540.81,328.045,77.74,217.499,-132.45
455.023,622.516,312.954,74.455,219.825,-134.394
356.249,626.039,409.831,76.1,221.461,-132.304
357.967,662.65,403.019,72.39,222.116,-132.531
286.25,636.808,481.25,74.247,221.243,-129.423
310.96,639.12,468.183,70.335,219.933,-128.554
226.626,615.021,530.883,72.036,217.52,-124.741
243.271,647.408,513.938,70.467,214.408,-124.228
141.337,650.525,547.506,75.909,210.081,-121.301
172.085,705.782,464.931,77.612,205.595,-121.43
80.371,728.333,520.081,85.772,200.623,-118.927
102.728,781.139,471.686,89.529,196.456,-119.58
37.055,781.973,514.011,97.593,192.357,-117.594
73.825,819.901,480.652,98.272,189.367,-118.416
25.68,831.93,526.151,101.086,187.116,-116.368
68.134,859.474,470.488,97.292,186.2,-117.142
15.69,869.072,519.048,98.075,186.057,-114.939
74.332,915.852,500.097,94.375,187.135,-115.604
31.975,930.539,498.427,94.962,187.931,-113.614
58.831,949.325,494.916,89.518,190.415,-114.975
-10.658,947.117,589.675,88.058,190.622,-113.562
45.399,952.354,555.206,79.988,191.457,-114.423
-36.708,918.091,660.434,76.87,191.613,-112.43
22.099,912.325,620.444,69.245,190.322,-112.716
-54.539,852.139,713.906,67.599,187.934,-110.329
-43.147,862.38,673.279,63.098,184.233,-110.705
-96.811,817.808,746.206,65.438,179.417,-108.499
-79.063,819.152,655.849,63.823,174.316,-108.983
-139.351,796.156,713.127,67.953,169.019,-107.018
-89.372,805.821,656.504,68.418,164.328,-107.795
-148.768,800.181,681.569,74.574,159.877,-106.112
-102.437,807.613,595.747,76.693,156.883,-106.879
-166.994,811.406,620.229,84.045,155.297,-104.872
-94.112,846.246,521.988,86.526,155.818,-105.287
-134.905,855.837,562.885,92.586,157.505,-102.898
-74.83,916.091,515.799,92.64,160.429,-102.76
-110.712,912.13,564.059,96.114,164.426,-99.963
-34.311,965.41,519.362,93.55,169.427,-99.437
-92.973,972.588,612.893,93.775,174.573,-95.718
-70.751,986.147,634.031,87.363,179.141,-94.056
-140.359,981.235,708.027,84.164,181.682,-90.278
-116.372,969.227,673.636,75.658,182.766,-89.435
-195.978,934.161,746.083,70.628,181.642,-86.557
-163.523,938.616,722.68,58.509,179.267,-85.919
-222.283,901.596,800.174,51.166,176.347,-82.503
-186.905,937.34,746.745,43.136,173.179,-81.366
-220.663,906.691,777.785,43.128,169.332,-77.435
-182.824,914.492,679.925,40.186,165.861,-75.883
-247.398,836.791,699.787,43.582,162.324,-72.92
-225.613,824.399,611.887,45.273,159.623,-74.435
-267.722,789.488,619.452,53.311,157.385,-75.218
-229.626,788.691,547.566,57.288,156.187,-78.678
-262.151,782.874,593.216,64.955,155.836,-79.748
-196.188,783.125,522.565,67.038,156.908,-82.92
-246.548,766.29,550.411,72.732,159.189,-83.257
-207.082,780.353,476.625,72.874,162.286,-85.507
-245.366,796.933,526.069,76.681,166.105,-85.439
-222.369,804.48,496.998,75.578,170.761,-87.285
-278.816,819.877,565.455,78.68,175.002,-86.751
-264.255,831.111,558.493,76.311,178.447,-88.548
-345.923,863.893,640.855,76.353,180.451,-87.454
-304.855,888.334,633.996,70.042,181.515,-88.241
-354.55,894.259,697.68,66.138,180.936,-86.496
-352.767,901.727,664.597,57.124,179.498,-86.672
-449.376,877.704,704.757,54.022,176.977,-84.401
-422.871,870.31,652.614,49.141,173.617,-83.63
-500.7,821.326,707.945,49.377,169.541,-80.36
-454.81,824.811,646.442,45.378,166.245,-79.469
-495.513,793.139,675.315,46.906,163.026,-77.068
-447.763,784.726,621.368,46.667,160.877,-77.227
-507.67,751.175,607.226,52.527,159.121,-75.643
-468.334,767.706,534.001,54.594,158.02,-76.841
-492.477,773.871,563.877,59.697,157.38,-76.311
-434.783,814.982,494.484,59.073,157.422,-78.703
-491.152,844.961,536.237,61.3,157.71,-79.146
-438.826,902.231,491.599,57.721,158.826,-81.649
-481.528,947.138,550.923,56.603,160.063,-81.712
-418.681,955.758,545.68,50.293,161.535,-83.48
-507.056,908.092,570.864,47.644,162.356,-82.712
-440.956,921.306,545.446,40.291,162.808,-84.057
-506.946,907.702,595.916,37.431,162.589,-83.18
-487.232,869.077,535.364,32.053,161.915,-84.624
-546.991,833.829,586.262,31.294,160.272,-83.717
-540.225,831.687,572.997,25.919,158.087,-84.836
-612.825,821.32,617.631,24.432,154.648,-83.794
-601.998,809.741,583.605,19.384,150.581,-84.864
-678.531,778.745,605.989,19.95,145.832,-83.952
-680.415,813.334,553.559,16.936,140.941,-85.448
-744.225,820.568,583.183,18.65,135.538,-85.465
-738.995,866.799,516.482,16.994,130.509,-88.271
-812.96,892.431,522.321,19.019,126.078,-89.341
-817.738,929.549,444.179,15.2,121.999,-93.104
-882.828,945.447,471.187,13.574,118.003,-95.344
-871.612,970.409,404.623,8.281,115.034,-99.801
-914.996,952.955,384.931,8.308,112.832,-101.718
-908.953,968.676,336.824,5.641,111.791,-105.401
-956.629,929.975,331.567,7.098,110.623,-106.728
-916.256,945.016,270.079,3.993,109.669,-109.729
-975.303,897.713,323.422,5.016,108.257,-109.878
-939.021,914.211,300.423,3.23,107.33,-111.426
-968.538,881.41,302.497,6.338,107.449,-110.269
-924.476,919.236,227.456,6.767,108.756,-110.993
-986.581,911.109,212.113,11.114,109.846,-109.706
-961.828,912.853,161.965,11.299,111.379,-110.701
-992.673,913.105,178.698,14.079,112.487,-110.169
-1007.763,939.983,140.762,10.888,113.543,-111.845
-1061.15,969.033,203.88,10.557,113.941,-111.47
-1061.5,988.083,185.772,6.24,114.194,-112.306
-1086.342,977.477,274.993,6.003,114.864,-110.565
-1050.646,988.786,250.12,1.953,115.771,-110.401
-1122.356,988.439,285.971,0.959,115.495,-108.271
-1090.452,995.215,288.445,-4.193,114.656,-108.197
-1136.332,959.819,304.818,-4.465,112.55,-106.122
-1079.574,943.181,266.72,-7.807,109.981,-105.858
-1132.347,895.739,301.726,-7.229,106.707,-103.483
-1097.26,846.768,246.249,-9.919,103.731,-103.293
-1115.401,788.53,260.75,-7.253,100.492,-101.331
-1068.112,750.942,209.203,-7.813,97.634,-101.763
-1091.629,707.4,196.436,-4.572,94.785,-100.309
-1042.198,697.747,155.117,-4.474,92.505,-100.826
-1070.683,683.1,148.124,-0.247,90.209,-99.781
-1002.446,712.882,116.648,-0.073,89.061,-101.036
-1011.302,681.322,134.988,2.862,88.263,-100.669
-984.095,693.188,72.392,1.156,88.198,-102.72
-985.029,685.297,87.194,2.367,88.216,-103.62
-953.94,701.664,51.341,-0.376,88.692,-106.695
-998.042,675.265,56.685,-0.155,89.145,-107.989
-937.07,669.267,13.794,-3.722,90.084,-111.273
-965.91,657.332,37.093,-4.061,90.817,-112.456
-926.544,689.489,-23.386,-9.134,92.067,-115.394
-980.941,682.03,-2.54,-11.254,93.078,-116.203
-969.688,737.73,-22.428,-17.058,93.95,-117.492
-1019.464,745.394,29.656,-18.414,94.5,-115.982
-972.141,748.502,-0.958,-22.286,95.772,-116.103
-1011.946,757.948,46.449,-21.84,97.528,-114.502
-965.431,748.989,31.907,-25.019,99.448,-114.835
-1004.318,742.976,92.072,-23.849,100.849,-113.128
-991.248,735.843,71.18,-25.061,101.976,-113.5
-1001.873,713.382,120.433,-22.087,102.505,-112.331
-988.887,723.859,87.624,-22.908,103.331,-113.103
-1037.8,735.57,151.071,-19.989,102.981,-111.55
-1025.681,783.259,111.853,-20.384,102.442,-111.376
-1081.74,770.901,136.314,-16.732,101.171,-109.396
-1068.537,778.409,104.816,-16.765,100.254,-109.683
-1089.296,783.516,126.959,-13.334,99.137,-108.334
-1076.524,811.006,82.047,-13.063,97.443,-108.712
-1101.807,800.617,105.563,-9.647,95.469,-106.901
-1071.56,844.085,61.223,-9.826,93.368,-106.455
-1097.444,829.841,67.787,-6.922,91.109,-103.351
-1039.751,863.626,11.536,-7.293,89.606,-101.034
-1093.047,845.674,-15.059,-4.302,88.716,-96.407
-1048.827,841.236,-66.557,-6.126,88.055,-93.281
-1065.687,853.11,-41.819,-4.637,86.733,-87.779
-1016.615,881.82,-61.876,-6.628,85.604,-83.762
-1061.232,879.469,22.124,-5.656,83.755,-78.066
-970.674,881.298,9.492,-8.969,82.034,-74.155
-1008.013,891.958,37.56,-9.115,80.63,-68.404
-938.244,876.664,18.561,-12.509,79.821,-64.575
-952.239,868.629,72.636,-12.736,78.345,-59.287
-908.062,870.871,57.713,-16.84,76.461,-55.807
-918.959,829.098,93.502,-17.238,74.081,-51.023
-884.334,813.141,88.053,-20.59,71.914,-48.638
-886.287,789.109,122.886,-20.338,69.967,-45.305
-823.713,765.997,68.919,-23.608,68.155,-44.322
-837.531,719.364,102.544,-22.774,66.106,-41.537
-809.387,719.473,64.189,-25.271,64.002,-40.214
-838.85,710.055,102.565,-24.56,61.953,-36.919
-781.378,702.25,56.769,-27.058,60.884,-35.415
-811.881,695.845,99.648,-25.759,59.821,-32.035
-737.482,672.238,47.554,-28.058,59.261,-30.624
-755.366,677.418,64.232,-27.608,59.139,-27.758
-710.805,685.472,36.532,-30.726,59.719,-26.963
-740.023,647.219,63.014,-30.71,60.39,-24.524
-684.369,647.553,11.722,-33.64,61.287,-24.033
-725.918,620.306,29.481,-32.736,62.056,-21.754
-666.619,652.486,-19.995,-34.789,63.034,-21.687
-712.046,649.803,35.067,-33.771,63.952,-21.035
-689.202,644.305,3.272,-36.714,64.627,-20.408
-763.134,644.767,28.376,-35.562,63.253,-16.286
-732.676,637.706,29.137,-36.885,62.483,-14.653
-810.371,606.883,63.367,-33.703,61.942,-12.061
-761.062,625.06,43.719,-33.44,61.425,-11.287
-829.869,641.241,81.771,-30.224,60.56,-8.611
-836.871,672.329,72.251,-31.097,59.015,-7.414
-898.05,693.471,115.208,-28.923,55.772,-3.758
-905.864,698.003,60.144,-30.098,52.394,-1.404
-929.003,707.244,85.328,-27.705,49.145,2.691
-909.524,705.958,45.549,-28.367,46.339,4.65
-945.977,683.165,75.686,-25.905,43.521,7.773
-914.37,707.057,25.135,-27.342,40.73,8.983
-905.475,687.541,35.378,-25.879,38.202,11.604
-876.649,661.366,-28.382,-27.364,36.635,12.22
-902.437,635.992,-10.618,-24.592,35.095,14.368
-846.516,628.444,-81.504,-25.364,34.766,14.646
-875.074,617.304,-72.764,-22.745,34.015,16.9
-833.912,606.987,-104.395,-23.532,33.741,17.598
-854.219,569.355,-114.068,-20.517,33.056,20.202
-803.059,565.121,-171.716,-20.567,32.807,21.027
-843.756,538.94,-150.201,-17.142,32.412,22.865
-842.36,527.253,-207.392,-17.547,32.353,22.302
-851.224,508.52,-205.335,-15.406,32.125,23.058
-809.304,510.074,-249.145,-17.004,32.032,22.044
-843.489,496.831,-196.989,-15.549,31.584,23.088
-820.679,528.556,-249.323,-17.457,31.358,22.707
-863.051,503.535,-223.5,-16.372,30.657,24.194
-852.573,509.653,-235.283,-18.291,29.904,24.386
-913.556,505.919,-204.196,-16.542,28.463,25.701
-858.678,503.483,-225.041,-17.773,27.086,24.901
-915.977,489.521,-198.137,-15.597,25.486,25.409
-893.175,483.875,-213.023,-16.749,24.08,23.89
-921.185,470.099,-182.432,-14.243,22.302,24.443
-882.849,488.173,-189.96,-14.479,20.569,23.848
-934.53,470.852,-180.362,-11.104,18.53,25.11
-868.36,492.665,-218.233,-11.049,17.18,25.071
-931.421,476.859,-198.714,-7.454,15.402,26.728
-875.409,493.835,-225.143,-6.833,13.993,26.791
-884.335,479.357,-201.904,-3.183,12.426,28.162
-846.857,490.144,-243.159,-2.928,11.166,27.809
-887.796,485.359,-203.667,0.213,9.58,29.008
-831.02,506.955,-245.588,0.166,8.449,28.5
-841.338,512.748,-231.229,2.675,7.149,29.477
-794.784,499.074,-258.647,1.461,6.515,29.008
-835.954,516.047,-222.628,3.247,5.569,30.061
-779.378,495.856,-255.328,1.658,4.987,29.633
-787.459,498.23,-217.142,3.011,3.654,31.123
-746.521,512.107,-237.123,1.072,2.536,31.07
-759.15,495.17,-210.94,2.131,1.562,32.467
-720.114,528.889,-219.05,0.082,0.748,32.036
-744.758,503.504,-172.802,1.516,-0.157,33.265
-716.506,499.252,-217.072,-0.314,-0.814,32.928
-729.039,498.078,-171.909,1.069,-1.85,34.285
-693.996,516.229,-180.278,-0.947,-2.481,34.222
-703.2,506.35,-157.623,-0.345,-3.533,35.419
-676.184,521.398,-184.819,-3.448,-4.591,34.819
-705.42,516.482,-108.839,-2.855,-5.913,35.802
-657.398,526.061,-162.273,-5.35,-7.095,35.412
-688.16,515.609,-89.49,-4.271,-8.287,36.417
-632.523,500.966,-125.782,-6.373,-8.902,35.53
-680.332,480.025,-88.791,-5.369,-9.535,36.58
-603.339,497.026,-113.196,-6.715,-9.655,36.717
-629.126,463.442,-80.205,-3.509,-10.004,39.141
-615.633,468.853,-108.516,-2.547,-10.44,40.687
-627.591,454.822,-56.088,1.641,-10.914,43.995
-580.898,458.03,-105.734,2.635,-10.898,45.556
-596.18,446.327,-55.796,6.354,-10.646,48.783
-555.115,444.396,-71.353,6.808,-9.798,50.188
-606.827,464.011,-51.404,10.359,-8.976,53.125
-577.771,459.295,-42.804,11.069,-8.352,54.778
-624.543,480.437,-15.887,14.695,-8.201,57.923
-601.554,516.084,-31.449,14.247,-7.833,59.191
-669.22,510.547,13.569,16.058,-7.717,61.302
-640.49,503.893,-9.474,13.793,-7.752,61.234
-702.364,524.537,35.444,14.026,-7.966,62.337
-688.735,543.076,-13.0,11.044,-7.602,61.161
-741.549,537.362,5.543,11.714,-8.028,60.965
-762.99,547.077,-25.22,9.19,-8.746,58.5
-803.936,541.499,-15.613,9.152,-10.208,56.555
-782.063,551.001,-46.555,5.721,-11.771,52.354
-814.951,532.221,-25.261,5.685,-13.523,49.577
-799.961,559.284,-58.276,2.778,-14.394,44.873
-858.331,545.569,-52.219,3.31,-15.161,41.764
-817.012,569.48,-76.363,1.278,-15.686,37.382
-867.277,553.036,-34.245,3.547,-16.496,34.848
-835.029,580.74,-96.865,3.211,-16.989,30.869
-884.813,562.18,-66.598,5.969,-17.444,28.281
-870.501,580.407,-104.403,5.714,-17.715,24.227
-893.809,586.696,-78.416,8.019,-18.075,21.906
-864.299,610.148,-94.266,6.846,-17.23,18.24
-905.526,649.946,-64.494,8.699,-16.886,16.413
-891.778,653.766,-95.758,7.717,-16.419,13.668
-908.23,669.074,-50.079,10.052,-16.161,12.419
-872.831,692.765,-73.137,9.247,-15.629,9.295
-910.017,691.466,-45.906,10.746,-14.936,6.998
-865.935,708.333,-62.681,8.228,-14.512,2.715
-910.339,710.199,-38.519,8.308,-14.644,0.153
-869.857,739.963,-53.891,5.694,-14.311,-3.349
-885.349,742.251,-13.15,6.496,-13.808,-5.093
-847.586,745.996,-28.75,4.7,-12.56,-8.378
-887.462,719.148,2.899,6.459,-11.217,-10.23
-838.856,725.834,-9.004,5.271,-9.598,-13.711
-866.754,724.779,20.103,7.322,-8.033,-15.517
-817.032,729.288,-27.394,6.587,-6.303,-18.308
-848.377,721.357,24.558,9.374,-4.58,-19.085
-795.738,724.288,-21.366,9.498,-2.76,-20.871
-810.826,719.745,24.105,12.489,-0.867,-20.922
-780.951,726.702,2.648,12.432,1.289,-22.371
-822.89,738.878,40.726,15.244,3.175,-22.325
-785.958,732.209,24.994,14.928,5.176,-23.846
-828.0,756.798,76.896,17.454,6.604,-24.025
-807.835,763.55,39.002,16.676,7.887,-25.536
-841.785,762.009,92.236,18.72,8.683,-25.828
-809.24,800.207,54.836,17.907,9.367,-27.629
-856.285,767.483,96.144,19.626,9.254,-28.032
-819.914,786.568,59.196,17.562,9.054,-29.908
-845.863,768.339,80.312,18.493,8.312,-30.151
-818.311,782.417,92.77,16.485,7.748,-31.519
-835.514,754.108,120.45,17.231,6.773,-30.955
-776.638,761.356,78.632,14.634,6.22,-31.432
-794.762,725.255,129.624,15.262,5.636,-30.267
-745.255,700.954,83.046,13.509,5.81,-30.404
-746.192,662.59,110.91,15.322,5.496,-28.932
-706.255,642.92,78.629,14.135,4.99,-28.696
-730.482,611.518,110.19,15.958,4.045,-27.093
-680.658,602.028,90.839,14.845,3.273,-26.488
-688.282,584.205,113.336,16.596,2.495,-24.444
-639.246,573.75,72.051,14.9,2.073,-24.202
-670.603,535.203,95.579,15.521,1.665,-23.313
-615.346,540.849,50.737,12.477,1.732,-24.365
-633.439,506.206,77.344,12.409,1.416,-23.849
-613.999,506.817,33.412,8.81,1.38,-25.103
-617.402,486.048,74.38,7.773,1.065,-24.998
-578.268,479.808,32.217,3.981,1.219,-26.436
-606.669,457.997,38.642,3.416,1.135,-26.756
-559.157,439.094,10.146,0.207,1.644,-28.68
-618.641,407.374,31.652,-0.075,2.19,-29.676
-550.515,386.083,5.997,-3.38,3.165,-32.404
-586.014,349.408,2.908,-3.558,3.846,-33.818
-560.56,377.81,-37.666,-6.538,4.681,-36.421
-590.556,357.124,-14.596,-5.813,5.105,-37.425
-552.98,342.406,-51.331,-8.265,5.974,-39.677
-617.361,347.085,-15.722,-7.844,6.412,-40.467
-566.709,333.844,-50.908,-10.379,7.184,-42.248
-618.391,322.595,-20.908,-9.318,7.445,-42.277
-598.81,322.861,-60.314,-10.692,8.022,-43.841
-627.608,325.96,-55.304,-8.879,8.245,-43.952
-628.809,349.77,-87.417,-10.43,8.636,-45.145
-670.957,366.767,-59.362,-9.254,8.447,-44.776
-670.443,398.646,-104.544,-11.428,8.202,-45.427
-708.088,409.054,-97.579,-10.739,7.674,-44.037
-678.388,419.44,-148.961,-13.661,7.585,-43.603
-749.572,439.125,-104.832,-14.208,7.59,-41.785
-695.398,446.674,-140.931,-17.999,7.483,-41.516
-749.976,484.786,-146.972,-19.49,6.733,-39.931
-741.459,493.061,-168.207,-24.446,6.149,-39.592
-782.102,493.077,-139.264,-26.18,5.224,-37.609
-759.606,501.565,-195.606,-30.045,4.723,-36.537
-810.279,497.088,-136.371,-29.7,3.968,-33.679
-797.061,477.71,-165.171,-31.328,3.414,-32.27
-853.044,472.523,-137.755,-29.504,2.298,-29.805
-826.195,456.278,-158.564,-30.436,1.6,-29.488
-871.071,440.744,-147.674,-27.651,0.764,-28.158
-856.696,439.199,-159.479,-27.356,-0.098,-28.364
-932.051,418.874,-131.958,-23.207,-1.735,-26.962
-903.877,427.248,-158.634,-21.447,-3.022,-27.045
-946.154,411.941,-124.936,-16.55,-4.704,-25.973
-945.659,446.706,-151.569,-14.615,-6.538,-26.259
-1008.277,442.217,-112.933,-10.111,-8.777,-25.157
-993.94,442.842,-128.993,-9.109,-10.658,-25.424
-1029.374,460.411,-112.181,-4.89,-12.93,-24.22
-1017.617,473.503,-176.086,-3.584,-15.04,-24.455
-1043.746,497.897,-144.282,0.038,-17.169,-22.864
-1032.219,534.755,-190.48,-0.071,-19.085,-22.572
-1065.383,520.432,-176.1,1.738,-21.042,-20.925
-1026.173,544.585,-239.01,0.033,-22.186,-20.791
-1059.227,536.385,-254.27,1.301,-22.963,-19.33
-1043.002,573.7,-316.72,-1.447,-22.874,-19.316
-1075.866,594.255,-313.054,-2.031,-23.052,-17.857
-1038.681,572.303,-390.969,-5.613,-23.209,-17.822
-1109.402,604.46,-371.162,-5.636,-23.804,-16.599
-1081.979,613.933,-385.123,-8.395,-23.971,-17.445
-1075.732,602.786,-371.859,-8.381,-24.144,-17.366
-1036.609,598.745,-406.825,-11.679,-22.969,-19.072
-1062.251,617.778,-389.788,-11.719,-21.466,-19.409
-1024.57,599.392,-405.816,-14.196,-19.334,-20.934
-1061.594,598.656,-396.6,-13.519,-17.42,-20.723
-1046.017,610.064,-397.957,-15.263,-15.721,-21.426
-1086.441,606.391,-349.219,-13.361,-14.736,-20.067
-1056.889,619.957,-329.118,-13.882,-13.55,-19.847
-1082.774,625.086,-281.651,-11.559,-12.74,-18.1
-1078.311,646.965,-278.962,-12.309,-11.601,-17.925
-1111.278,627.474,-237.659,-9.928,-10.825,-16.568
-1089.004,629.93,-215.809,-10.312,-9.982,-16.711
-1139.022,617.326,-177.445,-7.942,-9.379,-15.611
-1130.265,634.234,-197.938,-8.058,-9.065,-15.765
-1170.503,607.182,-146.414,-4.604,-9.266,-14.476
-1137.387,601.9,-171.523,-4.261,-9.304,-14.582
-1188.37,619.084,-120.184,-0.713,-9.603,-13.328
-1154.606,617.013,-160.135,0.317,-9.557,-13.516
-1190.289,621.574,-153.843,3.913,-9.622,-12.224
-1155.773,653.861,-159.761,4.301,-9.188,-12.054
-1181.887,639.062,-152.522,7.214,-9.003,-10.246
-1162.047,638.538,-186.392,7.213,-8.503,-9.741
-1176.569,668.479,-185.535,9.469,-8.148,-7.672
-1128.485,649.824,-179.181,7.963,-7.885,-6.819
-1157.484,642.996,-172.384,9.175,-8.149,-4.72
-1097.669,650.925,-197.742,7.398,-8.236,-4.173
-1113.955,638.443,-166.119,8.222,-8.5,-2.186
-1067.24,635.164,-198.773,5.571,-8.277,-1.689
-1080.345,619.594,-159.178,5.497,-8.458,-0.019
-1021.446,621.066,-173.297,2.287,-8.421,0.19
-1055.23,602.254,-137.619,1.838,-8.67,1.629
-995.527,606.318,-147.29,-1.823,-8.548,1.532
-1005.057,590.595,-96.316,-2.725,-9.146,2.744
-981.287,563.456,-101.835,-6.569,-9.359,2.566
-983.006,548.84,-63.214,-6.995,-10.085,3.835
-909.565,533.581,-92.289,-10.09,-10.37,3.86
-962.776,507.532,-53.539,-9.726,-10.89,5.329
-888.79,492.551,-58.412,-12.007,-11.202,5.439
-914.17,449.735,-35.865,-10.634,-11.88,6.906
-869.055,454.195,-36.455,-12.025,-12.256,6.796
-878.745,441.253,-0.216,-10.254,-13.141,8.062
-837.885,438.353,-39.348,-11.726,-13.831,8.032
-852.9,439.305,-22.663,-10.227,-14.818,9.325
-786.645,426.387,-39.565,-11.535,-15.006,9.213
-795.814,417.09,-24.78,-9.884,-15.368,10.579
-761.426,425.066,-75.735,-10.958,-15.721,10.643
-789.142,408.881,-35.359,-9.302,-16.681,11.963
-771.065,423.942,-79.966,-10.617,-17.45,11.81
-781.138,418.554,-82.214,-8.972,-18.469,12.729
-731.452,423.021,-104.81,-10.389,-18.688,12.57
-760.548,434.599,-115.687,-8.948,-18.862,13.837
-719.75,450.535,-145.389,-10.662,-18.834,13.888
-765.243,449.388,-134.657,-9.642,-19.567,15.208
-719.772,469.503,-154.987,-12.263,-20.369,14.702
-723.433,467.244,-127.701,-12.564,-21.334,15.02
-698.211,491.465,-173.586,-16.198,-21.493,13.628
-725.946,489.508,-142.325,-16.972,-21.274,13.854
-689.092,510.924,-171.616,-20.888,-20.702,12.983
-729.066,510.175,-150.3,-22.547,-20.411,13.52
-702.895,532.092,-175.762,-27.307,-20.143,12.606
-743.766,499.354,-160.74,-28.713,-20.325,12.88
-707.604,518.975,-187.479,-32.188,-20.308,11.814
-753.763,476.662,-132.337,-32.065,-20.62,12.478
-712.391,461.27,-162.139,-34.246,-20.35,12.137
-723.614,449.796,-129.981,-32.992,-20.037,13.079
-685.218,455.36,-154.851,-33.844,-18.947,12.606
-703.327,460.095,-116.963,-30.738,-18.051,13.868
-633.4,457.205,-144.49,-30.034,-16.617,13.962
-704.001,447.29,-122.129,-26.136,-15.023,15.811
-656.042,439.901,-131.175,-24.724,-13.485,16.037
-687.457,443.905,-112.677,-19.941,-12.38,17.312
-640.739,445.96,-127.508,-17.833,-10.97,17.005
-663.418,453.72,-85.754,-12.984,-9.808,18.026
-635.356,472.605,-135.8,-11.181,-7.785,17.509
-670.358,469.894,-109.335,-6.758,-6.045,18.611
-643.633,522.881,-155.106,-5.907,-3.937,18.636
-688.625,550.279,-127.849,-3.108,-2.134,20.421
-674.665,564.54,-148.027,-4.554,-0.082,20.965
-701.629,592.337,-124.435,-4.109,1.482,22.648
-660.795,621.047,-168.093,-6.757,3.387,23.129
-691.178,616.585,-119.631,-6.015,5.082,24.858
-655.639,621.76,-170.641,-7.886,7.607,25.188
-685.932,636.693,-128.435,-7.396,9.89,26.843
-664.869,631.048,-154.083,-10.673,11.841,27.003
-678.809,592.855,-127.421,-10.877,12.759,28.558
-662.504,598.229,-146.859,-13.274,13.634,28.991
-700.354,583.153,-110.116,-12.381,13.913,30.957
-630.369,567.411,-141.432,-14.015,14.673,31.667
-674.184,559.488,-118.221,-12.312,15.272,33.503
-620.684,555.354,-124.475,-13.555,16.293,33.699
-659.618,541.38,-105.002,-12.277,16.837,34.967
-620.973,565.517,-140.401,-14.611,17.658,34.715
-671.209,555.784,-117.65,-15.179,18.219,35.773
-632.5,577.048,-167.937,-19.426,18.748,35.006
-713.514,594.885,-124.703,-20.651,18.487,35.675
-684.435,611.505,-138.498,-24.495,18.265,35.139
-726.187,585.647,-101.801,-25.077,18.022,36.069
-691.285,567.43,-142.554,-28.48,18.487,35.184
-747.456,558.767,-104.766,-28.878,18.62,35.183
-706.772,540.713,-140.655,-32.218,19.011,33.613
-762.123,531.965,-114.561,-32.105,18.738,33.236
-766.188,517.308,-169.305,-34.156,18.471,31.501
-800.635,503.617,-155.383,-32.713,17.719,31.006
-775.575,481.037,-163.678,-33.494,17.007,28.896
-834.462,494.884,-118.672,-30.997,15.982,28.135
-796.263,493.7,-141.136,-31.227,15.515,26.179
-840.759,455.609,-111.143,-28.798,15.245,25.567
-789.508,469.812,-138.297,-29.358,15.914,23.289
-785.353,451.347,-145.313,-26.994,16.614,22.203
-760.679,484.68,-167.547,-27.64,17.496,19.421
-796.832,501.972,-140.066,-25.365,17.794,18.187
-756.084,497.129,-170.099,-26.237,18.062,15.708
-790.205,491.411,-157.484,-24.694,18.199,14.518
-757.689,531.955,-188.547,-27.528,18.838,12.074
-803.106,550.74,-201.691,-28.317,19.13,10.892
-790.221,590.649,-234.901,-32.468,19.185,8.206
-834.083,636.422,-202.514,-34.2,18.498,6.974
-816.117,647.904,-228.861,-40.74,17.638,4.144
-872.187,661.096,-218.185,-45.051,16.447,2.376
-844.174,691.808,-258.669,-52.403,15.384,-0.769
-890.361,684.76,-220.825,-56.071,14.218,-2.109
-848.457,663.333,-232.941,-62.261,13.886,-4.778
-871.106,667.767,-184.022,-65.082,13.401,-5.876
-837.548,667.234,-207.22,-70.032,14.251,-8.278
-886.324,630.154,-194.687,-70.6,15.32,-9.417
-845.355,633.958,-236.896,-73.253,16.608,-11.795
-904.415,622.142,-184.724,-72.519,17.162,-12.483
-879.116,628.51,-216.651,-74.663,17.795,-14.021
-915.772,630.59,-165.259,-73.639,18.174,-13.963
-868.589,609.013,-164.996,-74.794,18.766,-14.906
-857.541,622.385,-137.967,-71.43,19.947,-14.397
-806.876,604.524,-167.339,-70.309,21.955,-15.046
-844.066,598.16,-134.717,-66.744,24.154,-13.934
-775.22,590.408,-150.484,-67.396,27.104,-13.758
-802.936,589.696,-117.548,-65.448,28.983,-12.11
-756.585,600.843,-115.486,-66.014,30.557,-11.809
-804.186,570.34,-88.747,-63.74,32.028,-10.085
-722.207,581.542,-107.752,-65.709,34.245,-9.867
-762.701,590.612,-71.864,-65.11,35.984,-8.367
-743.387,584.668,-94.214,-67.849,38.102,-8.371
-781.055,598.339,-71.193,-68.299,39.471,-7.86
-785.829,616.867,-95.775,-71.872,40.451,-9.282
-839.664,605.742,-70.736,-72.513,40.528,-9.282
-804.355,598.748,-79.937,-77.095,40.371,-10.547
-849.884,600.317,-34.626,-79.168,39.757,-10.631
-826.433,597.064,-67.696,-83.783,39.71,-11.621
-863.24,572.26,-42.916,-84.609,39.856,-10.955
-824.485,562.577,-73.979,-88.293,40.519,-11.921
-845.197,556.061,-26.303,-88.686,40.554,-11.442
-830.073,539.591,-55.33,-91.071,40.781,-12.106
-868.636,543.276,-25.766,-89.888,40.47,-11.189
-822.319,552.273,-34.265,-92.163,40.532,-11.503
-879.825,548.362,-12.535,-92.075,40.121,-10.284
-843.136,571.833,-35.121,-95.64,40.138,-10.754
-876.033,587.241,-20.414,-97.022,39.894,-10.065
-831.668,601.704,-48.702,-102.084,39.882,-10.525
-856.78,613.564,-12.041,-103.957,39.723,-9.768
-823.221,619.347,-9.269,-109.388,40.361,-10.152
-819.761,595.533,14.4,-111.586,40.655,-9.165
-798.394,575.19,12.324,-116.658,41.283,-9.419
-838.941,565.899,40.133,-118.056,41.66,-8.464
-794.334,567.923,43.157,-121.631,42.147,-8.755
-880.696,542.996,91.883,-121.401,42.67,-7.128
-839.727,513.794,83.591,-123.048,43.438,-6.192
-875.483,480.456,138.126,-122.209,43.712,-3.852
-875.76,469.208,108.798,-125.862,44.493,-3.187
