acc_x[mg],acc_y[mg],acc_z[mg],gyro_x[dps],gyro_y[dps],gyro_z[dps]
-854.961,156.326,176.847,28.971,-21.238,7.891
-915.048,-62.133,208.997,42.781,-28.349,9.763
-868.546,21.928,214.561,37.392,-26.903,9.805
-938.343,-36.998,218.341,40.453,-28.482,11.018
-918.356,-20.283,243.967,38.753,-28.745,11.035
-934.303,-39.939,247.17,41.152,-30.262,11.458
-913.397,-34.081,250.755,39.821,-31.039,11.662
-933.544,-31.881,259.398,41.393,-31.39,12.048
-939.755,-11.039,225.103,40.118,-32.055,12.422
-958.989,-29.805,246.879,40.938,-32.355,12.139
-964.059,4.017,233.874,39.864,-32.729,10.722
-976.206,19.814,221.761,40.311,-33.017,10.348
-997.989,52.005,229.058,39.149,-33.265,9.847
-984.892,36.47,239.311,38.974,-33.265,9.941
-977.954,69.056,259.946,37.276,-33.464,10.016
-990.202,60.548,249.084,36.62,-32.998,10.239
-998.627,93.623,241.531,34.835,-32.95,9.45
-982.968,81.031,284.79,33.966,-32.801,8.573
-993.957,121.865,279.011,32.19,-32.535,7.046
-1009.381,131.188,277.267,31.659,-32.0,6.377
-997.394,136.779,282.83,30.067,-31.765,5.489
-986.836,124.33,269.437,29.838,-30.877,4.502
-986.157,132.404,276.507,28.601,-31.169,3.174
-969.828,125.026,287.209,28.376,-30.891,2.466
-967.422,127.391,289.262,27.328,-31.196,1.98
-943.189,104.409,283.586,27.27,-30.903,1.493
-942.683,99.134,291.274,26.386,-31.401,0.198
-951.907,119.75,289.595,26.645,-31.837,-0.72
-942.401,102.727,317.107,25.93,-33.095,-1.115
-957.278,96.494,333.568,25.926,-33.436,-1.83
-926.523,98.892,335.174,25.229,-34.452,-3.105
-937.176,122.872,326.334,25.014,-34.83,-3.897
-933.123,116.724,317.539,23.705,-36.053,-4.637
-914.578,96.367,329.435,22.682,-36.794,-4.768
-908.099,115.92,315.868,20.913,-37.883,-5.432
-918.826,127.019,336.865,19.58,-38.589,-6.213
-913.684,139.784,340.514,17.31,-39.668,-6.976
-902.958,121.731,350.471,15.466,-39.815,-7.748
-909.524,131.033,335.914,12.906,-40.544,-8.83
-925.236,114.474,354.677,11.484,-39.929,-10.306
-926.023,119.092,335.156,10.116,-40.295,-11.89
-959.211,101.683,349.251,9.863,-40.263,-12.553
-996.558,112.502,371.015,9.569,-40.947,-13.177
-1020.302,81.825,380.682,10.313,-40.575,-13.817
-981.905,91.508,342.369,10.784,-41.133,-14.572
-1004.386,100.863,356.443,11.674,-39.319,-14.994
-1075.919,119.911,378.103,11.855,-40.197,-14.803
-1066.738,123.276,346.927,12.085,-41.704,-14.851
-1084.127,142.288,334.839,12.222,-41.714,-15.848
-1079.938,153.107,327.968,12.662,-41.264,-15.901
-1055.879,187.755,328.124,11.35,-41.14,-15.487
-1084.198,178.881,352.185,10.375,-40.511,-15.236
-1052.444,177.164,345.784,8.886,-40.818,-14.988
-1045.122,168.923,351.343,8.181,-40.164,-15.32
-1051.465,178.478,355.082,7.489,-40.088,-16.124
-1046.127,151.399,362.058,7.799,-39.204,-15.491
-1031.06,136.953,401.28,7.996,-38.739,-14.879
-1045.729,141.905,392.452,8.984,-37.895,-15.381
-1026.469,142.082,388.487,9.06,-37.846,-15.618
-1033.291,155.035,422.623,8.947,-36.897,-15.537
-1023.979,129.445,434.479,7.637,-37.262,-15.487
-1007.974,135.228,426.036,6.661,-37.004,-15.352
-1035.35,112.664,433.779,5.597,-37.425,-15.53
-1023.533,94.525,444.584,5.13,-37.231,-16.018
-1017.305,80.268,440.792,3.833,-38.062,-16.88
-1002.309,63.127,439.104,3.395,-38.378,-17.342
-1010.921,63.598,424.185,2.962,-39.372,-17.592
-990.444,57.865,410.554,2.792,-39.713,-18.397
-984.934,73.823,401.719,1.36,-40.508,-19.764
-984.047,41.924,398.572,0.466,-40.648,-20.351
-962.061,35.322,373.437,-0.688,-41.282,-21.207
-946.811,63.551,363.928,-1.871,-41.037,-21.29
-935.3,87.086,363.171,-3.564,-41.306,-21.455
-948.125,57.515,373.333,-4.544,-40.875,-21.424
-918.313,80.236,358.012,-5.822,-41.174,-22.152
-926.077,89.225,375.145,-6.839,-40.861,-22.591
-902.135,95.347,359.679,-8.493,-41.001,-22.699
-922.844,84.267,371.14,-9.096,-40.439,-22.394
-935.365,81.384,378.222,-9.38,-40.318,-22.503
-915.869,50.816,386.586,-8.859,-39.404,-22.672
-902.05,46.357,394.378,-8.652,-39.479,-22.284
-913.958,46.441,368.162,-7.492,-38.395,-21.712
-906.033,44.936,361.507,-6.261,-38.121,-20.946
-896.685,46.737,377.749,-4.661,-36.789,-20.245
-893.711,52.242,378.519,-3.563,-36.263,-19.794
-929.987,48.082,367.93,-2.191,-35.061,-19.067
-918.766,42.826,350.555,-1.636,-34.816,-18.101
-926.873,31.046,357.76,-0.966,-33.927,-16.647
-936.593,56.253,357.721,-0.464,-34.17,-15.217
-948.008,36.347,355.406,-0.573,-33.322,-13.446
-915.842,65.387,358.334,-0.743,-32.779,-12.096
-932.315,67.513,363.989,0.577,-31.387,-10.763
-925.401,73.78,375.358,0.448,-30.776,-10.51
-926.945,43.309,359.487,0.414,-29.406,-9.937
-899.523,38.646,362.259,0.119,-28.796,-9.148
-912.434,38.367,374.806,0.331,-27.355,-8.092
-908.448,13.41,356.79,0.093,-26.291,-7.117
-935.149,14.006,372.63,0.671,-24.617,-5.986
-935.607,14.864,394.681,0.852,-23.511,-5.577
-941.97,18.731,383.476,1.494,-21.911,-5.568
-956.514,10.142,377.809,1.811,-21.117,-5.313
-947.381,17.13,389.835,2.327,-19.559,-4.808
-926.653,-7.761,367.214,2.566,-18.806,-4.428
-940.177,0.96,384.487,3.373,-17.252,-3.952
-917.925,11.975,368.773,3.647,-16.368,-2.879
-944.151,3.815,396.661,4.814,-14.751,-1.8
-931.407,22.655,406.735,5.16,-13.897,-2.51
-937.093,1.121,426.533,5.423,-12.776,-2.584
-923.183,13.416,445.294,4.909,-12.355,-2.259
-908.019,9.529,456.909,4.641,-11.146,-1.72
-930.853,1.578,456.48,3.84,-10.937,-1.495
-944.353,-2.732,465.83,3.54,-10.057,-1.107
-901.444,6.068,491.299,3.019,-9.865,-0.848
-924.351,-6.503,491.843,3.243,-9.043,-0.251
-909.973,-0.418,490.372,3.024,-8.842,0.235
-907.972,-11.05,506.025,3.34,-8.141,0.523
-909.219,10.362,483.365,3.294,-7.996,0.708
-925.34,-10.834,500.224,3.425,-7.219,1.057
-884.661,-27.999,491.146,3.092,-7.373,1.313
-912.271,-40.193,502.984,2.868,-7.047,1.92
-911.09,-25.543,514.764,2.454,-7.511,2.47
-919.681,-34.988,508.756,2.041,-7.054,3.094
-919.658,-37.827,491.519,1.205,-7.299,3.422
-908.395,-19.678,507.091,0.817,-6.705,3.89
-901.03,-31.222,496.908,-0.168,-6.269,4.216
-909.063,-24.988,523.777,-1.112,-5.295,4.42
-888.909,-36.413,525.078,-2.599,-5.374,4.288
-897.878,-26.137,531.945,-3.743,-4.195,4.022
-865.1,-18.761,533.749,-5.199,-4.049,3.686
-904.324,-44.309,560.763,-6.34,-3.436,3.751
-865.618,-22.295,530.763,-7.737,-3.423,3.272
-898.782,-39.772,552.467,-8.529,-2.713,2.931
-891.02,-63.334,560.115,-9.587,-2.814,2.575
-898.611,-59.202,544.138,-10.066,-2.236,2.282
-884.034,-55.715,563.178,-10.68,-2.402,1.795
-890.564,-56.717,554.511,-10.691,-2.007,1.684
-902.071,-63.46,536.511,-10.683,-2.311,1.965
-899.832,-53.663,541.961,-10.148,-2.148,1.959
-893.076,-43.077,532.357,-10.249,-2.82,1.698
-915.106,-45.286,525.621,-10.273,-2.786,1.726
-888.043,-26.671,526.789,-10.813,-3.215,2.052
-882.199,-14.52,522.989,-11.182,-2.777,2.552
-887.209,-11.362,516.229,-12.187,-3.016,2.694
-885.132,-13.375,508.287,-12.645,-2.338,3.057
-870.762,-9.855,515.916,-13.617,-2.368,3.232
-883.209,-10.785,530.855,-14.025,-1.838,3.533
-883.6,-31.287,535.057,-14.744,-1.92,3.715
-884.029,-18.645,524.327,-14.79,-1.426,3.985
-863.568,-31.375,539.775,-15.042,-1.64,4.012
-881.691,-24.928,540.424,-14.614,-1.234,4.209
-858.11,-14.742,539.851,-14.709,-1.42,4.3
-873.356,-15.693,545.108,-14.342,-1.015,4.468
-864.258,-20.62,540.367,-14.211,-1.144,4.561
-902.75,-47.115,531.399,-13.652,-0.744,4.955
-864.312,-62.788,545.0,-13.38,-1.019,5.108
-882.27,-43.184,542.715,-12.733,-0.441,5.224
-864.579,-61.634,573.562,-12.513,-0.577,5.019
-880.771,-58.133,550.599,-12.152,-0.055,5.061
-856.364,-47.763,543.961,-12.224,-0.439,4.968
-894.586,-56.731,534.261,-11.736,-0.057,5.079
-888.914,-61.271,517.55,-11.749,-0.572,5.079
-912.164,-58.654,505.304,-11.544,-0.41,5.264
-908.473,-65.081,499.369,-12.164,-0.789,5.466
-928.684,-50.262,495.651,-12.292,-0.181,5.897
-918.302,-52.844,505.282,-13.26,-0.42,6.108
-919.096,-75.478,498.353,-13.636,0.358,6.454
-908.489,-62.773,511.175,-14.472,0.515,6.379
-912.203,-90.086,510.415,-14.675,1.287,6.384
-895.417,-79.628,502.763,-14.787,1.537,6.244
-895.057,-86.067,507.589,-14.126,2.625,6.135
-887.346,-95.901,500.833,-13.564,2.759,5.826
-901.181,-96.516,501.884,-13.054,3.618,5.665
-902.773,-103.383,529.173,-13.114,3.545,5.316
-908.549,-97.468,526.123,-12.916,4.211,5.074
-910.992,-95.59,508.114,-12.779,4.018,4.859
-907.525,-113.743,546.225,-12.206,4.666,4.751
-906.913,-101.866,539.095,-12.043,4.55,4.687
-885.999,-111.932,518.299,-11.406,5.02,4.725
-894.027,-141.132,502.685,-11.156,4.797,4.578
-900.709,-139.178,499.073,-10.269,5.212,4.612
-871.113,-118.367,479.25,-9.951,4.78,4.569
-904.892,-122.294,486.42,-9.448,5.078,4.622
-865.888,-128.011,477.774,-9.823,4.641,4.717
-898.147,-98.852,478.435,-10.076,5.014,4.997
-887.475,-109.373,475.862,-10.656,4.77,5.036
-897.917,-115.268,484.586,-10.888,5.261,5.029
-903.683,-110.274,464.412,-11.715,5.109,4.855
-900.488,-114.777,463.681,-11.938,5.726,4.706
-881.36,-144.906,480.164,-12.082,5.638,4.294
-876.088,-133.398,469.703,-11.592,6.364,3.911
-876.345,-146.25,474.084,-11.241,6.214,3.313
-878.861,-153.322,480.933,-10.489,6.686,2.765
-889.94,-148.647,477.401,-10.058,6.288,2.233
-887.148,-159.057,472.958,-9.435,6.541,1.615
-873.532,-141.94,488.002,-8.935,5.869,0.868
-876.79,-168.096,481.469,-8.005,5.936,0.138
-879.715,-147.24,494.613,-7.429,5.269,-0.655
-892.893,-137.421,505.252,-6.772,5.536,-1.225
-887.054,-136.635,491.62,-6.545,5.032,-1.926
-883.564,-137.735,486.888,-6.208,5.09,-2.575
-890.521,-126.125,479.85,-6.052,4.39,-3.342
-911.55,-134.433,473.817,-5.47,4.63,-3.421
-896.633,-120.55,456.708,-5.411,4.076,-3.932
-931.528,-100.368,466.775,-5.233,4.396,-4.115
-909.99,-90.067,461.262,-5.894,4.057,-4.4
-932.42,-79.63,459.524,-6.252,4.539,-4.43
-929.491,-80.022,461.527,-6.957,4.443,-4.687
-943.312,-86.8,459.286,-7.203,4.945,-4.715
-941.868,-92.476,460.838,-7.538,4.816,-4.806
-943.37,-79.335,471.459,-7.314,5.359,-4.83
-925.457,-111.017,480.019,-7.144,4.861,-5.115
-965.853,-108.08,492.742,-6.654,5.397,-5.322
-965.047,-97.722,471.255,-6.403,5.113,-5.982
-971.315,-115.415,485.662,-5.555,5.336,-6.23
-965.126,-111.586,487.655,-4.942,4.875,-6.454
-973.478,-99.467,475.155,-3.632,5.037,-6.479
-968.838,-106.454,483.374,-2.49,4.483,-6.657
-991.515,-96.929,493.306,-1.17,5.014,-6.91
-997.78,-76.62,494.599,-0.86,4.776,-7.621
-999.623,-70.899,494.553,-0.291,5.364,-7.929
-980.19,-98.504,467.83,0.421,5.114,-8.134
-984.161,-83.132,458.871,1.349,5.856,-7.72
-999.399,-110.38,457.506,1.607,5.838,-7.752
-1004.736,-75.815,464.51,1.93,6.413,-7.854
-1019.24,-67.655,448.262,1.491,6.039,-7.897
-1018.083,-65.546,451.772,1.613,6.743,-8.395
-1007.879,-57.186,454.368,0.97,6.853,-8.778
-1015.52,-71.558,466.805,0.727,7.878,-8.961
-1007.134,-76.047,438.212,0.105,8.104,-9.359
-1011.216,-70.222,438.244,0.017,9.111,-9.305
-1021.619,-78.082,438.666,-0.088,9.439,-9.135
-1021.188,-71.972,473.309,0.422,10.308,-9.321
-1009.476,-90.755,447.735,0.571,10.354,-9.549
-1001.526,-70.587,453.727,1.477,11.544,-9.942
-999.504,-103.0,449.728,2.235,11.638,-10.246
-998.135,-89.362,441.345,3.273,12.57,-10.226
-1020.053,-95.098,441.591,4.092,12.637,-10.708
-992.104,-77.126,458.241,4.979,13.31,-10.742
-1007.971,-85.735,455.612,5.421,13.139,-10.958
-1014.72,-72.168,465.377,6.144,13.676,-11.08
-999.568,-76.518,449.849,6.416,13.294,-11.157
-1000.197,-84.696,459.155,7.36,13.847,-11.246
-996.34,-88.937,434.565,7.955,13.628,-11.655
-1000.101,-88.959,433.822,8.776,14.31,-12.033
-1004.424,-90.528,424.428,8.963,14.305,-12.11
-1001.196,-72.701,417.017,9.265,15.068,-12.072
-989.25,-63.24,389.239,8.861,15.127,-12.036
-1007.957,-65.708,419.813,8.566,15.993,-11.907
-976.18,-54.571,400.288,7.975,16.252,-12.152
-968.638,-72.763,403.584,7.796,17.356,-12.345
-957.48,-86.855,384.591,7.296,17.652,-12.323
-952.366,-93.211,402.424,7.729,18.788,-12.38
-939.879,-97.03,396.143,7.86,19.139,-12.726
-945.09,-111.127,399.865,8.447,20.074,-12.923
-934.627,-109.396,394.416,9.031,20.325,-13.355
-929.873,-115.341,405.582,9.545,21.065,-13.665
-928.777,-106.841,411.877,9.738,20.96,-13.791
-918.541,-101.899,414.082,10.241,21.654,-14.013
-909.206,-113.536,430.151,10.41,21.427,-14.45
-891.75,-97.311,420.536,11.033,21.846,-13.698
-904.916,-106.692,409.589,11.637,21.445,-13.419
-902.999,-95.668,415.165,12.753,21.639,-14.177
-885.598,-84.808,396.694,13.276,20.778,-14.487
-881.247,-98.278,411.336,13.372,20.885,-14.798
-880.105,-73.784,391.375,13.3,20.263,-15.346
-880.565,-77.36,425.499,13.086,20.123,-15.56
-865.157,-58.726,390.974,12.617,19.259,-15.93
-857.258,-44.21,400.626,12.019,19.265,-15.846
-860.768,-60.602,381.919,10.852,18.61,-15.854
-864.997,-67.262,391.475,9.851,18.391,-15.79
-841.942,-68.554,378.302,8.647,17.287,-15.974
-863.63,-58.787,377.766,8.077,17.032,-15.853
-826.5,-41.454,373.118,7.585,16.244,-15.769
-840.063,-44.793,384.919,7.534,16.022,-15.641
-833.863,-51.702,389.909,7.433,15.177,-15.65
-833.625,-66.545,408.369,8.133,14.746,-15.311
-834.655,-81.999,390.921,8.568,13.667,-15.012
-838.815,-79.725,387.648,9.324,13.521,-15.051
-842.863,-86.164,407.11,9.709,12.431,-14.669
-830.044,-66.838,422.819,10.53,12.25,-14.528
-839.963,-77.48,394.258,11.359,11.342,-15.058
-830.574,-85.602,417.069,12.515,11.131,-15.181
-807.948,-98.28,408.122,13.226,10.406,-14.713
-804.221,-89.091,393.291,14.513,10.539,-14.708
-824.121,-79.763,410.553,15.337,9.914,-15.389
-808.923,-98.438,402.471,15.892,9.842,-15.326
-824.166,-64.539,394.782,15.817,9.008,-15.267
-811.158,-63.767,392.391,15.481,9.123,-14.978
-805.238,-51.474,385.107,14.299,8.328,-15.244
-816.618,-43.386,402.988,13.131,8.302,-15.483
-793.558,-74.713,395.178,11.774,7.483,-15.64
-802.678,-48.661,400.832,10.93,7.639,-15.657
-811.206,-55.635,399.104,10.04,6.879,-15.528
-809.657,-58.433,385.168,9.564,6.88,-15.299
-781.103,-64.485,387.719,8.896,6.377,-15.72
-796.65,-44.28,412.08,8.462,6.432,-16.236
-781.87,-44.076,396.754,7.349,5.705,-16.625
-803.16,-29.323,389.861,6.673,5.849,-16.596
-786.522,-58.714,384.639,5.791,5.311,-16.744
-770.573,-51.488,404.602,5.301,5.345,-16.844
-773.262,-72.329,388.964,4.678,4.664,-17.184
-783.17,-60.247,379.849,4.586,4.633,-17.346
-768.842,-56.918,365.896,4.441,4.065,-17.47
-800.341,-50.825,363.264,4.958,3.974,-17.277
-782.317,-69.084,350.424,5.222,3.076,-17.224
-793.301,-85.267,345.883,5.641,2.998,-17.076
-780.601,-73.691,350.818,5.93,2.275,-16.915
-790.953,-89.418,370.423,6.515,2.248,-16.673
-785.251,-83.707,343.955,6.878,1.625,-16.471
-801.914,-64.601,344.491,7.541,1.769,-16.128
-788.461,-84.419,345.071,7.866,1.469,-15.907
-803.609,-70.162,343.219,8.355,1.841,-15.58
-792.838,-76.624,337.385,8.345,1.632,-15.528
-786.11,-58.451,351.016,8.685,2.286,-15.447
-784.061,-57.411,321.97,8.677,2.111,-15.516
-785.509,-69.755,336.614,8.64,2.733,-15.369
-779.506,-68.696,328.405,8.028,2.625,-15.381
-784.99,-71.69,351.65,7.586,3.408,-15.371
-796.202,-57.156,332.941,6.375,3.13,-15.546
-789.48,-65.799,346.425,5.623,3.582,-15.465
-790.952,-52.417,347.62,4.79,3.293,-15.49
-809.787,-55.776,348.635,4.358,3.613,-15.483
-778.231,-81.312,350.187,3.891,3.216,-15.525
-796.271,-83.338,363.88,4.16,3.536,-15.49
-796.015,-93.976,346.863,4.201,3.023,-15.387
-809.316,-116.289,344.394,4.556,3.509,-15.313
-805.488,-88.004,333.378,4.9,3.011,-15.423
-810.474,-96.315,332.7,5.62,3.441,-15.245
-797.46,-74.814,332.173,5.565,3.122,-15.224
-794.933,-90.061,321.034,5.534,3.643,-15.074
-795.92,-71.873,316.986,5.045,3.494,-15.165
-826.494,-55.421,337.473,4.863,4.078,-15.053
-807.728,-85.722,314.556,4.028,4.003,-14.949
-799.062,-73.452,315.174,3.421,4.758,-14.584
-792.557,-58.786,317.025,2.659,4.656,-14.185
-813.679,-85.745,324.356,2.409,5.372,-13.86
-816.756,-89.497,304.521,1.595,5.027,-13.8
-819.104,-65.111,324.065,1.278,5.441,-13.309
-809.146,-74.034,319.728,0.856,5.069,-12.967
-806.228,-72.13,314.614,0.689,5.528,-12.416
-818.683,-76.183,313.468,0.504,5.125,-12.152
-825.584,-68.458,323.199,0.62,5.345,-11.869
-805.917,-72.85,324.346,0.387,4.764,-11.537
-845.643,-79.124,322.718,0.568,5.097,-11.042
-823.063,-85.051,309.125,0.692,4.572,-10.599
-841.504,-84.726,308.42,1.306,4.846,-10.03
-819.263,-67.239,312.06,1.789,4.383,-9.576
-825.028,-83.713,330.471,2.845,4.995,-9.161
-829.733,-85.221,314.13,3.352,4.82,-8.81
-835.016,-85.423,322.994,4.131,5.532,-8.116
-821.676,-95.704,296.71,4.629,5.535,-7.324
-825.583,-115.408,316.142,5.226,6.557,-6.703
-833.848,-116.443,310.339,5.465,6.825,-6.144
-831.858,-110.047,324.514,5.824,7.851,-5.407
-827.643,-120.951,333.747,5.745,8.079,-4.825
-835.034,-105.743,325.602,6.131,8.884,-4.131
-818.915,-116.537,339.469,6.311,8.929,-3.546
-831.969,-129.403,325.606,6.765,9.714,-2.962
-828.534,-127.377,321.642,7.101,9.601,-2.419
-841.759,-162.281,336.659,7.524,10.532,-1.709
-850.163,-156.767,344.755,7.923,9.998,-1.178
-815.813,-157.185,328.442,8.844,10.434,-0.754
-840.273,-151.598,364.984,9.19,11.484,-0.537
-856.68,-128.278,348.89,10.058,11.806,0.148
-830.575,-162.521,362.835,10.319,11.821,0.433
-863.242,-158.699,343.506,11.215,12.596,0.919
-849.498,-169.479,367.405,11.593,12.584,1.29
-864.705,-173.574,357.922,12.326,13.314,1.588
-878.845,-184.754,360.075,12.868,13.286,2.045
-881.126,-174.729,352.164,13.725,14.014,2.429
-886.709,-188.639,366.359,14.126,14.022,2.698
-907.345,-186.054,365.138,14.87,14.701,2.883
-897.002,-181.348,373.787,15.026,14.642,2.868
-922.932,-190.197,367.764,15.839,15.306,3.171
-904.68,-192.27,351.776,16.087,15.217,3.489
-942.009,-209.927,352.59,16.607,15.81,3.818
-925.782,-201.007,364.981,16.659,15.526,4.0
-918.106,-203.328,385.365,17.033,15.959,4.214
-929.167,-208.1,347.813,17.08,15.498,4.45
-929.78,-216.403,372.12,17.569,15.845,4.453
-926.578,-215.177,362.444,17.562,15.592,4.233
-963.06,-222.605,353.873,17.456,15.903,4.296
-979.244,-214.906,363.485,16.851,15.491,4.307
-979.645,-229.094,375.811,16.229,15.814,4.453
-962.282,-229.286,376.003,15.4,15.663,4.283
-984.586,-213.189,387.41,14.978,16.277,4.173
-962.008,-213.083,366.62,14.133,15.967,4.007
-973.759,-238.279,370.569,13.584,16.29,3.967
-969.429,-224.99,354.652,12.879,15.975,3.886
-969.276,-238.557,356.747,12.783,16.243,3.996
-965.2,-234.582,335.899,12.682,15.82,3.986
-975.193,-253.587,359.034,13.391,16.21,4.127
-933.353,-274.919,344.986,13.979,15.806,4.266
-934.815,-262.99,348.761,15.282,16.252,4.39
-947.531,-292.359,329.856,16.344,15.867,4.702
-937.837,-290.045,344.467,17.747,16.381,5.223
-924.752,-272.007,334.231,18.703,16.0,5.729
-911.765,-276.618,323.637,20.094,16.598,6.391
-901.912,-262.894,324.049,20.85,16.398,6.985
-892.177,-273.462,316.788,22.227,17.162,7.482
-891.007,-246.173,308.61,22.951,17.004,7.748
-886.386,-295.721,326.162,25.025,17.86,8.447
-897.347,-315.807,303.162,26.999,17.954,8.481
-877.875,-296.966,302.549,29.103,18.477,8.619
-866.413,-252.972,297.375,30.451,18.518,8.766
-875.597,-259.162,297.381,31.773,19.349,9.667
-863.358,-243.812,300.503,32.32,19.421,9.741
-858.216,-261.889,314.444,32.595,19.73,10.477
-861.916,-279.606,312.216,33.354,19.594,10.363
-862.958,-291.455,310.579,34.155,19.696,10.344
-848.299,-260.025,309.013,35.396,19.282,10.3
-835.598,-275.118,298.766,37.406,19.492,10.723
-865.89,-209.829,316.062,38.211,19.182,10.285
-850.335,-152.22,338.601,35.896,18.668,10.143
-807.786,-154.115,344.904,33.578,17.968,10.951
-850.983,-167.293,366.303,31.599,17.871,11.457
-851.238,-183.196,355.384,29.361,16.914,11.187
-851.126,-196.303,349.039,29.425,16.843,11.054
-839.596,-200.052,351.151,30.5,16.182,10.882
-839.422,-199.149,351.037,32.227,16.179,10.897
-822.82,-192.064,347.825,34.209,15.154,11.139
-815.829,-172.902,372.765,36.323,15.108,11.641
-785.188,-167.269,343.234,39.107,14.53,11.874
-773.749,-171.103,369.913,41.967,14.527,11.728
-757.544,-133.497,357.43,43.331,14.105,11.538
-755.746,-123.466,380.452,44.489,14.35,11.873
-742.79,-89.957,369.656,45.228,14.029,12.493
-718.454,-105.192,369.249,46.223,14.593,13.128
-725.77,-79.477,358.601,46.729,14.173,13.051
-700.785,-60.488,380.65,46.941,14.093,13.001
-679.612,-39.347,390.702,46.243,12.964,13.136
-688.031,-20.162,419.063,45.356,12.847,13.452
-683.742,-17.8,410.325,43.854,11.786,13.525
-659.12,-6.125,422.279,42.973,11.39,13.73
-655.517,1.716,407.881,42.314,10.083,13.695
-672.152,-31.685,433.48,41.721,9.02,13.527
-650.353,-30.14,436.343,40.586,7.017,13.117
-673.427,-36.812,449.003,40.228,5.653,12.725
-672.559,-47.374,434.852,40.646,3.448,12.199
-694.843,-59.014,440.774,41.843,1.749,11.734
-685.205,-54.013,420.581,43.473,-0.619,10.968
-674.88,-48.377,423.935,45.33,-1.831,9.969
-658.634,-25.406,420.402,45.599,-3.749,8.81
-655.682,-2.66,445.831,45.124,-4.428,8.107
-641.104,50.678,431.602,42.888,-5.856,7.465
-654.755,67.384,460.558,40.09,-6.575,7.427
-635.657,73.48,427.921,37.182,-7.999,7.675
-643.386,84.386,441.986,34.479,-8.343,8.064
-631.616,79.469,422.069,31.084,-9.378,7.975
-618.08,66.566,426.296,28.08,-9.658,8.002
-619.638,83.0,422.445,25.469,-10.532,8.126
-616.296,59.422,427.054,24.515,-10.683,8.236
-611.068,66.002,373.333,25.224,-11.717,8.259
-602.988,45.09,372.95,28.109,-12.062,8.39
-577.629,0.278,354.057,31.615,-12.403,7.983
-589.073,16.239,350.386,35.757,-12.21,7.403
-587.718,19.348,319.97,39.676,-12.525,6.967
-564.569,58.157,329.269,43.249,-11.848,6.946
-560.549,65.678,286.397,45.738,-11.844,7.071
-570.921,97.767,313.248,47.21,-10.754,7.569
-584.284,121.512,302.606,47.396,-10.442,8.078
-576.741,152.668,288.304,46.7,-9.313,9.084
-576.806,155.847,279.125,44.935,-8.833,10.171
-586.217,184.424,289.763,42.457,-7.588,11.475
-547.983,178.166,293.895,39.37,-7.278,12.918
-589.459,193.157,327.646,35.956,-6.627,14.499
-589.388,163.575,316.191,30.646,-6.826,15.659
-621.641,156.582,369.698,24.339,-6.66,16.339
-625.906,187.448,373.304,16.945,-7.05,16.649
-641.062,200.581,375.025,9.472,-7.428,17.489
-646.776,193.099,381.551,1.65,-8.677,18.21
-653.573,209.555,381.569,-5.258,-9.896,19.084
-652.964,211.294,374.999,-10.479,-12.337,19.986
-663.605,126.647,350.919,-11.644,-14.393,20.976
-658.837,51.313,339.8,-7.489,-17.498,21.377
-670.336,-72.784,306.069,1.485,-19.837,20.657
-656.002,-164.96,299.834,12.378,-21.757,18.124
-648.113,-209.89,314.137,24.023,-22.116,15.231
-632.897,-176.368,269.606,33.861,-22.363,13.425
-647.85,-118.69,265.776,41.046,-21.074,13.419
-639.98,-40.318,252.698,44.825,-20.479,14.023
-654.316,14.897,259.672,45.703,-19.217,14.711
-632.295,53.167,239.41,44.673,-18.691,14.891
-641.719,85.089,245.556,44.115,-16.885,15.694
-632.149,77.355,228.052,42.971,-15.374,17.19
-635.21,83.021,244.164,41.005,-13.298,18.577
-650.463,70.391,224.153,37.997,-12.514,19.501
-666.982,67.64,230.348,35.286,-10.935,20.424
-681.677,85.26,230.936,32.178,-10.448,21.369
-710.524,102.694,244.055,29.022,-9.485,22.622
-714.608,88.836,256.761,25.058,-9.679,23.948
-746.528,102.417,280.546,20.96,-9.218,25.682
-748.804,101.03,305.177,16.303,-9.741,27.701
-760.626,73.11,331.17,12.5,-10.14,29.591
-807.931,37.881,367.549,10.221,-11.971,31.474
-862.499,-16.464,351.547,9.903,-13.675,32.795
-871.838,-74.585,361.061,11.499,-15.891,32.116
-897.049,-99.661,360.368,15.682,-17.265,30.562
-946.47,-105.803,344.807,19.999,-19.639,28.726
-972.684,-79.967,323.015,24.294,-21.539,26.742
-1024.966,-85.579,328.015,27.385,-24.201,24.601
-1064.211,-42.539,323.655,28.989,-26.254,22.42
-1108.448,-0.044,311.693,29.036,-28.736,19.89
-1124.299,39.012,299.34,28.339,-30.285,17.032
-1150.187,26.411,277.85,26.616,-32.033,13.772
-1154.32,66.805,271.513,25.127,-32.397,10.498
-1174.799,113.514,212.146,23.555,-32.788,7.715
-1193.292,105.005,217.601,22.174,-31.856,6.017
-1128.291,121.772,191.587,20.685,-31.245,4.619
-1162.383,122.905,172.72,19.653,-29.387,3.685
-1158.881,93.92,168.003,18.732,-28.02,3.008
-1155.351,133.845,171.285,18.534,-25.548,2.705
-1153.498,151.06,162.242,18.04,-23.67,2.665
-1149.146,161.964,173.557,18.175,-21.057,3.327
-1138.104,179.203,168.117,18.84,-19.155,4.24
-1122.479,175.927,181.481,20.369,-16.481,5.065
-1104.281,178.25,205.789,22.024,-14.405,5.559
-1100.329,188.804,242.772,24.423,-11.853,6.113
-1067.825,181.456,240.653,26.978,-10.272,6.834
-1068.586,161.201,273.226,29.797,-8.354,7.412
-1078.637,126.739,286.351,31.414,-7.427,7.083
-1055.02,142.689,288.964,32.47,-6.176,6.378
-1047.064,141.328,306.463,32.723,-5.555,5.495
-1049.077,146.704,296.524,32.655,-4.178,4.714
-1018.073,165.582,302.259,31.838,-3.722,3.671
-1024.232,170.551,303.141,30.827,-2.699,2.601
-1002.305,145.191,308.843,29.451,-2.764,1.126
-1000.828,131.364,292.355,28.597,-2.121,-0.248
-995.56,128.596,292.596,27.58,-2.188,-1.698
-985.575,109.104,321.878,27.108,-1.556,-3.162
-982.047,122.81,272.532,26.497,-1.58,-4.544
-990.261,121.872,271.344,26.515,-0.761,-5.39
-992.256,115.774,260.179,26.306,-0.477,-6.217
-1002.348,155.656,259.387,26.552,0.413,-6.869
-973.115,142.407,256.046,26.992,0.815,-7.622
-996.427,162.296,248.158,27.879,1.953,-7.97
-969.219,171.651,252.702,28.029,2.392,-8.532
-998.202,190.753,258.03,28.226,3.731,-8.9
-1002.784,200.297,241.178,28.343,4.386,-9.098
-1013.34,213.935,256.447,28.901,5.74,-8.742
-1027.466,202.478,240.461,29.013,6.169,-8.391
-1054.323,205.273,259.564,29.248,7.242,-8.266
-1039.994,242.117,250.042,29.146,7.818,-8.218
-1033.321,230.742,257.437,29.588,9.135,-8.265
-1035.418,199.853,254.497,29.617,9.663,-8.339
-1040.97,214.283,296.231,29.769,10.738,-8.236
-1040.274,194.372,291.363,29.514,10.967,-8.447
-1046.885,196.508,298.013,30.013,11.817,-8.537
-1046.245,209.221,302.046,30.27,11.96,-8.704
-1060.137,185.436,310.033,30.985,12.529,-8.998
-1050.868,183.22,295.61,31.796,12.215,-9.487
-1068.383,178.436,308.882,33.238,12.742,-9.727
-1066.877,162.115,306.941,34.258,12.563,-9.445
-1044.63,168.695,306.355,34.533,12.934,-9.78
-1038.102,170.376,292.259,34.704,12.572,-10.341
-1051.17,179.017,311.199,35.108,13.265,-10.27
-1026.097,192.008,297.484,34.996,13.325,-10.122
-1037.494,202.984,318.844,35.054,14.186,-9.972
-1034.264,176.651,311.149,34.654,14.471,-10.381
-1037.848,166.205,309.68,34.716,15.51,-10.896
-1014.519,170.31,298.628,34.563,16.043,-11.502
-1016.569,188.126,293.933,34.427,17.309,-11.956
-1007.92,189.315,294.622,33.935,17.885,-12.485
-1030.049,197.044,294.982,33.609,19.367,-12.719
-1012.212,193.992,283.216,32.734,20.016,-13.112
-1007.079,180.716,321.108,32.084,21.458,-13.372
-987.193,192.673,311.95,31.043,22.327,-13.75
-1001.559,201.249,324.805,30.078,23.727,-13.748
-985.124,199.44,319.068,29.208,24.254,-13.801
-1005.337,190.279,321.838,28.966,25.409,-13.871
-980.81,173.291,306.5,28.636,25.945,-13.897
-991.795,180.273,310.313,29.021,27.023,-13.84
-979.876,159.759,307.614,29.607,27.177,-13.817
-978.667,179.347,313.838,30.287,28.033,-13.729
-964.656,184.458,333.113,30.436,27.928,-13.89
-966.109,171.939,328.75,30.598,28.39,-13.972
-985.051,191.366,306.63,29.954,28.137,-14.157
-985.275,200.037,348.458,29.245,28.612,-14.153
-964.207,199.971,344.939,28.133,28.223,-14.105
-974.51,211.422,362.39,27.216,28.448,-13.9
-970.105,208.981,354.974,26.077,27.703,-13.806
-986.028,203.766,364.808,25.125,27.377,-13.508
-971.725,207.081,335.406,24.076,25.95,-13.38
-1001.072,213.36,349.588,23.215,25.076,-12.817
-980.187,222.908,354.54,22.059,23.422,-12.158
-984.992,212.08,374.514,21.186,22.464,-11.448
-972.111,224.213,386.836,20.326,20.847,-10.928
-972.589,227.598,395.166,19.827,20.161,-10.419
-960.146,199.066,374.405,19.162,18.67,-10.076
-954.512,198.985,394.436,18.629,17.961,-9.676
-957.663,190.457,376.427,17.848,16.399,-9.435
-977.404,200.303,379.911,17.561,15.725,-8.849
-974.88,184.442,371.449,17.081,14.311,-8.441
-990.159,184.249,361.469,16.818,13.592,-8.035
-970.233,170.326,363.074,16.19,11.981,-7.819
-991.889,154.813,357.184,15.935,11.492,-7.69
-946.466,165.387,344.078,15.135,10.413,-7.714
-964.217,171.963,353.617,14.608,10.102,-7.478
-959.366,187.126,350.715,13.755,9.337,-7.154
-980.814,152.256,337.472,13.07,9.414,-6.936
-975.607,167.028,352.133,12.119,9.052,-6.896
-979.814,151.064,344.195,11.511,9.394,-6.869
-962.912,154.564,337.743,10.736,9.267,-6.883
-993.976,161.725,322.821,10.331,9.72,-6.918
-970.626,151.562,346.793,9.506,9.37,-7.056
-991.061,129.363,328.437,9.075,9.714,-7.079
-964.265,134.257,330.648,8.382,9.43,-7.078
-968.023,126.561,339.518,7.924,9.919,-6.681
-956.523,120.806,339.357,7.126,9.291,-6.576
-980.899,106.924,334.508,6.894,9.345,-6.499
-996.633,133.086,336.882,6.336,8.674,-6.578
-981.561,123.302,343.72,5.919,8.799,-6.54
-966.837,123.961,325.452,5.122,8.031,-6.467
-1004.858,128.658,334.745,4.431,8.087,-6.365
-980.455,124.064,327.534,3.164,7.45,-6.454
-996.417,106.146,332.697,1.949,7.207,-6.45
-985.193,126.56,341.911,0.428,6.563,-6.459
-997.445,114.54,314.366,-0.605,6.281,-6.259
-995.514,103.541,317.627,-1.582,5.312,-6.073
-991.154,84.321,336.037,-1.678,5.002,-5.939
-988.742,84.867,320.996,-1.747,4.218,-5.969
-1005.582,85.695,323.706,-1.147,4.191,-5.978
-973.32,66.354,315.338,-0.491,3.563,-6.007
-980.408,64.194,305.037,0.835,3.614,-5.881
-975.789,58.414,284.556,1.567,3.013,-5.877
-993.182,72.279,290.081,2.309,3.122,-5.878
-971.072,71.579,281.915,2.843,2.543,-5.989
-962.449,80.503,281.315,3.441,2.841,-5.963
-958.714,67.188,255.0,3.419,2.466,-5.843
-956.503,75.49,272.978,3.542,2.877,-5.701
-948.036,76.031,254.134,3.244,2.509,-5.583
-943.992,58.244,259.166,2.991,2.986,-5.554
-946.069,66.335,235.085,2.739,2.849,-5.533
-942.718,74.296,249.819,2.85,3.443,-5.486
-926.529,51.028,232.383,2.611,3.4,-5.532
-944.176,61.926,260.011,2.633,4.061,-5.469
-934.689,47.465,247.341,2.278,3.99,-5.566
-926.218,79.093,270.006,2.184,4.827,-5.647
-921.559,77.583,249.425,1.779,4.733,-5.727
-929.254,75.336,262.6,1.64,5.313,-5.662
-913.624,79.804,236.457,1.394,5.242,-5.679
-903.909,54.19,254.748,1.612,5.959,-5.49
-884.317,64.196,235.528,1.699,5.846,-5.43
-908.667,71.588,249.181,1.982,6.5,-5.205
-891.157,71.944,244.589,2.193,6.433,-5.192
-899.504,77.542,257.42,2.826,7.203,-5.095
-881.111,81.622,231.348,3.231,7.301,-5.067
-877.941,85.39,255.383,3.978,8.026,-5.035
-875.498,79.133,224.066,4.634,8.052,-5.054
-898.143,55.18,259.947,5.662,9.059,-4.971
-865.822,81.559,233.876,6.29,9.12,-5.06
-857.504,73.465,241.395,7.236,9.926,-4.917
-870.155,78.621,222.761,7.667,10.007,-4.917
-854.375,102.616,247.683,8.285,10.788,-4.822
-864.738,98.235,222.701,8.679,10.831,-4.928
-876.841,80.662,246.998,9.221,11.421,-5.046
-855.868,72.41,221.492,9.398,11.319,-5.147
-883.581,73.622,234.284,9.622,11.964,-4.91
-879.45,95.911,229.473,9.392,11.74,-4.814
-856.969,88.983,235.064,9.461,12.268,-4.684
-868.615,81.816,266.028,9.116,11.972,-4.67
-874.057,85.03,255.952,9.006,12.329,-4.588
-871.43,93.973,235.909,8.515,11.808,-4.421
-870.119,81.117,259.409,8.423,11.853,-4.08
-846.869,96.767,257.007,8.163,11.124,-3.673
-876.84,93.608,271.137,8.216,11.08,-3.295
-860.645,87.246,263.759,7.896,10.143,-3.135
-886.618,87.089,279.051,8.074,9.895,-3.01
-866.354,82.751,247.857,8.191,8.897,-2.838
-866.336,91.146,258.071,8.665,8.559,-2.594
-864.697,88.888,271.685,8.901,7.651,-2.494
-857.152,87.564,255.144,9.503,7.479,-2.321
-865.946,103.254,264.747,9.596,6.644,-2.279
-859.511,81.663,260.073,9.896,6.667,-2.153
-874.445,100.762,259.208,9.531,5.99,-2.041
-875.741,87.974,249.559,9.427,5.978,-1.763
-877.88,94.548,245.083,8.917,5.115,-1.458
-881.948,82.182,254.336,8.638,4.934,-1.175
-837.132,88.552,235.686,8.19,4.089,-0.992
-875.039,89.41,243.588,8.244,4.105,-0.454
-839.713,103.128,224.192,8.079,3.302,0.03
-860.407,75.446,239.926,8.055,3.178,0.413
-846.005,75.186,224.273,7.813,2.233,0.543
-883.43,82.022,232.805,7.939,2.13,0.801
-850.612,79.88,241.066,7.947,1.371,0.956
-865.294,62.974,232.413,8.034,1.272,1.279
-860.078,65.316,222.761,8.073,0.599,1.274
-876.803,55.573,257.349,8.523,0.541,1.434
-882.401,61.205,246.255,8.73,-0.28,1.749
-879.947,62.278,231.546,9.278,-0.276,1.964
-887.723,69.713,246.808,9.765,-1.244,2.041
-887.996,64.517,229.511,10.758,-1.398,2.183
-879.714,50.913,235.176,11.282,-2.229,2.182
-896.579,52.305,229.993,11.965,-2.327,2.204
-894.271,67.134,240.642,12.304,-3.158,2.249
-879.304,62.717,258.457,12.832,-3.246,2.436
-892.028,54.227,232.277,12.886,-3.941,2.306
-905.332,59.003,227.184,13.031,-4.022,2.04
-890.232,50.814,225.893,12.806,-4.805,1.706
-894.959,64.939,229.237,12.656,-4.745,1.463
-911.347,63.905,233.363,12.124,-5.396,1.199
-886.616,98.244,251.555,11.932,-4.965,1.014
-903.494,67.452,227.611,11.465,-5.122,0.636
-907.308,82.829,240.601,11.04,-4.431,0.402
-885.689,77.33,249.192,10.355,-4.488,-0.054
-915.675,68.066,238.65,10.3,-3.791,-0.273
-904.05,75.244,240.131,9.9,-3.738,-0.468
-921.881,83.133,255.233,10.031,-3.125,-0.593
-905.861,89.917,248.766,10.031,-3.352,-0.701
-898.772,74.926,265.003,10.31,-2.666,-0.522
-907.527,86.802,272.239,10.188,-2.911,-0.384
-906.004,82.969,279.596,10.241,-2.414,-0.254
-905.541,70.501,276.988,10.155,-2.833,-0.033
-904.783,96.66,272.666,10.488,-2.591,0.265
-888.928,86.35,287.55,10.456,-2.987,0.62
-906.262,77.126,298.663,10.892,-2.731,1.039
-878.64,73.351,271.78,10.86,-3.147,1.195
-878.963,61.534,310.955,11.04,-2.882,1.383
-869.266,80.749,290.112,10.831,-3.458,1.535
-874.856,76.365,298.921,10.846,-3.05,1.821
-876.125,78.827,282.295,10.471,-3.419,1.966
-901.726,71.986,286.692,10.193,-3.151,2.079
-883.383,61.855,279.416,9.365,-3.633,1.815
-897.843,63.213,283.573,8.586,-3.362,1.521
-887.872,70.056,289.014,7.502,-3.798,1.262
-885.517,71.759,301.674,6.681,-3.499,1.157
-884.89,74.074,299.998,5.672,-3.882,0.908
-889.744,70.724,300.043,5.168,-3.918,0.617
-899.533,54.053,289.979,4.476,-4.598,0.231
-906.382,48.267,296.466,4.347,-4.433,-0.177
-902.945,52.265,291.364,3.955,-5.167,-0.654
-905.839,70.255,288.081,3.977,-5.155,-1.012
-902.641,69.521,276.513,3.717,-5.953,-1.464
-909.28,66.25,274.901,3.868,-6.006,-1.757
-881.55,76.016,290.192,3.834,-6.663,-2.163
-906.843,81.718,305.617,4.166,-6.685,-2.485
-898.663,68.008,286.849,4.152,-7.396,-2.713
-905.606,77.394,291.77,4.494,-7.341,-2.989
-904.691,74.764,288.783,4.494,-8.004,-3.223
-916.054,81.576,300.588,4.43,-8.12,-3.324
-910.72,73.277,291.292,3.997,-8.966,-3.526
-915.439,87.235,304.98,3.829,-9.08,-3.518
-901.386,106.206,297.636,3.48,-9.817,-3.732
-925.71,96.888,292.733,3.167,-9.758,-3.693
-918.408,99.689,294.332,2.717,-10.34,-3.909
-925.751,90.062,294.427,2.603,-10.11,-3.933
-909.676,86.255,297.265,2.274,-10.536,-4.172
-923.411,99.155,294.552,2.01,-10.185,-4.215
-912.342,108.145,274.485,1.559,-10.72,-4.545
-929.202,103.581,274.035,1.491,-10.403,-4.674
-936.678,114.408,275.026,1.321,-10.597,-4.889
-933.054,97.306,280.781,1.369,-10.153,-5.155
-949.573,85.761,271.464,1.28,-10.365,-5.57
-939.927,102.59,277.257,1.367,-9.653,-5.974
-949.928,107.168,267.007,1.294,-9.859,-6.372
-952.431,94.231,259.603,1.42,-9.188,-6.455
-955.951,86.647,256.2,1.461,-9.276,-6.626
-951.845,116.295,276.041,1.807,-8.555,-6.71
-932.024,103.217,253.076,1.731,-8.58,-6.687
-950.363,118.253,265.64,1.938,-7.841,-6.702
-931.204,101.447,255.648,1.625,-7.812,-6.821
-952.277,126.398,248.533,1.486,-7.028,-6.787
-939.747,116.813,238.523,0.88,-7.174,-6.566
-927.437,130.72,252.118,0.639,-6.289,-6.283
-943.063,111.216,253.333,0.152,-6.181,-5.98
-916.945,129.352,247.958,-0.064,-5.22,-5.468
-936.873,113.409,255.851,-0.34,-5.077,-5.174
-920.04,127.243,263.318,-0.113,-4.285,-4.606
-917.652,114.112,252.178,0.038,-4.119,-4.073
-940.17,120.995,282.064,0.603,-3.302,-3.51
-933.313,85.342,268.691,0.77,-3.117,-3.125
-935.746,104.345,268.932,1.254,-2.142,-2.663
-909.167,106.357,268.673,1.49,-2.054,-2.28
-926.939,81.088,279.873,2.094,-1.354,-1.86
-932.636,100.326,272.765,2.571,-1.654,-1.639
-955.947,99.315,268.416,3.114,-1.235,-1.334
-946.362,107.271,258.348,3.371,-1.525,-1.155
-968.747,112.537,268.689,3.602,-0.937,-0.779
-929.75,118.093,259.428,3.633,-1.064,-0.44
-965.384,96.814,274.812,4.141,-0.323,-0.093
-939.383,111.623,263.541,4.463,-0.309,0.333
-972.615,103.956,273.925,5.176,0.374,0.827
-940.055,92.229,255.699,5.659,0.196,1.143
-981.605,114.961,265.239,6.144,0.74,1.47
-964.893,125.25,248.141,6.404,0.654,1.901
-965.36,104.594,262.528,6.678,1.353,2.378
-984.695,132.692,257.492,6.601,1.383,2.758
-978.843,132.773,255.722,6.497,2.234,3.285
-979.136,128.471,251.308,6.124,2.277,3.555
-989.119,129.084,261.367,6.485,3.155,3.911
-988.244,136.648,246.352,6.795,3.185,4.176
-1012.839,123.927,270.068,7.439,4.076,4.602
-1017.606,137.883,257.055,7.865,4.296,5.021
-1028.959,126.162,259.998,8.608,5.078,5.35
-1023.076,145.243,266.681,9.15,5.193,5.754
-1039.165,156.466,268.352,9.804,6.172,6.353
-1039.945,138.616,274.742,9.953,6.424,6.911
-1053.799,153.114,284.82,10.302,7.315,7.506
-1048.676,151.172,299.068,10.474,7.472,7.784
-1065.456,161.529,292.809,10.99,8.461,8.307
-1035.524,166.715,284.129,11.259,8.877,8.877
-1092.754,183.375,313.855,11.799,9.974,9.672
-1075.849,155.522,310.062,11.703,10.3,10.099
-1091.834,159.979,303.277,11.901,11.375,10.619
-1077.785,161.69,283.18,11.927,11.846,11.1
-1085.725,184.39,281.155,12.284,13.19,11.917
-1079.843,146.83,285.114,12.449,13.834,12.559
-1084.324,161.968,293.83,13.098,15.356,13.239
-1083.257,133.55,274.388,13.676,16.25,13.816
-1073.58,126.631,283.419,14.617,18.042,14.488
-1065.125,125.499,271.876,15.376,19.11,14.994
-1077.739,126.888,277.359,16.248,20.898,15.624
-1069.141,133.519,285.626,16.727,21.68,16.129
-1066.453,111.82,295.213,17.318,23.159,16.631
-1074.228,146.206,292.533,17.314,23.784,16.973
-1078.152,151.186,317.073,17.4,25.037,17.381
-1060.01,140.677,320.74,16.908,25.194,17.698
-1077.135,137.558,307.869,16.337,26.162,17.999
-1057.652,143.942,302.533,15.676,25.933,18.022
-1070.846,138.878,294.093,15.333,26.417,18.074
-1071.112,142.555,297.616,15.079,26.1,18.032
-1084.354,125.971,302.588,15.141,26.321,18.171
-1062.126,129.741,301.001,14.886,25.742,18.165
-1095.263,142.96,303.048,14.838,25.808,18.338
-1062.27,144.484,295.818,14.44,25.337,18.253
-1088.872,155.737,290.898,14.339,25.722,18.259
-1087.571,182.259,281.687,13.817,25.3,18.266
-1108.395,194.213,285.142,13.651,25.607,18.134
-1106.265,187.474,277.445,13.371,25.37,17.744
-1115.541,179.457,292.536,13.733,25.799,17.313
-1115.293,186.321,273.445,13.958,25.613,17.059
-1142.678,196.076,291.896,14.844,26.247,17.076
-1115.532,207.471,265.565,15.621,26.383,17.068
-1120.15,220.009,280.798,16.611,27.626,17.039
-1095.887,220.748,263.95,17.141,28.171,16.969
-1118.676,225.496,295.899,17.899,29.429,17.216
-1104.264,235.112,277.623,18.323,30.062,17.437
-1122.102,234.149,295.754,19.124,31.216,17.677
-1107.682,247.057,295.336,19.41,31.475,17.883
-1114.219,253.569,293.636,19.833,32.395,18.426
-1104.199,244.037,300.312,19.764,32.8,18.81
-1101.591,248.325,314.885,19.643,33.843,19.041
-1083.633,256.086,302.724,19.104,33.853,19.043
-1090.474,259.724,319.78,18.456,34.613,19.312
-1083.249,268.153,301.603,17.357,34.445,19.528
-1086.875,263.984,314.709,16.24,34.911,19.729
-1074.25,285.524,303.699,14.631,34.508,19.908
-1072.453,281.962,323.388,13.409,34.735,20.035
-1062.148,288.919,305.189,11.725,34.287,20.118
-1066.308,262.773,313.217,10.534,34.536,20.159
-1030.6,276.937,303.576,9.315,33.967,20.253
-1058.961,279.329,312.031,8.715,34.004,20.334
-1031.472,258.983,297.178,8.606,33.207,20.372
-1022.8,257.593,296.293,9.296,33.281,20.614
-1004.652,250.043,287.883,10.028,32.657,20.386
-1002.286,267.164,281.72,10.691,32.608,20.384
-998.961,276.95,290.56,10.732,32.071,20.595
-983.541,274.165,277.945,10.713,32.076,20.876
-982.363,275.583,262.096,10.538,31.639,21.162
-995.932,271.689,269.682,10.489,31.919,21.411
-974.271,265.714,253.389,9.874,31.45,21.465
-978.262,277.114,268.419,9.685,31.978,21.673
-968.158,299.367,225.027,9.51,31.838,22.027
-955.158,297.166,246.357,9.333,32.366,22.482
-954.167,296.756,244.335,8.632,31.965,22.728
-962.022,310.909,232.27,8.208,32.363,23.014
-956.316,309.734,224.076,7.257,31.883,23.0
-977.665,313.759,234.427,6.409,32.096,23.121
-936.257,322.357,199.854,5.296,31.509,23.235
-965.796,317.844,212.706,4.273,31.782,23.423
-948.964,337.181,234.212,3.016,31.336,23.565
-968.544,327.618,202.482,1.811,31.455,23.828
-928.459,344.959,209.235,0.354,30.885,24.18
-939.182,332.869,199.136,-0.786,30.954,24.692
-921.246,333.206,176.125,-2.048,29.923,25.319
-947.002,324.833,178.197,-3.329,29.511,26.187
-930.205,320.115,164.093,-5.159,28.171,27.241
-928.648,338.814,182.14,-6.446,27.671,28.196
-905.218,332.245,160.001,-7.915,26.669,29.315
-918.265,315.932,165.198,-8.79,26.352,30.288
-893.508,304.197,141.877,-9.545,25.389,31.017
-870.216,307.487,145.206,-10.076,25.221,31.989
-863.686,277.073,146.153,-10.657,24.256,32.869
-873.926,259.18,131.716,-10.827,24.102,33.759
-830.005,250.383,109.385,-10.846,23.215,34.522
-845.256,239.727,115.142,-10.382,23.097,35.234
-803.162,242.264,109.895,-10.111,22.469,35.797
-812.176,238.093,98.314,-9.412,22.624,36.423
-805.021,238.933,92.08,-9.171,22.272,36.765
-786.726,225.455,89.544,-9.048,22.672,37.067
-795.903,241.814,90.812,-9.39,22.346,37.352
-789.496,261.782,90.61,-9.599,22.721,37.59
-773.319,235.717,77.818,-10.126,22.173,37.664
-782.945,235.298,85.677,-10.37,22.221,37.602
-764.158,242.751,53.453,-11.034,21.346,37.492
-780.509,240.844,65.842,-11.574,21.249,37.646
-783.203,251.581,50.047,-12.33,20.38,37.857
-759.953,248.619,44.772,-12.878,20.583,38.119
-768.352,234.991,51.88,-13.771,19.974,38.231
-762.766,239.241,22.736,-14.288,20.22,38.349
-764.265,242.311,34.479,-14.525,20.006,38.486
-772.919,248.294,29.137,-14.493,20.549,38.624
-725.961,245.398,17.302,-14.906,20.37,38.855
-743.164,240.717,13.679,-14.852,20.655,39.18
-715.117,245.052,22.152,-15.192,20.198,39.472
-739.054,228.726,35.494,-15.397,20.297,39.713
-731.974,256.782,36.709,-15.567,19.577,40.066
-732.07,239.089,42.66,-15.613,19.569,40.51
-700.704,254.225,17.572,-15.721,18.865,40.792
-707.661,256.415,47.716,-15.573,18.976,41.058
-698.212,273.175,45.789,-15.828,18.27,41.4
-711.767,250.239,59.708,-15.766,18.337,41.869
-687.522,262.031,29.58,-16.061,17.499,41.997
-718.93,284.823,27.319,-16.041,17.396,42.01
-680.416,276.69,33.557,-16.452,16.432,42.039
-705.052,287.051,37.348,-16.544,16.208,42.353
-686.064,290.494,18.406,-17.104,15.117,42.685
-691.189,292.443,39.591,-17.526,14.649,43.043
-692.556,275.458,30.651,-18.16,13.179,43.206
-707.719,275.141,20.805,-18.482,12.725,43.327
-698.929,292.61,35.431,-19.057,11.541,43.141
-708.944,298.079,27.334,-19.25,11.184,43.064
-707.405,315.178,35.431,-19.891,10.048,42.901
-712.35,327.71,29.772,-20.792,9.743,42.666
-710.582,310.763,15.157,-22.129,8.844,42.244
-732.202,349.68,11.62,-23.309,8.591,41.93
-742.928,351.472,28.49,-25.097,7.352,41.555
-742.667,343.806,25.739,-26.701,6.738,41.361
-736.136,336.307,24.15,-28.548,5.239,40.971
-743.631,373.814,11.941,-29.849,4.584,40.583
-706.613,335.599,1.372,-30.914,3.351,40.078
-730.48,325.612,19.52,-31.367,2.931,39.638
-721.652,296.611,2.968,-31.792,1.77,39.341
-745.995,302.75,3.638,-31.682,1.209,39.229
-722.57,314.088,-11.222,-31.814,-0.123,39.018
-737.372,323.939,-3.22,-31.627,-0.65,38.944
-714.751,293.71,-13.339,-31.211,-1.838,38.529
-710.39,321.428,-14.398,-30.706,-2.06,37.947
-717.122,305.506,-31.222,-30.575,-2.728,37.084
-726.431,305.403,-26.163,-30.373,-2.587,36.297
-701.174,315.107,-33.997,-30.343,-2.803,35.605
-712.066,305.367,-21.848,-30.175,-2.145,35.09
-704.503,297.787,-18.619,-30.872,-2.608,33.753
-722.688,301.073,-21.476,-30.969,-2.096,32.706
-693.542,271.273,-27.3,-31.042,-2.043,31.379
-716.162,291.958,-33.229,-30.76,-0.912,30.049
-679.504,279.263,-27.434,-30.88,-0.514,28.771
-701.026,305.995,-24.529,-30.816,0.633,27.649
-697.92,303.561,-33.724,-31.352,0.944,26.409
-720.258,289.351,-43.563,-31.634,2.052,24.941
-706.01,312.108,-38.896,-32.481,1.997,23.359
-726.172,295.171,-49.353,-33.051,2.768,21.953
-719.552,298.173,-66.34,-33.812,2.859,20.455
-761.864,295.228,-45.422,-34.686,3.762,19.027
-715.183,319.458,-48.752,-36.195,3.803,17.499
-775.001,320.386,-28.944,-37.28,4.35,15.739
-745.334,314.016,-33.949,-37.821,3.909,13.911
-760.912,314.954,-19.977,-38.184,4.383,12.3
-753.082,302.614,-14.485,-38.6,4.19,10.746
-772.982,328.757,-27.869,-37.996,4.757,9.413
-812.164,334.958,-14.349,-37.478,4.654,8.061
-810.889,320.055,-8.394,-36.547,5.433,6.737
-794.187,335.15,-8.519,-35.739,5.45,5.253
-834.474,340.654,-10.457,-34.932,6.32,3.869
-807.638,334.333,0.363,-34.43,6.431,2.289
-827.268,369.013,1.464,-33.885,7.295,1.079
-836.783,366.001,9.245,-33.791,7.139,-0.203
-854.886,350.13,5.237,-33.406,7.781,-1.124
-866.429,360.305,16.522,-32.793,7.517,-2.175
-871.494,339.104,14.796,-31.576,8.079,-3.436
-868.76,326.271,11.265,-30.314,8.009,-4.64
-878.193,342.877,18.31,-28.124,8.617,-5.505
-901.076,339.274,11.9,-26.093,8.393,-6.072
-914.162,342.775,5.877,-24.104,9.078,-6.403
-920.94,361.076,-0.637,-22.765,8.937,-6.72
-957.386,369.199,-6.177,-21.303,9.684,-6.797
-948.781,363.955,-1.611,-20.18,9.455,-6.948
-969.911,380.565,19.119,-19.404,10.014,-6.942
-959.12,385.263,-0.255,-19.615,9.918,-7.143
-980.259,387.522,16.598,-19.824,10.848,-7.393
-969.77,410.663,13.26,-20.217,11.305,-7.35
-988.177,379.117,15.912,-20.4,12.457,-7.351
-972.396,393.044,-5.235,-21.101,12.866,-7.298
-957.646,379.121,-5.425,-21.369,13.936,-7.284
-965.45,366.461,-15.98,-21.598,14.444,-7.147
-976.02,359.938,5.59,-21.47,15.61,-7.048
-963.496,349.157,-4.389,-21.446,15.719,-7.246
-979.666,339.424,21.584,-21.039,16.915,-7.04
-948.766,327.004,9.405,-20.776,16.983,-7.122
-969.503,300.024,21.105,-20.118,17.641,-7.062
-966.226,305.975,23.116,-19.379,17.406,-7.122
-961.29,313.835,14.681,-18.613,18.003,-6.839
-973.873,306.212,12.501,-18.269,17.375,-6.717
-1006.548,306.562,9.495,-17.422,17.364,-6.78
-1001.723,295.34,8.695,-17.082,16.349,-7.135
-1006.309,291.473,26.088,-16.958,15.986,-7.459
-1019.828,335.61,13.035,-17.035,15.145,-7.741
-1014.583,326.764,30.001,-16.724,15.3,-7.737
-1019.21,345.468,23.481,-16.793,14.903,-7.935
-1033.368,339.588,27.36,-16.875,15.468,-8.174
-1015.334,337.567,27.462,-17.242,15.282,-8.639
-1024.737,330.223,9.51,-17.417,15.8,-9.238
-1011.564,329.264,-7.332,-17.718,15.613,-9.754
-1038.566,311.202,14.48,-17.721,16.354,-10.048
-1006.422,334.92,19.678,-17.656,16.259,-10.111
-1022.17,326.378,16.442,-17.387,17.063,-10.015
-1020.252,343.326,18.529,-17.642,17.289,-9.94
-1021.408,340.865,25.835,-17.656,18.209,-9.756
-1017.969,353.558,5.942,-17.996,18.167,-9.473
-1021.816,351.392,33.825,-18.298,18.812,-9.154
-1008.316,334.157,18.43,-19.037,18.346,-8.699
-1015.049,343.703,44.515,-19.519,18.462,-8.043
-978.832,349.536,28.891,-20.027,18.012,-7.183
-982.46,330.101,37.954,-19.944,18.111,-6.162
-970.542,341.653,34.723,-19.928,17.603,-5.069
-982.909,309.565,51.773,-19.395,17.686,-3.913
-953.705,289.164,40.041,-19.097,16.628,-2.704
-958.667,284.844,41.355,-18.37,16.347,-1.537
-931.306,278.38,32.169,-17.8,15.424,-0.512
-935.19,290.051,34.552,-16.999,15.252,0.34
-906.821,275.511,34.423,-16.542,14.454,0.834
-902.288,282.697,25.134,-16.179,14.414,1.152
-877.727,282.131,10.96,-16.103,14.085,1.262
-876.189,282.404,37.29,-15.995,14.415,1.27
-853.546,279.576,12.948,-16.566,14.247,1.106
-874.962,275.754,26.571,-17.166,14.799,0.903
-860.222,281.489,8.704,-17.021,14.254,0.545
-875.243,268.223,42.017,-17.256,14.504,-0.15
-859.155,261.983,31.233,-18.259,13.865,-1.161
-861.877,274.943,37.737,-18.397,13.878,-2.067
-859.145,275.528,18.338,-18.733,13.122,-2.792
-887.922,287.39,32.104,-18.761,13.121,-3.305
-864.358,281.909,22.91,-19.001,12.379,-3.955
-876.986,287.065,30.046,-18.815,12.418,-4.18
-868.364,316.044,28.47,-19.22,11.583,-4.513
-869.434,315.393,55.285,-19.427,11.8,-4.862
-880.52,322.671,34.184,-19.611,11.3,-5.267
-866.325,325.295,31.313,-19.302,11.602,-5.552
-868.248,328.528,31.596,-19.131,11.14,-5.734
-889.427,339.07,26.702,-18.792,11.545,-5.874
-883.008,353.167,20.217,-18.85,11.189,-6.096
-895.512,360.865,43.291,-18.83,11.406,-6.211
-872.658,351.539,30.9,-19.142,10.918,-6.451
-896.921,380.645,34.606,-19.159,11.442,-6.596
-897.213,394.591,29.088,-19.482,11.27,-6.473
-920.278,399.213,25.65,-19.573,11.944,-6.444
-898.48,401.648,22.582,-20.05,11.766,-6.486
-931.768,411.142,31.436,-20.153,12.483,-6.561
-915.106,404.231,21.262,-20.45,12.393,-6.723
-935.43,417.378,34.083,-20.48,13.091,-6.748
-929.283,411.23,22.822,-20.712,12.893,-6.625
-930.842,419.005,49.783,-20.617,13.44,-6.32
-935.778,413.856,30.635,-20.881,12.806,-6.069
-936.478,424.609,64.299,-21.119,12.969,-5.771
-931.416,412.01,68.976,-21.225,12.282,-5.648
-913.691,411.608,81.811,-20.998,12.238,-5.471
-946.358,405.396,67.974,-21.129,11.488,-5.273
-926.273,420.798,91.082,-20.677,11.499,-5.064
-917.208,406.395,70.28,-20.476,10.717,-4.986
-932.255,419.876,77.706,-20.047,10.553,-4.98
-921.302,428.912,84.658,-19.929,9.61,-5.008
-939.648,412.971,98.259,-19.531,9.449,-5.116
-930.443,424.463,91.272,-19.44,8.515,-5.217
-949.317,420.135,92.391,-19.135,8.563,-4.976
-957.722,409.821,93.148,-19.495,7.724,-4.986
-954.693,430.918,106.397,-20.028,7.657,-5.208
-965.344,425.13,104.136,-20.845,6.818,-5.546
-963.877,430.856,122.738,-21.316,6.741,-5.526
-957.087,424.741,108.906,-22.022,6.004,-5.58
-977.235,422.214,111.006,-22.355,6.048,-5.404
-969.05,408.289,117.617,-22.81,5.509,-5.382
-982.684,404.905,126.679,-22.824,5.903,-5.319
-952.433,386.459,104.125,-22.658,5.703,-5.321
-966.705,365.623,88.957,-22.123,6.25,-5.217
-963.082,387.461,77.673,-21.71,6.318,-5.008
-974.082,370.472,106.72,-20.737,7.331,-4.702
-962.331,349.382,74.667,-19.859,7.993,-4.346
-957.802,356.435,88.704,-19.158,9.449,-3.765
-958.561,345.457,80.641,-19.301,10.353,-3.235
-949.261,363.29,79.191,-19.555,11.973,-2.728
-950.017,371.029,86.877,-20.426,12.79,-2.522
-954.165,354.357,99.562,-21.321,14.375,-2.64
-929.17,363.829,89.314,-22.61,15.26,-2.873
-946.075,360.604,103.783,-23.751,16.572,-3.081
-937.827,357.453,94.811,-25.219,17.118,-3.441
-959.569,348.803,129.61,-26.562,18.263,-3.818
-931.49,344.562,131.783,-28.1,18.247,-4.38
-954.839,342.521,130.641,-28.998,18.729,-4.712
-974.07,347.859,142.51,-29.902,18.402,-5.102
-986.564,341.899,165.193,-30.389,18.631,-5.409
-966.88,321.516,164.739,-31.072,17.968,-5.772
-997.391,335.345,168.069,-30.955,17.864,-6.046
-989.428,335.765,161.813,-30.95,16.828,-6.329
-986.666,327.118,187.38,-30.994,16.584,-6.378
-983.614,308.765,161.575,-31.289,15.513,-6.308
-992.611,331.108,182.014,-31.076,15.173,-6.245
-976.206,345.55,175.728,-31.277,13.889,-6.135
-982.315,334.952,183.499,-31.7,13.426,-5.942
-993.223,327.859,146.082,-32.372,12.111,-5.84
-1006.58,345.608,156.465,-32.75,11.657,-5.654
-963.359,336.977,138.529,-33.595,10.323,-5.507
-979.706,344.733,135.946,-34.539,9.794,-5.399
-959.802,326.345,120.31,-35.726,8.394,-5.461
-982.968,331.615,142.15,-36.472,7.756,-5.551
-954.236,323.28,115.619,-37.314,6.326,-5.601
-976.25,320.252,143.619,-37.911,5.574,-5.748
-935.818,320.17,123.116,-38.757,4.151,-6.008
-996.344,337.07,129.102,-39.167,3.732,-6.229
-983.083,314.311,97.963,-39.755,2.461,-6.622
-982.295,295.158,119.228,-39.957,2.063,-7.111
-961.944,317.688,117.59,-40.54,0.998,-7.542
-962.224,318.34,122.467,-40.755,0.815,-7.959
-954.264,340.223,112.342,-41.259,0.069,-8.173
-985.729,308.655,129.525,-41.599,0.015,-8.1
-952.645,325.762,103.615,-42.23,-0.847,-7.897
-953.394,306.789,123.98,-42.206,-0.832,-7.682
-959.689,318.634,114.117,-42.427,-1.481,-7.377
-949.079,317.539,116.272,-42.482,-1.53,-7.139
-953.213,320.525,116.738,-43.102,-2.453,-6.925
-954.843,316.162,115.679,-43.666,-2.628,-6.73
-944.156,319.695,111.606,-44.301,-3.562,-6.528
-958.259,336.705,107.963,-44.988,-3.788,-6.391
-951.031,322.546,92.935,-46.044,-4.42,-6.283
-919.113,333.134,106.723,-46.8,-4.362,-6.171
-939.132,327.167,91.265,-47.732,-4.833,-6.246
-932.766,328.721,75.76,-48.228,-4.319,-6.23
-932.084,322.789,64.85,-48.89,-4.706,-6.291
-920.879,324.275,100.384,-49.374,-4.392,-6.489
-908.318,309.051,65.58,-49.742,-4.527,-6.73
-927.974,313.329,70.784,-49.591,-4.005,-6.547
-912.003,319.91,54.794,-49.484,-4.478,-6.357
-900.667,315.761,81.149,-49.012,-4.113,-6.088
-905.702,317.684,61.435,-48.742,-4.528,-6.043
-912.347,319.565,78.631,-48.195,-4.187,-5.91
-892.194,326.264,66.746,-48.005,-4.714,-5.947
-890.772,327.462,91.388,-47.632,-4.375,-5.961
-885.575,311.087,78.986,-47.682,-4.975,-5.996
-915.622,329.601,98.61,-47.48,-4.836,-6.133
-902.862,316.884,97.917,-47.634,-5.634,-6.322
-914.032,342.254,103.364,-47.664,-5.554,-6.573
-906.067,336.941,99.444,-48.112,-6.409,-6.919
-909.819,349.323,92.093,-48.512,-6.716,-7.111
-916.122,358.257,119.229,-49.464,-7.658,-7.41
-906.645,358.289,106.64,-50.079,-7.782,-7.518
-904.052,361.545,102.574,-50.209,-8.784,-7.806
-922.212,323.798,113.48,-49.925,-8.766,-7.914
-887.075,362.114,100.563,-50.025,-9.634,-8.126
-906.174,341.375,126.095,-49.817,-9.561,-8.201
-909.078,328.965,98.777,-49.786,-10.296,-8.297
-898.509,339.315,102.274,-49.076,-10.294,-8.239
-904.149,331.679,105.214,-48.578,-11.116,-8.032
-907.674,347.753,94.483,-47.708,-11.04,-7.718
-889.86,349.706,93.634,-47.011,-11.723,-7.316
-919.62,341.742,90.518,-45.92,-11.243,-6.831
-928.612,337.641,80.815,-45.161,-11.738,-6.462
-893.86,343.532,80.715,-44.459,-11.438,-6.125
-890.64,340.695,78.665,-44.195,-11.572,-5.584
-910.489,345.301,81.418,-43.768,-10.931,-4.936
-900.068,335.119,90.076,-43.5,-10.976,-4.49
-903.342,346.192,76.707,-43.073,-10.193,-4.134
-888.388,349.972,80.841,-43.0,-10.169,-3.46
-911.145,341.751,93.122,-42.795,-9.467,-2.96
-868.281,319.22,78.819,-42.912,-9.313,-2.479
-875.901,330.235,80.334,-42.533,-8.256,-2.055
-881.477,323.837,84.73,-42.463,-8.187,-1.563
-915.347,318.507,92.877,-42.542,-7.385,-1.216
-890.087,310.576,88.37,-42.606,-7.464,-1.006
-913.117,301.919,111.684,-42.129,-6.892,-0.634
-899.361,308.548,115.468,-41.981,-6.821,-0.342
-932.653,299.315,99.035,-41.646,-6.087,-0.032
-913.313,284.782,97.01,-41.232,-6.389,0.142
-943.063,277.371,93.286,-40.538,-6.039,0.414
-930.274,287.959,95.542,-40.154,-6.625,0.607
-928.959,282.036,96.951,-39.346,-6.215,0.724
-915.009,271.024,84.513,-38.544,-6.698,0.64
-906.976,269.566,99.808,-37.243,-5.905,0.56
-902.909,272.452,76.057,-36.235,-5.914,0.299
-911.529,249.967,89.348,-35.04,-4.978,0.164
-885.383,261.62,69.059,-34.202,-4.752,-0.079
-903.536,248.301,76.129,-33.252,-3.686,-0.273
-905.647,281.882,55.345,-32.783,-3.475,-0.656
-895.32,265.874,83.505,-32.188,-2.454,-0.989
-871.662,262.697,61.506,-32.249,-2.067,-1.272
-901.216,284.299,57.153,-32.372,-1.263,-1.494
-892.403,300.52,56.359,-32.81,-1.063,-1.516
-900.838,298.489,69.904,-32.978,-0.064,-1.352
-896.989,308.543,100.681,-33.41,-0.04,-1.29
-893.861,282.694,90.337,-33.43,0.756,-1.104
-884.25,293.807,98.971,-33.624,0.779,-1.18
-884.833,295.163,116.059,-33.468,1.562,-1.084
-880.53,286.444,103.988,-33.276,1.412,-1.01
-884.294,282.98,129.479,-32.509,1.934,-0.701
-868.282,280.862,117.432,-31.942,1.741,-0.222
-892.909,288.957,116.318,-31.05,2.026,0.293
-869.914,270.239,111.185,-30.306,1.495,0.588
-874.231,271.987,118.567,-29.327,1.679,1.012
-883.968,279.634,117.692,-28.485,1.267,1.114
-874.303,282.995,131.809,-27.617,1.677,1.331
-855.972,290.604,127.037,-27.321,1.247,1.371
-878.368,283.802,125.237,-26.786,1.643,1.506
-872.096,271.581,110.765,-26.749,1.115,1.56
-880.213,286.476,116.44,-26.426,1.342,1.519
-855.427,273.15,95.506,-26.263,0.939,1.302
-866.827,291.427,126.842,-25.882,1.242,1.126
-876.325,292.617,119.571,-25.912,0.89,1.007
-877.89,323.754,129.527,-25.911,1.359,0.839
-854.608,295.018,106.439,-26.089,0.964,0.559
-892.079,286.529,130.797,-25.708,1.442,0.442
-859.29,292.572,111.436,-25.66,0.913,0.361
-887.636,274.215,138.911,-25.162,1.259,0.301
-881.061,292.351,117.622,-25.102,0.903,0.333
-878.668,299.099,120.143,-24.861,1.458,0.674
-865.983,304.759,125.781,-25.187,1.134,1.071
-889.802,293.879,137.037,-25.19,1.376,1.565
-872.762,308.278,111.646,-25.333,0.898,2.038
-893.802,295.899,129.994,-25.136,1.44,2.556
-881.523,312.521,127.878,-25.086,1.176,3.16
-908.218,307.807,132.557,-24.674,1.742,3.798
-871.051,298.151,136.736,-24.77,1.287,4.571
-879.583,294.977,148.8,-24.796,1.608,5.331
-867.003,292.718,113.661,-24.9,1.097,5.877
-901.68,273.216,131.534,-24.685,1.424,6.491
-879.798,270.445,125.035,-24.613,0.908,6.938
-912.956,271.683,146.79,-24.096,1.198,7.396
-858.955,240.169,116.666,-23.894,0.602,7.659
-889.66,242.644,130.035,-23.331,0.918,7.7
-889.119,237.197,104.264,-23.015,0.564,7.757
-861.565,220.851,118.146,-22.358,0.988,7.874
-853.255,233.729,100.838,-21.831,0.48,7.95
-865.886,204.735,110.456,-20.831,0.93,7.884
-867.69,207.219,89.289,-20.212,0.723,7.779
-868.632,203.209,99.061,-19.516,1.182,7.576
-848.856,211.399,64.454,-19.133,0.97,7.345
-853.895,202.539,72.117,-18.278,1.25,7.147
-835.414,204.286,77.469,-18.013,0.995,6.866
-834.787,213.934,73.182,-17.673,1.588,6.439
-820.274,209.525,45.834,-17.767,1.658,6.076
-815.84,240.048,63.316,-17.831,2.41,5.706
-825.634,239.84,46.792,-18.193,2.375,5.511
-832.121,227.816,77.077,-18.428,3.111,5.456
-819.712,241.178,81.803,-18.843,2.945,5.276
-811.653,276.62,95.178,-19.132,3.55,5.235
-834.088,258.484,84.167,-19.303,3.237,5.14
-841.582,257.605,100.461,-18.973,3.598,5.357
-851.445,263.22,118.221,-18.523,3.158,5.619
-880.445,257.066,130.49,-17.678,3.31,5.861
-872.901,266.986,141.804,-16.824,2.65,6.044
-886.029,273.328,136.21,-15.657,2.837,6.176
-898.256,287.135,143.551,-14.868,1.964,6.412
-915.034,294.964,174.281,-13.988,1.86,6.845
-922.789,293.245,161.754,-13.52,0.675,7.209
-975.829,312.56,163.254,-12.892,0.232,7.556
-960.552,302.656,175.446,-12.69,-1.211,7.84
-996.25,338.084,176.4,-12.604,-1.916,8.204
-989.896,362.059,176.695,-12.678,-3.174,8.372
-1000.06,333.715,185.572,-12.566,-3.683,8.743
-1003.23,341.221,176.011,-12.77,-5.214,9.066
-1032.479,341.308,169.001,-12.769,-5.916,9.546
-1031.68,342.747,167.573,-13.038,-7.44,9.928
-1034.86,336.217,179.134,-12.924,-7.847,10.508
-1025.201,330.576,165.803,-13.064,-8.955,10.96
-1044.773,332.705,158.691,-13.25,-9.025,11.57
-1033.394,332.618,150.375,-13.743,-9.693,11.972
-1054.524,326.451,147.08,-14.074,-9.448,12.485
-1024.062,313.894,131.25,-14.467,-9.865,12.924
-1040.526,306.584,126.556,-14.568,-9.352,13.208
-1033.295,294.579,129.268,-14.634,-9.558,13.333
-1013.194,289.4,125.258,-14.496,-8.805,13.486
-1019.205,270.834,125.23,-14.401,-8.647,13.356
-1019.962,274.948,135.238,-13.864,-7.786,13.3
-991.953,256.176,128.312,-13.665,-7.165,13.089
-999.261,229.661,110.939,-13.187,-5.945,12.736
-970.461,237.531,122.281,-12.862,-5.285,12.471
-981.795,224.174,130.756,-12.326,-3.872,12.246
-979.108,218.326,130.977,-12.268,-3.096,11.794
-967.273,243.004,120.285,-12.058,-1.515,11.418
-933.461,220.906,120.234,-12.481,-0.633,11.093
-953.145,237.622,123.748,-12.863,1.03,10.641
-915.625,229.557,138.233,-13.629,1.765,10.096
-911.466,245.367,134.711,-14.082,3.183,9.606
-905.051,208.366,127.752,-14.715,3.863,8.996
-922.028,205.638,154.575,-14.974,5.268,8.401
-906.93,206.538,124.667,-15.339,5.629,8.115
-895.904,194.766,137.035,-15.255,6.687,7.941
-887.315,183.702,146.337,-14.995,7.051,7.692
-902.326,204.348,152.44,-14.242,8.164,7.392
-890.221,195.137,147.661,-13.58,8.177,6.906
-916.854,188.439,157.811,-12.776,9.018,6.493
-923.691,203.385,153.465,-12.266,9.059,6.028
-933.874,216.826,172.159,-11.562,9.793,5.328
-924.452,240.899,150.077,-11.532,9.643,4.603
-938.166,257.137,168.794,-11.647,10.176,3.917
-962.511,263.065,183.355,-12.344,9.715,3.33
-955.8,282.762,201.391,-12.665,9.658,2.853
-955.443,259.846,209.419,-13.042,8.734,2.443
-962.815,276.516,213.064,-12.997,8.582,2.241
-945.519,287.727,210.692,-13.026,7.521,2.062
-949.172,299.981,213.358,-12.903,7.221,1.973
-941.945,305.709,207.61,-13.08,5.95,2.321
-961.702,321.537,241.535,-13.045,5.465,2.975
-940.413,309.944,215.881,-13.507,4.037,3.769
-935.6,323.322,228.765,-13.848,3.245,4.657
-901.825,300.964,229.264,-14.615,1.71,5.567
-938.736,328.766,224.666,-14.95,0.806,6.55
-932.027,315.023,221.47,-15.663,-0.977,7.388
-921.176,317.436,212.87,-16.186,-1.742,8.382
-911.058,309.207,211.043,-17.309,-3.556,9.197
-910.321,308.394,218.454,-18.092,-4.422,9.945
-895.272,286.14,187.356,-18.853,-6.092,10.56
-894.669,296.365,204.51,-19.217,-6.743,11.282
-875.808,267.686,200.597,-19.511,-8.298,11.72
-883.223,255.94,185.894,-19.221,-8.951,12.035
-871.983,255.097,178.318,-19.304,-10.046,12.012
-858.362,239.78,179.259,-18.838,-10.152,11.889
-858.617,247.726,160.022,-18.599,-10.87,11.764
-850.149,261.569,172.139,-18.284,-10.769,11.761
-858.829,240.484,166.052,-18.411,-11.286,11.608
-869.26,244.783,175.073,-18.476,-11.222,11.436
-841.242,241.034,160.185,-18.9,-11.927,10.803
-877.089,259.777,178.067,-19.01,-11.934,10.171
-865.83,257.615,167.453,-19.418,-12.019,9.181
-876.2,253.494,184.27,-19.075,-11.992,8.412
-879.483,255.563,172.332,-18.93,-12.954,8.102
-917.929,265.621,174.492,-18.623,-13.066,7.798
-937.332,237.209,141.73,-18.335,-13.89,7.196
-957.433,244.028,140.971,-17.685,-13.809,6.597
-950.762,260.929,109.531,-17.078,-14.414,5.898
-972.004,264.938,142.495,-16.015,-13.935,5.263
-973.018,261.857,116.785,-15.052,-14.267,4.746
-976.187,247.726,107.925,-14.056,-13.531,4.296
-960.137,273.038,85.144,-13.274,-12.963,3.63
-961.015,282.923,71.587,-12.218,-11.377,2.927
-919.936,282.72,64.222,-11.562,-10.633,2.374
-926.108,272.39,58.428,-10.869,-8.987,2.024
-923.508,263.575,43.514,-10.562,-8.068,1.632
-900.424,276.213,31.766,-10.232,-6.197,1.309
-888.731,272.536,40.673,-10.167,-5.052,1.1
-872.476,278.849,44.356,-9.631,-3.391,0.94
-827.226,270.167,40.803,-9.44,-2.341,0.864
-851.63,281.191,35.301,-8.728,-0.517,0.851
-847.39,276.491,53.098,-8.128,0.432,0.783
-838.269,256.135,62.336,-7.227,2.305,0.766
-819.816,277.7,50.519,-6.509,3.306,0.874
-810.722,276.523,61.518,-5.044,4.763,1.136
-827.202,261.795,67.945,-3.722,5.198,1.547
-816.123,254.094,70.055,-2.017,6.428,1.993
-789.395,252.264,67.384,-0.699,6.882,2.186
-809.245,257.478,95.763,0.88,7.888,2.354
-772.838,253.223,90.288,2.03,7.947,2.683
-781.218,267.577,109.022,3.236,8.612,3.275
-769.878,273.66,115.475,4.234,8.561,4.023
-778.7,258.144,114.404,5.362,9.179,4.77
-768.24,259.538,111.556,5.989,8.929,5.261
-784.087,266.63,118.623,7.081,9.373,5.582
-773.116,250.746,105.682,7.964,8.889,5.66
-795.238,271.97,120.814,8.877,8.92,5.763
-779.58,254.982,124.864,9.567,8.197,5.716
-784.569,262.801,139.7,10.541,8.161,5.78
-781.339,285.313,121.876,10.947,7.277,5.724
-803.752,257.688,149.514,11.34,7.134,5.51
-815.38,290.427,148.537,11.115,6.102,5.106
-840.509,314.207,153.523,10.948,5.674,4.692
-845.307,292.933,157.693,10.668,4.268,4.096
-891.899,325.098,146.366,10.741,3.738,3.297
-886.296,300.937,161.108,10.376,2.364,2.058
-919.626,311.056,168.64,9.992,1.648,0.762
-915.86,306.424,167.559,9.365,0.28,-0.379
-956.775,355.838,166.438,8.854,-0.488,-0.973
-976.326,333.214,160.674,7.882,-2.004,-0.969
-1011.462,350.245,172.776,7.41,-3.126,-1.087
-985.758,325.416,161.945,6.929,-4.909,-1.318
-1020.901,317.029,162.054,7.132,-5.594,-1.625
-997.485,301.355,151.896,7.536,-6.712,-1.956
-996.072,305.427,151.492,8.434,-6.836,-2.21
-977.92,288.199,105.682,9.196,-7.757,-2.127
-984.115,266.641,143.366,10.802,-7.647,-2.124
-959.602,263.816,103.227,12.535,-8.101,-1.993
-959.639,231.815,100.942,14.6,-7.364,-1.752
-919.37,231.06,88.739,16.233,-7.028,-1.773
-919.164,243.559,90.448,18.041,-5.688,-1.937
-897.428,224.967,81.918,19.606,-5.138,-2.124
-885.995,206.459,78.007,21.182,-3.686,-2.571
-886.26,179.867,59.435,22.365,-3.068,-3.309
-904.117,208.682,87.442,23.915,-1.587,-4.068
-898.743,200.966,65.419,25.1,-0.956,-4.797
-896.905,190.443,96.642,26.403,0.92,-5.841
-882.254,194.63,70.983,27.296,2.053,-7.124
-897.397,178.134,87.119,28.207,4.061,-8.56
-881.52,202.459,73.828,28.35,5.567,-10.286
-907.107,215.485,95.619,28.292,7.871,-12.085
-887.87,208.993,107.0,27.765,9.436,-13.605
-909.683,236.485,120.971,27.75,11.614,-14.718
-882.858,248.644,118.276,27.589,12.716,-15.786
-894.211,232.516,131.204,27.881,14.806,-16.799
-886.16,238.47,150.466,28.139,16.038,-17.71
-898.667,268.241,167.681,28.672,18.016,-18.449
-894.266,276.824,151.245,28.585,19.428,-18.969
-898.679,285.126,180.971,28.547,21.238,-19.186
-860.424,263.778,166.671,27.981,22.017,-19.306
-888.54,305.365,198.127,27.602,23.331,-19.074
-893.052,289.506,216.911,26.692,23.696,-18.86
-878.179,315.821,219.703,26.018,24.839,-18.375
-895.806,324.242,222.021,25.04,24.768,-17.833
-896.221,333.272,237.021,24.198,25.492,-17.069
-907.363,345.049,240.739,23.284,25.006,-16.558
-923.31,332.481,255.204,22.916,25.247,-15.95
-915.291,330.743,253.064,22.423,24.718,-15.385
-954.523,328.912,262.396,22.093,24.892,-14.727
-958.177,333.504,276.165,21.467,23.936,-13.794
-973.431,342.151,254.627,20.943,23.627,-12.996
-972.164,326.04,252.698,20.484,22.511,-12.037
-955.351,346.89,263.046,20.2,22.11,-11.085
-937.751,342.052,241.937,19.833,20.857,-10.044
-917.171,313.077,251.886,19.813,20.314,-9.14
-891.634,316.211,223.661,19.486,19.166,-8.45
-886.078,300.377,233.581,19.499,18.696,-7.869
-867.869,296.872,213.698,19.203,17.616,-7.591
-837.908,294.957,234.763,19.05,17.289,-7.394
-825.605,279.39,220.285,18.789,15.962,-7.407
-813.149,280.059,230.141,18.595,15.271,-7.479
-795.978,274.892,204.377,18.0,13.665,-7.905
-808.324,261.626,205.036,17.446,12.956,-8.459
-794.148,291.674,199.487,16.698,11.503,-8.927
-801.874,284.175,211.619,15.883,10.642,-9.397
-809.637,277.98,208.628,14.612,8.915,-10.054
-813.174,292.229,192.209,13.42,8.055,-10.863
-797.459,294.498,181.35,12.086,6.338,-11.715
-834.923,283.641,197.249,11.061,5.735,-12.314
-837.042,304.693,189.781,9.928,4.286,-12.836
-846.52,294.465,195.195,9.29,3.596,-13.129
-843.211,311.918,174.827,8.712,2.345,-13.214
-844.435,297.931,192.85,8.905,2.192,-13.031
-856.405,311.621,142.24,9.15,1.471,-12.644
-841.22,301.289,181.37,9.888,1.584,-12.205
-861.777,305.395,169.306,10.469,0.693,-11.82
-885.184,299.451,175.531,11.5,0.752,-11.424
-893.432,331.639,164.348,12.268,-0.098,-10.75
-908.881,342.152,178.675,12.944,-0.043,-10.109
-940.677,353.296,157.901,12.805,-0.818,-9.442
-981.475,383.536,172.311,12.638,-0.893,-8.89
-983.315,399.365,174.375,11.805,-2.038,-8.157
-1002.02,402.884,179.805,11.184,-2.382,-7.252
-1004.329,406.864,166.684,9.95,-3.59,-6.37
-1030.024,395.617,165.78,9.057,-4.01,-5.414
-1001.659,407.358,138.963,7.834,-5.072,-4.31
-1031.087,399.933,164.283,6.974,-5.587,-2.728
-1010.535,366.254,135.644,6.169,-7.05,-1.025
-1028.206,338.15,136.041,6.149,-7.44,0.476
-996.514,342.782,100.984,6.506,-8.307,1.907
-1013.189,321.692,109.856,7.429,-7.825,3.104
-983.424,289.711,97.052,8.375,-8.502,4.271
-987.464,264.7,103.029,9.871,-8.278,5.509
-961.562,277.382,71.701,11.177,-9.268,6.55
-967.021,264.242,74.976,12.811,-9.282,7.394
-951.763,250.056,40.348,13.899,-9.529,7.447
-992.174,263.724,57.707,14.863,-9.106,7.537
-931.588,246.769,1.673,14.988,-9.338,7.275
-962.753,237.649,23.335,15.1,-8.678,6.523
-907.872,236.022,-2.36,14.553,-8.95,5.603
-930.507,239.727,5.769,14.288,-8.214,4.529
-899.442,233.703,-5.567,13.77,-8.354,3.443
-895.757,222.576,15.319,13.976,-7.631,2.174
-897.614,211.744,7.627,14.075,-7.581,0.751
-878.584,237.653,19.42,14.858,-6.827,-0.453
-872.065,221.145,6.297,15.399,-6.957,-1.45
-907.775,233.093,9.023,16.629,-6.286,-2.17
-865.378,231.797,-2.048,17.667,-6.554,-2.831
-902.227,248.759,6.981,18.598,-5.921,-3.332
-869.691,274.449,23.993,18.987,-6.207,-3.734
-921.173,289.024,43.569,19.465,-5.612,-3.971
-888.93,316.801,48.804,19.619,-6.005,-4.067
-900.864,317.144,52.31,19.928,-5.423,-4.221
-905.409,333.534,40.168,19.76,-5.554,-4.384
-911.239,327.131,55.791,19.882,-4.971,-4.432
-900.026,334.452,46.177,19.626,-5.247,-4.459
-914.74,336.669,50.003,19.691,-4.994,-4.222
-890.488,333.06,29.341,19.738,-5.67,-3.8
-927.742,338.264,41.151,20.282,-5.54,-3.156
-895.416,368.451,27.109,20.889,-6.138,-2.639
-894.144,365.216,41.066,21.545,-5.631,-2.134
-878.918,354.156,50.868,21.765,-6.052,-1.691
-892.519,364.849,44.689,22.394,-5.812,-1.177
-872.75,358.991,45.228,23.024,-6.442,-0.937
-870.199,370.216,46.318,23.856,-6.299,-0.505
-854.915,338.05,37.908,24.513,-7.005,0.338
-881.429,355.484,52.182,25.298,-7.1,1.022
-873.076,343.769,41.9,25.69,-7.995,1.419
-876.594,354.024,42.875,26.304,-7.845,1.853
-857.687,368.253,24.244,26.421,-8.635,2.239
-896.906,375.791,40.205,26.696,-8.586,2.584
-881.306,347.768,18.308,26.52,-9.456,2.995
-892.41,363.284,28.385,26.863,-9.443,3.085
-860.459,358.817,27.39,26.788,-10.075,2.855
-891.219,347.033,31.537,27.207,-9.719,2.242
-874.527,354.555,11.262,27.27,-10.288,2.014
-886.528,331.904,28.854,27.656,-9.846,1.89
-859.564,341.127,9.655,27.558,-10.063,1.552
-865.141,341.68,24.961,27.671,-9.658,1.034
-851.65,336.773,0.573,27.607,-10.143,0.203
-864.5,337.063,14.194,28.165,-9.693,-0.796
-851.398,349.193,3.436,28.983,-9.987,-1.924
-844.318,326.099,-6.843,29.996,-9.126,-3.16
-852.066,330.784,-15.225,30.794,-9.084,-4.692
-884.348,327.315,7.196,31.592,-8.031,-6.292
-857.961,346.912,11.399,31.924,-7.706,-8.139
-875.263,359.452,11.87,32.801,-6.392,-9.774
-902.989,355.085,-4.388,33.223,-6.015,-11.291
-905.583,357.534,-7.247,33.93,-4.418,-12.754
-914.085,377.862,-5.756,34.023,-3.651,-14.276
-946.128,376.267,38.359,34.196,-2.465,-15.741
-959.541,398.37,49.033,34.13,-2.581,-16.952
-968.856,410.505,46.539,34.211,-1.89,-17.969
-970.417,425.398,63.917,33.94,-1.662,-18.915
-1002.002,433.002,69.088,34.038,-0.678,-19.792
-1001.521,419.352,58.034,33.681,-0.896,-20.745
-1015.425,415.523,100.262,33.699,-0.508,-21.501
-997.379,434.458,67.214,33.584,-1.064,-22.147
-996.619,430.402,71.419,34.032,-0.666,-22.094
-984.739,436.409,66.154,34.226,-1.154,-21.921
-996.157,447.689,92.761,34.673,-0.669,-21.658
-982.999,419.653,104.922,34.808,-1.027,-21.207
-995.175,415.055,113.941,35.264,-0.773,-20.423
-969.621,425.125,100.513,35.608,-1.288,-19.558
-979.704,429.441,105.263,36.009,-0.774,-18.497
-978.789,442.52,100.608,36.031,-1.146,-17.411
-1000.575,425.582,106.533,36.025,-0.817,-16.3
-983.872,426.215,113.419,35.292,-1.585,-15.109
-1014.575,415.636,117.29,34.739,-1.889,-13.978
-1002.363,419.72,114.081,33.78,-2.901,-12.752
-1037.643,423.37,129.868,33.02,-2.82,-11.422
-1013.461,406.846,120.093,31.759,-3.616,-10.186
-1014.111,418.266,131.526,30.535,-3.718,-8.846
-1001.944,377.433,121.59,29.12,-4.781,-7.392
-1004.075,378.672,134.097,28.302,-5.128,-5.706
-1000.912,352.755,127.859,27.538,-6.633,-3.802
-981.854,333.229,135.845,27.58,-7.445,-1.597
-966.264,321.363,126.057,27.852,-9.081,0.724
-972.936,285.22,133.874,28.795,-10.056,2.987
-950.353,249.185,111.134,29.981,-11.91,5.105
-956.063,244.142,124.059,31.52,-12.73,7.08
-967.748,215.365,88.392,32.87,-14.619,8.819
-978.404,173.587,94.067,34.319,-15.539,10.452
-962.332,184.795,56.242,35.557,-17.452,11.77
-945.133,142.436,43.444,37.327,-18.545,13.015
-939.041,109.852,38.908,39.123,-20.197,13.717
-940.678,136.588,37.993,40.987,-20.704,13.626
-924.818,118.004,21.838,42.318,-21.702,12.634
-941.597,141.981,24.988,43.603,-21.715,11.436
-913.769,121.835,31.571,43.905,-22.622,10.045
-950.415,135.843,14.449,44.186,-22.732,8.509
-923.629,142.335,11.964,43.785,-23.707,6.658
-927.55,117.115,24.924,43.52,-23.779,4.732
-910.692,136.869,16.605,42.688,-24.598,2.588
-905.38,139.861,32.03,41.942,-24.277,0.059
-906.244,161.248,6.003,40.894,-25.214,-2.407
-934.336,167.848,32.46,39.954,-24.958,-5.183
-904.554,164.948,14.841,38.437,-25.771,-7.246
-913.245,164.367,29.577,37.644,-26.004,-8.628
-930.561,190.293,21.947,36.941,-27.041,-10.072
-923.687,198.656,45.63,36.47,-27.21,-11.628
-919.975,212.363,40.146,35.631,-27.934,-12.921
-927.47,240.908,55.593,35.007,-27.823,-13.97
-939.089,244.348,41.058,34.349,-28.558,-14.598
-933.606,259.307,62.003,34.03,-28.419,-15.138
-969.051,256.186,60.652,33.275,-29.415,-16.003
-967.027,254.875,78.528,32.915,-29.689,-16.946
-963.37,270.611,85.073,32.094,-30.835,-17.755
-962.966,284.783,67.88,31.886,-31.023,-18.29
-972.287,278.469,81.795,31.527,-32.225,-18.96
-1003.513,294.865,99.6,31.749,-32.385,-19.624
-1000.687,288.369,87.272,32.005,-33.409,-20.572
-1014.825,296.354,96.48,32.668,-33.471,-21.677
-1001.112,318.062,71.36,33.416,-34.065,-22.908
-1013.46,322.526,108.301,34.903,-33.547,-23.917
-987.754,299.366,91.821,36.415,-33.587,-24.677
-1000.266,312.032,116.485,38.56,-32.551,-25.081
-968.809,287.745,98.682,40.842,-31.979,-25.219
-964.341,284.76,138.739,43.36,-30.252,-25.34
-930.114,282.6,141.333,45.582,-29.611,-25.315
-931.122,276.542,153.092,47.822,-27.991,-24.865
-906.93,302.085,146.436,49.814,-27.38,-24.152
-901.587,298.124,162.283,52.001,-26.133,-23.023
-869.979,325.468,173.611,53.49,-25.837,-21.682
-855.757,323.163,176.752,54.784,-24.555,-20.356
-843.61,345.083,177.757,55.137,-24.164,-19.195
-838.031,341.624,231.785,55.087,-22.852,-18.096
-811.678,353.948,215.417,54.269,-22.613,-17.104
-798.062,337.027,237.627,53.471,-21.291,-16.137
-778.722,332.359,227.589,52.177,-20.934,-14.911
-753.731,326.945,250.051,51.027,-19.898,-13.661
-724.588,330.185,222.142,49.723,-19.822,-12.207
-701.443,321.91,251.469,48.855,-18.75,-10.516
-661.42,311.95,246.959,47.708,-18.312,-8.887
-680.856,306.278,262.385,46.936,-16.996,-7.472
-658.359,287.317,256.134,46.082,-16.668,-6.371
-649.722,267.411,295.445,45.794,-15.502,-5.34
-649.242,265.22,267.272,45.678,-15.1,-4.22
-669.641,265.818,264.497,46.041,-13.709,-3.056
-649.372,247.334,277.353,46.303,-13.268,-2.363
-673.293,229.374,293.394,46.538,-11.726,-1.984
-681.518,236.515,277.378,46.315,-10.959,-2.06
-688.225,232.715,292.032,46.238,-9.374,-2.555
-706.409,212.096,279.376,45.736,-8.593,-3.036
-704.619,255.026,287.615,45.496,-7.085,-3.583
-701.047,230.067,283.547,44.987,-6.391,-4.243
-698.848,239.438,291.583,44.569,-4.807,-5.16
-693.286,242.687,280.215,43.628,-4.162,-6.248
-676.498,232.68,298.811,42.907,-2.718,-7.392
-660.85,223.258,255.888,41.766,-2.279,-8.71
-655.438,237.759,267.983,40.746,-0.703,-10.109
-626.305,226.772,262.298,39.325,-0.194,-11.665
-646.034,232.722,285.577,38.181,0.893,-13.145
-635.416,221.265,288.282,37.0,1.16,-14.229
-614.856,239.776,303.901,35.997,2.23,-15.017
-603.038,221.726,297.675,34.578,2.242,-15.67
-622.802,224.701,313.727,33.671,2.536,-16.235
-588.872,230.408,325.159,32.806,1.469,-16.54
-608.267,244.718,349.363,32.487,1.278,-16.382
-570.07,220.697,329.732,31.899,0.015,-16.018
-584.356,228.419,330.796,31.647,-0.198,-15.507
-562.6,232.177,321.213,31.188,-1.374,-14.771
-563.025,239.109,345.322,30.95,-1.622,-13.844
-523.862,226.546,353.809,30.328,-2.44,-12.816
-542.7,214.796,339.74,29.958,-2.355,-11.737
-518.646,205.576,326.651,29.108,-3.007,-10.404
-519.644,198.782,332.731,28.67,-2.722,-9.249
-483.908,174.172,316.721,27.771,-3.212,-7.983
-495.497,177.471,325.029,27.161,-2.762,-6.921
-460.799,138.62,301.258,26.207,-3.167,-5.994
-481.153,155.749,324.455,25.298,-2.736,-4.999
-437.551,142.837,312.506,23.893,-3.03,-4.179
-437.648,133.863,300.055,22.5,-2.405,-3.348
-432.476,143.492,293.561,20.505,-2.827,-2.387
-424.066,133.182,309.925,18.591,-2.563,-1.775
-412.832,95.529,308.575,16.347,-3.597,-1.231
-434.81,107.399,320.284,14.416,-3.899,-0.942
-431.766,98.943,305.13,12.481,-5.528,-0.83
-467.545,95.938,331.843,11.283,-6.213,-0.66
-455.995,90.711,332.497,9.718,-7.686,-1.007
-472.939,82.412,323.243,8.507,-8.613,-1.426
-502.105,85.255,323.522,7.354,-10.827,-1.858
-525.248,91.568,347.294,6.645,-12.445,-2.689
-511.15,78.414,336.857,5.763,-14.959,-3.505
-546.638,76.319,333.246,5.591,-16.418,-4.631
-548.067,83.393,297.442,5.034,-18.456,-5.734
-599.405,81.822,294.392,4.53,-19.365,-7.118
-613.904,63.834,271.529,3.326,-21.282,-8.509
-606.772,78.694,260.107,2.225,-21.985,-9.672
-631.949,102.478,254.187,0.495,-23.555,-10.685
-657.839,114.724,245.577,-0.816,-24.17,-11.638
-629.116,112.188,216.529,-2.513,-24.903,-12.224
-631.286,118.506,204.548,-3.551,-24.313,-12.52
-632.229,105.951,186.572,-4.74,-24.704,-12.547
-682.932,112.23,218.628,-5.57,-24.177,-12.367
-685.892,107.346,174.171,-6.365,-24.393,-12.168
-675.858,120.883,178.751,-6.844,-23.493,-11.503
-667.52,120.509,182.34,-7.572,-23.126,-10.565
-692.47,121.788,211.66,-8.145,-21.906,-9.331
-713.139,109.551,210.208,-9.518,-21.553,-7.907
-724.703,118.363,254.009,-10.714,-20.853,-6.615
-729.417,111.017,278.464,-11.93,-21.416,-5.234
-774.978,86.534,309.556,-12.594,-21.507,-3.616
-820.813,101.888,306.747,-13.238,-23.21,-1.806
-871.187,75.678,346.641,-13.26,-24.637,-0.292
-874.491,69.826,320.448,-13.59,-27.142,0.722
-926.316,55.215,326.881,-13.278,-29.109,1.268
-944.38,54.049,308.215,-13.05,-31.957,1.84
-993.116,45.405,305.54,-12.754,-33.729,2.416
-1005.544,30.089,299.779,-12.936,-36.381,3.002
-1026.24,30.786,322.967,-12.942,-38.494,3.473
-1040.727,17.737,304.261,-12.894,-41.449,3.891
-1079.096,10.243,313.981,-12.6,-43.167,3.866
-1055.205,-12.405,275.165,-12.554,-45.299,3.49
-1082.738,-9.204,259.944,-12.144,-45.921,2.421
-1076.889,-6.545,206.476,-12.024,-46.96,1.112
-1095.014,-10.052,217.862,-11.59,-46.954,0.073
-1095.571,-0.515,184.865,-11.327,-47.635,-0.731
-1094.378,3.897,182.426,-11.191,-47.195,-1.311
-1063.812,0.834,172.113,-11.624,-47.573,-2.122
-1127.257,-6.015,170.199,-11.971,-46.854,-3.207
-1111.854,-10.235,141.244,-12.555,-47.025,-4.191
-1167.51,-0.416,136.769,-12.568,-46.376,-5.045
-1154.899,0.945,114.518,-12.578,-46.338,-5.774
-1210.935,46.959,127.645,-12.464,-45.391,-6.399
-1195.339,30.175,110.343,-13.157,-45.452,-6.924
-1207.704,63.415,116.294,-13.422,-44.339,-7.081
-1196.086,48.371,101.172,-13.982,-43.958,-7.105
-1219.234,56.356,125.022,-14.709,-42.824,-7.052
-1222.548,50.063,104.264,-15.609,-42.899,-7.01
-1203.05,34.359,105.714,-15.516,-41.991,-7.084
-1204.052,35.421,60.668,-15.126,-41.827,-7.242
-1209.997,11.984,72.349,-13.967,-40.665,-7.703
-1201.986,24.717,92.742,-12.798,-40.594,-8.177
-1195.546,55.246,106.789,-11.008,-39.591,-8.702
-1188.585,38.089,71.895,-8.928,-38.931,-9.115
-1172.054,56.946,100.967,-6.193,-36.914,-9.513
-1165.262,44.122,119.565,-3.366,-35.363,-10.108
-1151.067,29.232,124.14,-0.524,-32.52,-11.071
-1109.574,24.984,115.888,1.88,-30.761,-12.298
-1104.254,22.339,126.687,4.575,-28.004,-13.499
-1064.624,30.169,128.929,6.885,-26.076,-14.356
-1059.169,53.089,159.13,8.813,-23.56,-14.895
-1028.778,67.122,142.592,10.139,-22.254,-15.366
-1041.61,68.105,181.195,11.532,-20.368,-15.763
-1040.233,72.536,168.977,12.336,-19.937,-16.291
-1039.761,113.535,201.626,12.936,-18.996,-16.899
-1021.86,95.484,177.814,12.751,-19.462,-17.961
-1026.816,159.676,217.015,12.664,-19.143,-19.376
-1036.982,163.692,214.973,11.564,-20.141,-20.625
-1073.069,176.693,235.342,10.279,-20.469,-21.881
-1064.747,185.065,212.351,8.192,-21.927,-23.253
-1101.941,213.072,230.5,6.356,-22.487,-24.489
-1114.313,216.347,229.824,4.648,-23.811,-25.391
-1135.249,249.942,269.128,3.693,-24.22,-26.118
-1143.154,234.753,247.953,2.692,-25.633,-26.817
-1177.832,226.267,250.369,2.953,-26.458,-27.543
-1162.614,246.507,234.644,4.562,-28.072,-27.971
-1191.319,236.3,266.905,7.685,-28.654,-28.369
-1182.093,237.889,236.863,11.052,-29.403,-28.878
-1214.741,255.294,273.299,15.187,-28.598,-29.206
-1178.505,256.077,261.512,19.125,-28.48,-29.356
-1209.919,268.336,255.473,22.666,-26.974,-29.358
-1186.75,299.486,243.956,25.108,-26.549,-29.252
-1220.68,324.955,259.994,27.324,-24.963,-28.924
-1204.258,338.446,233.155,28.941,-24.05,-28.386
-1206.149,365.29,266.843,30.399,-22.066,-27.592
-1187.627,386.896,284.014,30.612,-21.065,-26.708
-1205.452,406.432,285.426,30.513,-18.844,-26.059
-1157.871,414.755,281.647,30.131,-17.433,-25.106
-1185.812,395.604,318.956,30.127,-14.853,-24.032
-1162.715,400.825,305.438,29.699,-13.254,-22.807
-1189.342,387.825,313.521,29.265,-10.606,-21.604
-1170.554,372.58,328.262,28.534,-9.009,-20.427
-1182.117,376.806,354.652,28.712,-6.626,-19.19
-1147.093,385.773,347.433,29.165,-4.753,-18.194
-1167.146,352.005,384.366,30.078,-1.941,-17.322
-1160.785,343.442,376.878,30.791,-0.04,-16.602
-1174.67,340.541,414.879,31.844,2.924,-16.091
-1170.566,313.555,409.16,32.982,4.665,-15.665
-1171.958,315.443,420.035,34.721,7.496,-15.35
-1147.346,296.911,416.001,36.058,9.712,-15.027
-1160.831,291.622,450.312,37.517,12.523,-14.895
-1136.131,298.663,445.633,38.452,14.49,-14.749
-1141.042,301.537,459.743,39.327,17.475,-14.656
-1125.838,302.406,462.914,39.345,19.324,-14.403
-1143.35,303.827,459.711,39.379,21.758,-14.221
-1111.264,294.737,458.527,38.571,23.106,-14.039
-1127.175,301.146,448.681,38.475,25.177,-13.885
-1120.989,284.82,441.002,37.993,26.279,-13.744
-1129.478,300.341,456.174,37.844,28.093,-13.69
-1100.137,318.198,426.006,37.082,28.771,-13.695
-1130.016,312.191,438.712,36.229,30.155,-13.702
-1103.131,315.942,415.332,34.916,30.236,-13.798
-1116.251,314.823,448.268,33.703,31.269,-13.95
-1097.095,300.202,415.512,32.261,31.227,-14.058
-1139.019,300.607,411.409,31.068,32.078,-14.09
-1119.473,284.094,392.744,29.471,31.826,-14.131
-1143.283,278.548,409.117,28.307,32.413,-14.011
-1116.562,296.729,414.127,26.97,31.946,-13.999
-1117.957,295.417,425.884,26.352,32.435,-13.96
-1109.834,273.598,422.272,25.511,31.66,-14.081
-1124.461,268.194,426.823,25.427,31.609,-14.452
-1076.063,262.875,403.982,25.15,30.262,-14.719
-1099.92,259.636,427.582,25.394,29.554,-14.867
-1063.457,278.077,397.533,25.466,27.608,-14.738
-1082.976,282.559,431.527,25.568,26.445,-14.37
-1071.031,280.691,418.277,25.187,24.153,-13.849
-1106.548,277.746,420.752,24.957,22.648,-13.383
-1059.841,267.285,401.057,24.216,20.27,-13.026
-1119.442,289.767,402.916,23.764,18.747,-12.629
-1075.106,278.057,386.976,23.054,16.286,-12.278
-1062.779,261.662,364.942,22.767,15.348,-11.964
-1020.441,263.292,357.111,22.131,13.479,-11.559
-1036.495,247.627,328.097,21.757,12.745,-11.17
-1020.106,223.525,301.664,21.486,11.401,-10.667
-999.766,222.008,309.874,21.843,11.285,-10.255
-993.939,206.451,275.112,22.22,10.363,-9.769
-1008.541,198.176,286.81,23.096,10.769,-9.423
-983.736,176.378,249.24,23.564,10.492,-9.318
-961.59,191.648,267.088,23.86,11.507,-9.566
-959.104,178.611,283.072,23.459,11.881,-9.898
-984.557,170.11,266.103,22.969,13.348,-10.68
-960.27,199.845,272.272,22.0,13.665,-11.601
-974.828,177.199,268.749,21.071,14.96,-12.533
-933.041,164.101,259.649,19.761,15.41,-13.435
-959.423,159.517,287.634,18.768,16.803,-14.143
-931.652,124.85,294.94,17.893,17.008,-14.779
-964.273,148.073,295.653,17.71,18.04,-15.35
-909.634,134.635,272.176,17.639,17.993,-15.754
-922.201,115.775,288.518,17.59,18.896,-16.081
-919.689,109.329,266.763,17.406,18.586,-16.253
-928.088,118.748,302.364,17.577,19.273,-16.214
-925.919,121.119,280.541,17.027,18.818,-15.965
-923.611,115.989,281.587,16.805,19.165,-15.713
-903.581,114.211,287.187,16.241,18.574,-15.402
-934.767,132.902,293.292,15.899,18.894,-15.073
-903.884,124.426,300.506,15.228,18.113,-14.719
-924.7,122.032,293.106,14.931,18.355,-14.574
-903.716,118.126,276.387,14.601,17.774,-14.503
-907.844,139.521,298.463,14.497,18.147,-14.544
-894.251,118.349,283.45,13.784,17.499,-14.724
-911.378,113.882,276.394,13.238,17.767,-14.873
-876.363,99.611,270.764,12.347,17.066,-15.067
-891.038,125.803,282.268,11.802,17.226,-15.228
-883.152,118.549,269.725,11.105,16.201,-15.376
-881.772,142.417,298.697,10.69,16.303,-15.628
-872.147,124.546,284.483,9.981,15.372,-15.932
-896.463,110.751,303.861,9.576,15.292,-16.244
-881.557,115.171,272.626,8.755,14.206,-16.403
-910.934,122.84,295.056,8.182,13.962,-16.56
-893.517,131.7,289.648,7.463,12.487,-16.491
-914.224,125.238,300.176,7.047,11.76,-16.497
-907.785,150.976,317.447,6.359,9.869,-16.376
-915.617,164.026,314.793,5.971,8.935,-16.368
-919.86,151.573,312.503,5.353,6.906,-16.234
-964.01,147.467,330.286,4.675,5.86,-16.135
-926.0,126.204,323.311,3.527,3.466,-16.073
-963.238,128.103,327.383,2.846,1.887,-15.932
-954.804,132.514,325.295,2.208,-0.572,-15.885
-953.767,120.193,313.778,1.915,-1.86,-15.644
-945.739,117.649,302.539,1.571,-4.117,-15.269
-939.337,113.212,296.305,1.565,-5.319,-15.234
-917.241,117.832,273.45,1.248,-6.969,-15.277
-906.78,99.448,283.557,1.193,-7.404,-15.4
-897.197,84.121,253.965,0.773,-8.626,-15.444
-899.796,107.393,249.287,0.445,-8.479,-15.476
-866.866,67.696,216.711,-0.199,-9.368,-15.524
-894.305,75.056,228.734,-0.545,-9.185,-15.43
-857.337,73.034,212.362,-1.287,-10.098,-15.376
-872.542,71.86,230.274,-1.744,-9.814,-15.171
-857.101,69.624,199.425,-2.469,-10.477,-15.181
-860.0,67.377,223.31,-2.926,-9.935,-15.08
-842.497,58.46,192.496,-3.922,-10.496,-15.096
-853.003,55.305,196.659,-4.575,-9.818,-15.461
-845.489,45.001,194.672,-5.681,-10.156,-15.518
-826.538,44.551,201.987,-6.54,-9.617,-15.834
-844.689,16.683,191.405,-7.253,-10.018,-16.161
-828.248,12.736,209.727,-7.396,-9.529,-16.375
-824.976,17.084,200.117,-7.773,-10.286,-16.529
-841.444,18.47,186.596,-7.817,-10.124,-16.821
-800.89,11.105,172.962,-8.011,-11.14,-17.014
-844.971,7.497,205.32,-7.797,-11.278,-17.289
-815.611,20.547,181.759,-7.84,-12.582,-17.373
-858.318,26.494,179.325,-7.603,-13.063,-17.541
-826.122,37.351,187.333,-7.646,-14.477,-17.841
-863.362,33.056,176.855,-7.589,-14.884,-18.221
-865.455,55.891,149.713,-7.792,-16.317,-18.451
-874.651,58.432,168.73,-7.434,-16.753,-18.695
-853.411,47.217,140.217,-7.047,-17.701,-18.963
-872.148,64.154,140.21,-6.312,-17.431,-19.301
-873.961,61.102,135.985,-5.782,-18.13,-19.7
-889.122,92.114,147.091,-4.841,-17.463,-20.082
-890.825,110.063,106.827,-3.858,-17.831,-20.416
-899.61,99.968,114.408,-2.134,-17.143,-20.768
-894.605,98.254,106.571,-0.5,-17.146,-20.98
-915.457,106.938,114.986,1.609,-16.054,-21.078
-893.538,112.248,91.045,3.312,-15.666,-21.32
-919.374,124.882,123.863,5.323,-13.894,-21.471
-893.954,139.321,78.599,6.86,-13.176,-21.29
-952.009,157.326,111.815,8.294,-11.695,-20.651
-928.068,170.358,124.416,9.435,-11.373,-19.917
-963.115,168.188,130.815,10.61,-10.153,-19.284
-947.278,197.063,128.705,11.425,-10.023,-18.812
-1001.854,197.419,150.664,12.505,-8.947,-18.372
-991.2,199.233,153.454,13.373,-8.823,-17.715
-1024.995,219.851,162.542,13.917,-7.704,-17.116
-1016.5,228.193,172.044,13.884,-7.844,-15.947
-1038.894,253.18,203.718,14.131,-7.062,-14.824
-1023.219,237.458,207.879,14.279,-7.204,-13.941
-1050.15,228.806,225.092,15.022,-6.089,-13.208
-1018.648,222.809,220.291,15.552,-5.949,-12.531
-1023.998,237.017,242.185,16.267,-4.528,-12.054
-993.41,236.335,227.695,16.834,-4.13,-11.386
-1006.891,253.135,232.867,17.786,-2.845,-10.319
-1004.272,241.534,211.095,18.778,-2.534,-8.631
-1016.029,217.323,226.311,19.344,-1.163,-7.284
-995.119,167.826,197.983,20.022,-0.677,-5.83
-1010.143,159.486,206.931,19.356,1.159,-5.081
-1028.386,171.247,213.762,19.53,1.087,-3.477
-1036.399,231.067,186.995,24.181,3.052,-0.994
-1012.017,240.909,170.174,27.427,4.204,1.474
-1030.049,259.228,185.273,28.556,6.679,3.373
-1032.349,262.455,167.471,27.899,7.873,4.509
-1063.889,260.312,182.555,27.636,9.708,5.348
-1027.761,284.446,186.126,26.132,10.271,6.276
-1043.084,305.935,215.839,24.734,11.835,7.359
-1046.788,281.894,211.163,23.252,12.514,8.499
-1056.172,290.045,233.347,22.699,14.039,9.361
-1054.378,230.083,239.718,22.258,14.385,9.968
-1066.53,222.286,298.265,23.227,15.521,10.441
-1050.688,193.138,290.422,24.629,15.803,10.983
-1085.766,249.182,364.335,26.731,15.9,11.559
-971.342,257.278,246.461,27.361,17.894,11.394
-1032.256,252.96,198.95,26.734,21.081,11.746
-1108.616,184.496,235.479,25.661,19.834,13.313
-1136.576,160.851,269.17,26.299,18.207,12.849
-1070.032,166.914,242.013,29.385,16.984,11.467
-1058.621,223.799,307.687,33.009,18.787,11.276
-1047.811,237.73,262.394,32.517,17.809,12.97
-1092.842,272.383,255.008,31.451,17.797,12.991
-1084.541,261.285,231.476,31.464,16.502,12.843
-1093.823,286.303,252.952,31.788,16.789,13.229
-1082.209,261.131,237.08,31.448,16.242,13.402
-1097.381,269.214,258.219,31.924,16.611,13.916
-1102.931,261.222,251.671,33.113,15.761,14.619
-1116.333,243.306,249.741,36.257,16.017,15.382
-1085.614,254.166,248.223,39.885,15.953,15.731
-1142.234,262.746,258.579,44.268,17.229,15.926
-1115.6,260.526,276.483,48.484,17.497,16.176
-1128.321,279.884,297.247,52.788,19.058,16.446
-1122.894,282.631,288.126,56.545,19.784,16.763
-1139.101,316.407,302.211,60.36,21.708,17.14
-1128.335,334.678,286.589,63.184,22.321,18.128
-1151.107,368.662,321.112,65.226,23.928,19.204
-1168.592,375.976,308.765,66.114,23.933,20.229
-1178.34,366.632,293.249,66.66,24.452,21.236
-1148.341,369.418,251.476,65.689,24.794,22.413
-1197.457,358.103,243.82,63.673,25.218,23.994
-1199.279,380.339,213.11,59.976,23.908,25.913
-1223.602,413.524,251.122,56.554,23.816,27.68
-1186.88,429.013,261.822,53.383,22.654,29.982
-1211.374,454.089,253.509,50.348,22.863,32.147
-1167.443,443.484,255.386,47.542,21.921,33.652
-1184.884,444.224,259.75,46.961,21.761,34.57
-1157.651,403.782,268.03,46.438,20.747,35.401
-1173.449,396.038,287.43,46.214,20.468,35.858
-1154.389,381.129,281.495,45.592,19.155,36.668
-1175.173,377.078,283.997,45.931,19.245,37.684
-1149.087,364.955,274.006,46.606,18.04,38.849
-1195.548,352.838,317.162,48.263,17.651,39.95
-1198.257,351.01,297.191,50.564,16.03,40.945
-1197.982,334.833,301.664,53.897,15.37,41.628
-1177.436,315.035,298.153,56.533,13.825,42.246
-1190.106,344.846,335.974,58.662,13.315,42.695
-1145.882,334.107,312.632,59.371,11.805,43.558
-1160.904,349.016,331.893,59.476,11.513,44.224
-1146.072,325.146,302.989,58.849,10.015,45.029
-1154.424,332.913,321.991,58.795,9.194,46.042
-1112.554,347.666,284.706,58.58,7.015,46.927
-1130.11,352.571,297.224,58.866,6.26,47.759
-1103.509,353.974,283.487,58.585,4.297,48.57
-1127.587,371.966,254.949,58.276,3.251,49.502
-1087.766,367.183,222.238,56.663,1.982,50.471
-1109.729,390.126,207.988,54.79,1.981,51.062
-1081.292,404.165,193.726,52.861,1.122,51.719
-1091.84,416.348,207.011,51.432,1.349,52.261
-1051.316,410.085,197.984,49.859,0.52,53.209
-1042.747,402.997,199.516,48.467,1.102,53.841
-1019.371,375.15,161.874,46.619,0.928,54.443
-1018.439,347.866,165.228,44.984,2.022,54.896
-1017.319,342.361,137.668,43.673,1.979,55.336
-1020.115,354.127,163.222,44.03,3.002,56.216
-1008.862,342.499,171.639,44.96,2.564,57.479
-1004.669,341.947,211.759,45.778,3.198,58.766
-971.605,345.583,225.455,45.196,3.677,58.843
-993.013,310.045,248.62,45.598,4.573,57.73
-920.006,291.548,219.014,46.356,4.798,56.771
-901.542,296.876,230.46,48.309,7.373,56.2
-864.431,272.431,226.764,48.767,8.762,56.153
-881.737,276.506,248.337,48.359,10.261,55.791
-866.129,271.281,245.431,47.022,9.982,55.181
-882.311,326.628,246.479,46.058,9.709,54.648
-836.632,348.078,177.932,44.462,9.45,53.97
-812.836,371.172,199.114,43.13,11.387,53.268
-788.657,424.368,228.887,40.635,13.538,52.154
-785.058,445.297,256.021,37.77,16.03,50.925
-711.019,456.104,201.088,33.728,18.195,50.648
-798.508,459.891,313.598,31.536,21.221,49.901
-750.375,491.9,289.247,32.96,19.589,49.718
-767.163,469.281,260.909,34.576,23.126,48.882
-762.865,399.138,205.451,34.86,24.01,47.245
-792.034,299.534,236.311,34.609,24.121,45.473
-772.06,219.071,227.97,33.852,22.583,42.559
-799.245,133.391,241.794,34.65,20.253,39.746
-747.613,104.98,200.837,36.274,15.446,38.296
-776.958,119.686,145.42,38.947,12.349,38.802
-722.762,104.881,122.351,43.185,8.263,41.582
-697.342,134.281,111.767,51.33,6.233,45.311
-664.9,140.392,119.095,60.653,4.391,48.343
-673.77,129.793,96.11,68.61,4.284,48.42
-664.625,131.339,82.845,74.354,2.944,46.62
-704.697,138.118,98.302,77.849,2.791,44.801
-699.652,170.384,86.621,78.48,0.915,43.119
-727.888,205.747,105.206,77.538,-0.493,43.318
-753.767,285.74,96.317,75.901,-3.084,45.368
-744.929,363.203,75.35,74.925,-3.155,47.102
-749.134,423.497,64.181,73.286,-3.13,47.418
-829.87,448.209,74.992,71.982,-2.214,46.284
-838.266,412.329,58.734,71.779,-4.901,45.073
-874.174,370.546,64.608,72.701,-8.26,44.997
-883.879,300.263,84.15,73.022,-13.944,45.992
-878.692,272.551,129.7,73.803,-19.384,48.447
-858.501,200.31,138.411,75.358,-25.289,52.256
-845.289,164.758,146.441,79.719,-27.373,56.334
-821.673,173.691,116.314,86.56,-28.685,59.019
-853.853,196.535,120.63,94.831,-28.074,59.928
-827.714,200.919,115.417,101.873,-29.876,60.418
-843.676,223.97,111.129,107.359,-31.086,61.412
-859.445,188.323,155.575,109.345,-34.788,62.395
-865.712,264.856,98.945,103.485,-40.976,61.739
-777.68,387.646,-35.373,102.29,-44.942,61.294
-817.726,512.011,7.674,120.15,-43.424,63.878
-817.751,610.319,94.428,141.293,-43.359,72.177
-842.786,585.256,191.878,151.919,-42.897,80.217
-849.628,478.207,255.217,151.591,-43.52,80.299
-879.2,433.758,298.362,146.995,-44.199,73.666
-805.692,411.217,268.439,140.684,-46.142,66.211
-761.932,439.182,262.769,135.223,-45.478,61.011
-670.929,446.331,245.089,130.766,-43.341,57.493
-647.639,425.254,239.992,127.685,-37.805,54.482
-593.874,389.836,181.268,124.69,-32.867,51.674
-593.501,343.308,167.338,123.224,-26.845,48.606
-508.184,278.777,116.685,121.828,-23.067,44.939
-487.49,240.587,99.901,121.289,-18.003,40.582
-456.431,230.4,62.582,120.155,-14.277,35.586
-479.7,227.482,102.31,119.344,-9.677,30.615
-439.827,224.821,71.338,118.047,-5.743,25.835
-481.595,276.076,78.489,117.25,-1.426,21.285
-473.025,287.266,69.803,115.893,0.865,17.385
-503.088,330.489,106.665,113.75,3.354,13.61
-493.954,350.32,112.265,109.452,4.192,9.907
-517.336,365.614,161.418,104.757,5.377,6.166
-519.855,393.401,147.228,98.143,5.447,2.719
-541.676,402.77,172.496,91.297,6.952,-0.788
-495.483,402.048,127.453,84.343,7.667,-4.031
-505.118,371.473,151.341,78.019,10.132,-7.284
-510.724,331.014,114.422,70.896,10.645,-10.867
-516.229,312.292,129.808,64.074,11.788,-14.279
-534.022,274.486,136.662,58.23,11.118,-17.045
-554.65,282.18,196.793,55.344,10.766,-18.872
-556.468,311.821,210.087,54.708,8.581,-19.523
-597.328,339.506,213.264,56.757,7.556,-19.136
-584.334,383.957,177.978,59.618,5.324,-18.112
-606.861,392.777,199.969,62.211,4.77,-17.101
-573.763,437.056,184.461,63.443,3.145,-16.304
-616.854,447.857,209.269,63.89,2.757,-15.537
-606.388,457.304,205.798,63.02,0.801,-14.652
-604.736,479.77,246.862,62.331,0.139,-13.436
-582.926,471.73,200.85,61.748,-1.789,-11.759
-623.187,459.567,173.291,62.766,-2.132,-9.695
-589.675,447.139,144.079,64.562,-3.554,-7.441
-632.342,437.566,133.86,67.125,-3.561,-5.437
-609.144,439.228,105.786,68.772,-5.046,-3.826
-664.237,435.105,118.743,70.714,-5.417,-2.589
-627.336,480.873,91.328,72.747,-6.509,-1.074
-667.034,504.346,100.6,75.449,-6.321,0.766
-664.058,499.986,78.937,76.829,-7.116,2.605
-680.082,535.662,104.874,78.119,-6.845,3.868
-684.412,542.328,76.731,78.808,-7.764,4.606
-723.593,555.573,95.552,79.374,-7.458,4.639
-722.89,551.736,99.847,77.878,-8.45,3.896
-789.936,563.891,107.381,75.208,-8.023,2.061
-775.817,529.539,74.257,71.398,-8.699,-0.407
-827.157,557.561,77.071,67.912,-7.854,-3.569
-825.693,537.228,68.347,63.888,-8.22,-6.582
-894.323,591.605,75.51,60.843,-7.277,-9.754
-878.897,564.169,62.437,58.032,-7.683,-12.6
-912.274,549.162,60.91,56.002,-6.601,-15.623
-902.716,546.833,37.568,53.953,-6.609,-18.574
-934.232,521.868,53.518,52.278,-5.572,-21.82
-919.138,520.672,30.54,50.481,-5.961,-24.919
-973.921,543.321,35.948,49.958,-5.277,-27.743
-949.27,557.395,18.64,49.168,-5.918,-29.623
-1008.605,590.204,18.116,48.839,-5.081,-31.169
-1006.951,597.483,-6.41,48.162,-5.6,-32.706
-1036.146,627.14,21.093,47.803,-5.227,-33.977
-1049.356,652.67,-18.464,45.383,-6.313,-35.153
-1083.953,694.596,-28.623,40.276,-5.939,-36.317
-1064.347,720.292,-57.233,32.54,-6.721,-36.885
-1121.343,790.727,-56.287,24.542,-6.497,-36.669
-1100.859,791.616,-71.499,16.34,-7.706,-35.523
-1106.767,808.692,-21.966,9.553,-7.49,-33.924
-1053.131,780.267,-45.982,2.888,-8.257,-32.159
-1047.437,725.412,-34.238,-2.265,-7.241,-30.262
-989.958,702.136,-49.516,-6.838,-7.439,-28.384
-989.571,676.647,-43.18,-10.101,-6.632,-26.154
-961.934,617.499,-67.41,-12.215,-7.58,-23.286
-965.377,571.336,-62.162,-11.805,-7.682,-19.963
-892.878,509.684,-70.636,-9.851,-8.782,-16.102
-869.843,442.544,-28.734,-5.582,-8.323,-12.339
-808.4,398.583,-51.693,-1.0,-8.773,-8.941
-794.788,389.732,-17.617,4.816,-7.87,-5.685
-784.67,356.936,-56.211,11.205,-8.737,-2.399
-793.576,372.79,-36.019,18.586,-8.564,1.213
-739.053,360.288,-65.708,25.675,-9.392,5.186
-759.001,414.785,-53.352,31.884,-8.883,8.815
-742.276,425.608,-67.499,34.4,-10.267,12.236
-771.439,452.901,-74.218,34.873,-9.266,14.178
-753.908,465.943,-121.43,32.544,-9.501,14.842
-805.213,513.048,-124.382,27.826,-8.74,15.29
-835.26,558.119,-164.295,20.463,-10.367,16.509
-883.178,619.891,-130.68,13.364,-11.537,18.123
-877.484,615.122,-171.759,6.173,-14.112,19.967
-899.729,661.906,-111.401,-0.252,-14.814,21.373
-896.689,641.598,-99.241,-7.598,-16.893,23.25
-909.661,623.671,-43.274,-15.655,-17.372,25.02
-841.314,550.705,-102.25,-26.412,-18.175,24.721
-909.71,530.894,-110.28,-32.275,-17.691,23.742
-898.159,511.186,-132.694,-32.898,-17.842,24.537
-924.762,456.52,-107.966,-31.698,-16.411,25.671
-915.209,427.924,-77.369,-30.068,-17.688,26.636
-921.971,415.487,-43.443,-26.923,-17.618,28.099
-843.257,361.217,-59.403,-22.286,-17.261,29.721
-862.919,307.814,-36.347,-18.256,-13.858,29.852
-845.262,291.258,-45.51,-15.868,-12.633,28.818
-867.616,317.16,-42.796,-11.988,-10.95,27.414
-835.268,345.848,-53.748,-8.533,-10.346,26.643
-863.234,370.101,-32.457,-5.531,-8.879,26.538
-832.212,421.811,-66.441,-4.034,-8.612,26.973
-870.985,483.417,-49.795,-2.394,-7.675,26.803
-851.676,524.376,-102.44,-1.155,-8.139,26.514
-877.173,598.514,-59.12,0.622,-7.615,25.769
-870.548,651.212,-86.867,0.572,-8.3,24.706
-881.382,689.841,-100.707,-0.969,-8.175,23.517
-848.585,680.867,-105.789,-1.59,-9.289,23.082
-857.244,673.532,-56.445,-0.87,-8.245,23.286
-823.674,605.873,-32.833,-0.176,-8.661,24.51
-838.777,546.998,-35.835,0.597,-7.544,24.62
-793.495,480.943,-57.633,1.695,-6.965,23.439
-822.41,443.264,-64.934,4.577,-4.961,21.365
-789.77,437.22,-113.262,8.283,-4.576,19.697
-785.648,444.653,-124.149,13.457,-2.338,18.382
-724.374,444.095,-156.291,19.92,-0.791,17.884
-759.918,459.284,-131.778,27.087,3.032,17.949
-696.583,461.738,-183.266,33.566,5.622,18.411
-738.015,468.237,-142.016,40.315,9.076,18.609
-726.384,417.952,-148.332,46.546,10.336,19.144
-728.055,380.923,-127.136,53.921,12.787,19.751
-732.984,392.939,-142.046,62.37,13.253,21.034
-741.268,403.663,-135.695,70.093,15.121,21.75
-700.87,442.42,-180.967,73.311,15.357,21.846
-766.477,537.922,-168.346,73.216,16.107,21.269
-752.344,599.3,-203.385,69.217,14.847,21.61
-747.281,619.179,-189.304,63.628,14.766,23.112
-710.463,638.347,-253.94,55.765,14.771,25.288
-767.35,619.094,-295.856,46.302,16.561,25.517
-793.847,577.406,-262.315,37.151,15.311,24.186
-898.468,557.57,-223.044,30.821,14.156,22.911
-891.228,533.922,-210.515,24.759,10.046,22.451
-877.785,523.409,-195.236,20.237,7.721,21.645
-834.437,542.592,-236.785,16.975,5.328,21.076
-863.727,594.775,-178.87,15.412,4.221,21.397
-833.166,633.403,-190.927,15.141,1.657,24.057
-819.02,603.5,-150.907,15.6,1.443,27.063
-790.227,559.767,-149.452,13.67,0.354,28.542
-848.805,438.456,-100.942,11.246,-0.303,27.277
-874.573,385.253,-93.197,8.653,-4.682,24.487
-895.308,387.73,-71.654,8.013,-7.992,21.122
-892.532,416.423,-75.199,9.11,-13.596,19.115
-873.085,448.084,-52.513,12.679,-17.064,19.362
-816.813,431.805,-73.566,16.587,-19.566,21.084
-822.775,395.819,-33.241,19.711,-19.731,21.805
-791.113,371.814,-40.15,20.876,-20.391,21.016
-811.903,363.124,-13.662,20.936,-19.75,18.562
-783.131,389.999,-58.659,18.77,-20.16,15.817
-818.179,403.892,-93.192,16.945,-18.273,12.636
-786.124,408.75,-114.818,14.983,-17.732,9.786
-852.277,389.26,-102.055,14.118,-16.122,6.985
-839.453,369.145,-107.823,12.62,-16.08,4.105
-862.061,366.125,-102.219,11.454,-14.178,0.995
-834.789,356.538,-124.967,10.501,-13.265,-1.955
-853.347,355.891,-110.23,10.088,-11.153,-4.83
-826.854,360.077,-130.508,10.228,-10.067,-6.656
-847.522,381.402,-122.335,10.851,-7.302,-7.691
-830.262,373.895,-161.252,10.872,-6.421,-8.259
-883.868,413.022,-142.556,11.644,-4.697,-9.001
-861.134,415.816,-121.194,12.298,-4.989,-9.164
-883.275,456.476,-87.532,13.518,-3.806,-9.241
-882.111,471.828,-78.505,13.809,-4.087,-9.595
-913.522,507.734,-38.082,14.478,-2.963,-9.814
-897.473,514.883,-45.971,14.839,-3.682,-9.656
-943.545,531.252,-11.437,15.406,-2.918,-9.071
-938.957,498.782,6.418,15.775,-4.162,-7.902
-974.775,476.803,-0.495,17.414,-4.809,-7.038
-932.445,450.261,2.378,19.448,-7.142,-6.115
-947.462,461.712,10.77,23.102,-7.659,-5.098
-906.117,447.559,5.345,26.904,-9.356,-3.503
-923.715,462.965,32.962,31.379,-9.385,-1.814
-869.491,472.076,4.82,34.972,-10.473,-0.28
-882.144,470.475,10.765,38.407,-10.067,0.838
-837.528,490.734,10.525,40.796,-11.286,2.118
-866.444,506.508,-4.152,43.372,-11.04,2.9
-804.855,490.98,-30.838,45.452,-12.11,3.942
-853.461,524.095,-30.107,47.419,-11.868,4.784
-796.225,508.793,-31.371,48.334,-12.832,5.623
-815.276,519.18,-11.981,49.341,-12.213,5.742
-777.953,520.639,-63.833,49.334,-13.141,5.482
-821.236,560.85,-27.393,49.525,-12.744,4.803
-774.76,534.078,-79.493,48.951,-14.052,4.342
-814.023,569.408,-53.05,48.84,-14.152,4.092
-778.93,563.147,-57.795,48.105,-15.854,4.136
-814.688,577.678,-38.923,47.331,-15.906,3.916
-756.289,592.531,-77.062,46.037,-16.973,3.676
-814.196,599.291,-31.696,45.348,-16.543,3.176
-768.614,587.836,-37.681,44.095,-17.719,3.073
-787.802,587.883,-27.519,43.396,-17.478,3.113
-750.621,624.06,-42.374,42.735,-18.856,3.708
-810.501,601.436,-36.801,42.397,-18.803,4.28
-762.8,612.878,-54.233,41.369,-20.37,4.83
-796.917,624.877,-35.04,40.79,-20.394,5.074
-751.85,588.125,-38.991,39.886,-22.016,5.629
-794.855,617.843,-19.775,40.023,-21.885,6.199
-741.443,607.482,-38.846,39.521,-23.266,6.979
-759.998,579.126,-31.225,39.407,-22.889,7.175
-734.295,570.704,-30.68,38.872,-24.171,7.626
-743.638,595.074,-11.734,38.966,-23.631,7.863
-715.507,577.729,-60.044,38.491,-24.439,8.068
-743.852,574.041,-36.182,38.541,-23.91,7.847
-723.602,535.322,-79.156,38.524,-25.088,7.934
-728.671,530.575,-34.913,39.985,-24.726,8.111
-707.513,550.279,-90.594,40.837,-25.571,8.492
-734.362,561.008,-68.981,42.137,-24.846,8.714
-706.374,547.885,-91.456,42.835,-26.165,9.46
-748.515,583.009,-67.959,43.939,-25.462,9.773
-724.328,559.379,-91.415,44.723,-26.577,9.654
-778.029,585.503,-95.751,45.398,-26.523,9.431
-743.406,583.718,-101.07,45.446,-27.862,9.595
-804.008,615.694,-73.089,45.762,-27.816,10.14
-771.784,607.7,-101.955,45.286,-29.379,10.783
-806.45,609.625,-84.547,45.036,-29.197,10.854
-792.886,642.451,-126.639,43.207,-30.638,10.821
-859.398,671.845,-116.592,41.006,-30.714,10.73
-838.096,679.436,-125.072,38.527,-32.471,11.317
-905.391,707.51,-93.803,37.039,-32.535,11.51
-848.804,713.073,-126.751,34.649,-34.345,11.552
-892.415,700.172,-82.172,32.787,-34.596,10.984
-846.468,664.816,-91.571,30.808,-36.378,10.763
-851.35,688.176,-66.976,30.095,-36.264,11.084
-820.597,658.415,-96.662,29.307,-37.386,12.13
-837.594,634.377,-81.079,29.177,-36.903,12.8
-792.795,622.625,-86.278,28.994,-38.219,13.545
-797.003,633.91,-43.971,29.608,-37.895,14.459
-748.623,622.992,-68.096,30.173,-39.003,15.522
-753.103,640.26,-59.05,32.147,-38.175,16.408
-718.762,608.394,-81.509,33.975,-39.253,17.638
-748.724,603.473,-54.071,36.071,-38.699,18.949
-709.281,612.545,-108.339,36.845,-39.783,20.79
-760.694,614.766,-85.038,37.57,-39.299,22.245
-720.841,622.603,-111.106,38.218,-40.539,23.83
-747.883,647.989,-77.891,39.234,-39.98,25.42
-731.686,677.608,-97.038,39.923,-40.749,27.6
-771.347,681.945,-85.944,40.838,-39.915,29.795
-724.12,675.275,-96.881,40.88,-40.294,32.111
-780.243,680.235,-80.929,41.794,-39.288,34.483
-753.609,688.232,-83.321,42.203,-40.341,37.673
-791.361,698.043,-74.399,42.329,-39.447,40.529
-732.63,738.394,-98.573,40.981,-39.187,43.346
-761.956,740.228,-102.696,40.123,-36.368,46.08
-741.674,746.871,-122.372,38.982,-35.526,49.499
-789.455,764.914,-90.156,39.246,-33.757,53.022
-743.402,749.154,-127.249,40.829,-33.629,57.415
-786.155,774.976,-97.491,43.528,-29.895,60.709
-753.384,755.509,-135.332,44.429,-28.714,64.136
-809.469,755.064,-84.488,45.836,-26.407,67.253
-759.495,727.152,-83.282,48.415,-26.11,70.054
-784.846,721.794,-37.75,52.41,-23.885,72.346
-744.309,722.202,-75.866,54.924,-23.108,74.933
-789.661,712.177,-73.458,56.727,-20.61,76.808
-744.176,707.098,-108.924,56.685,-19.98,77.975
-782.629,713.41,-107.395,56.352,-18.119,78.906
-760.902,734.597,-117.593,55.488,-18.383,81.107
-781.782,760.047,-98.622,55.936,-16.72,83.091
-748.811,754.07,-112.395,56.37,-17.65,85.783
-737.791,761.279,-60.642,56.892,-15.105,86.624
-697.754,761.302,-82.275,56.265,-13.437,86.581
-720.163,789.611,-56.809,55.448,-11.303,87.015
-683.63,778.453,-72.101,53.58,-11.176,87.926
-688.604,765.189,-50.243,52.379,-9.148,88.481
-655.888,773.374,-60.62,49.917,-9.148,88.946
-694.545,790.966,-33.64,47.536,-7.438,88.889
-628.873,808.778,-65.7,44.68,-7.22,88.876
-639.64,841.476,-36.467,41.042,-4.717,87.929
-591.445,887.7,-45.387,35.724,-2.972,87.403
-629.153,908.376,-12.537,31.565,0.605,86.586
-562.947,886.338,21.715,25.846,1.725,85.194
-561.613,876.332,66.56,19.527,3.525,83.367
-476.275,829.733,58.953,13.251,3.422,82.556
-488.791,801.707,145.547,9.06,6.933,80.518
-462.297,808.233,108.989,1.17,7.511,78.187
-495.645,908.903,66.451,-10.589,8.271,75.637
-449.912,962.65,24.765,-17.493,7.32,75.741
-468.584,1046.411,59.166,-18.733,9.105,76.489
-435.556,1051.852,14.091,-19.352,8.812,76.145
-442.877,1039.726,48.407,-21.888,9.751,74.236
-403.75,998.041,26.83,-27.074,7.442,72.07
-426.184,1004.298,39.499,-30.193,7.257,70.006
-422.494,993.263,15.94,-31.029,5.654,68.972
-438.97,988.865,56.124,-31.107,6.316,67.613
-364.504,974.087,24.103,-31.913,4.926,66.801
-418.593,950.881,26.905,-30.567,6.014,65.671
-354.6,926.399,-34.937,-26.529,4.917,65.052
-377.881,885.855,-3.192,-19.159,6.61,63.911
-312.62,806.104,-71.288,-11.752,5.551,64.303
-352.245,781.939,-33.195,-4.032,6.791,64.778
-318.801,745.919,-43.415,2.167,5.746,62.046
-352.945,780.993,21.756,5.717,6.183,59.415
-280.175,817.523,-16.372,7.271,4.598,58.237
-276.534,853.056,12.47,8.426,5.912,58.146
-249.267,904.477,-38.82,8.254,5.308,59.387
-316.234,913.636,-20.107,8.47,5.466,60.911
-288.502,946.984,-76.703,7.751,2.574,60.754
-317.355,946.659,-66.231,7.032,2.027,58.673
-261.026,918.673,-116.841,4.826,0.983,55.779
-316.388,908.447,-66.882,0.37,3.527,54.03
-403.808,916.094,-73.167,-5.363,-0.979,55.584
-409.921,934.77,-193.496,-9.084,-3.071,55.797
-293.83,936.317,-274.519,-11.863,0.083,53.177
-372.426,1001.141,-309.554,-13.549,4.716,51.888
-447.006,1045.443,-328.631,-15.614,4.965,54.426
-527.783,1083.604,-259.67,-15.091,5.93,56.737
-444.632,1048.032,-283.786,-14.157,5.285,54.817
-475.705,997.904,-258.096,-14.526,6.628,52.729
-426.48,953.117,-252.807,-16.426,5.913,54.386
-496.384,914.167,-262.16,-15.01,6.391,56.976
-445.557,904.512,-314.585,-12.017,4.23,58.096
-493.546,906.393,-274.566,-7.758,3.999,57.435
-441.38,892.669,-281.22,-4.178,1.457,56.472
-451.66,919.732,-263.658,-0.431,1.271,54.991
-367.269,890.33,-244.851,1.544,-1.032,54.943
-386.706,872.502,-203.693,3.171,-0.761,56.08
-320.292,868.545,-189.313,5.143,-1.446,56.109
-338.159,875.257,-122.112,7.846,-1.096,55.37
-276.831,893.062,-101.967,9.209,-1.224,53.347
-252.151,916.368,-71.689,10.075,0.748,50.542
-205.846,888.382,-109.457,7.642,1.079,49.256
-250.981,865.456,-106.517,3.971,2.97,49.642
-221.869,827.66,-137.386,-0.432,1.413,49.798
-250.152,837.22,-139.956,-3.353,1.421,49.419
-188.249,817.561,-167.104,-6.069,0.719,48.439
-209.497,834.074,-116.672,-7.226,2.279,46.758
-139.343,817.477,-168.704,-8.334,2.717,45.015
-200.282,791.492,-139.458,-9.46,5.528,42.99
-156.751,742.998,-151.758,-12.213,6.097,41.565
-228.686,736.523,-116.751,-13.469,8.677,40.234
-168.089,715.377,-166.35,-16.158,9.159,39.33
-198.1,724.083,-173.283,-19.036,12.088,38.089
-164.322,753.083,-230.734,-23.151,12.659,37.471
-232.06,779.721,-204.114,-26.43,15.324,36.139
-152.241,746.707,-234.926,-29.273,16.085,33.497
-189.585,747.824,-206.652,-31.275,20.044,30.43
-127.331,729.958,-209.549,-33.879,21.872,27.583
-192.237,710.162,-179.295,-35.678,26.092,23.868
-155.84,680.239,-224.894,-37.22,26.818,20.444
-228.974,700.333,-180.041,-37.627,29.271,17.165
-223.947,703.524,-236.324,-37.916,28.812,14.177
-300.875,715.182,-194.023,-36.335,29.677,10.446
-267.156,738.519,-223.279,-35.274,28.615,6.672
-330.784,751.388,-177.566,-32.554,30.078,2.741
-321.453,790.35,-189.969,-30.162,28.061,-0.388
-393.192,837.393,-143.794,-28.49,28.513,-4.254
-388.445,852.584,-170.448,-28.568,27.075,-7.827
-466.917,924.246,-131.256,-27.493,27.741,-10.612
-464.317,1007.628,-178.879,-27.808,26.576,-12.077
-542.093,1076.764,-137.844,-27.504,28.036,-13.403
-533.297,1113.09,-178.296,-28.809,26.711,-14.358
-632.351,1186.193,-153.206,-29.697,27.045,-15.491
-607.881,1219.36,-177.478,-30.289,24.529,-16.406
-680.734,1239.833,-136.111,-29.034,23.646,-17.374
-665.913,1215.944,-182.332,-27.448,20.496,-18.105
-732.15,1218.345,-125.512,-25.2,19.477,-19.083
-689.515,1227.648,-151.061,-23.453,16.426,-19.583
-733.133,1274.597,-130.615,-20.292,15.69,-20.247
-686.691,1291.407,-168.755,-18.072,13.075,-20.934
-707.408,1319.061,-139.069,-14.262,13.019,-21.759
-683.763,1301.938,-166.812,-11.223,10.853,-22.124
-713.172,1326.302,-118.633,-8.681,11.126,-22.777
-657.228,1359.481,-147.556,-7.889,8.973,-22.876
-699.75,1391.394,-113.852,-7.26,9.618,-22.765
-613.768,1412.24,-107.517,-7.576,8.344,-21.803
-691.261,1430.172,-65.418,-8.123,9.375,-20.923
-656.708,1458.873,-72.183,-10.575,7.957,-19.466
-718.877,1452.609,-32.937,-12.467,8.916,-18.383
-680.588,1443.001,-24.378,-13.951,6.757,-16.598
-831.35,1454.56,88.682,-15.329,3.756,-14.056
-744.417,1440.317,173.667,-16.009,-3.468,-10.615
-635.487,1392.755,270.794,-14.542,-1.76,-9.587
-595.251,1326.153,284.447,-17.851,-2.601,-8.231
-747.468,1345.512,313.748,-19.908,-6.993,-3.4
-758.037,1338.652,361.078,-19.012,-15.118,1.251
-738.636,1245.598,577.839,-15.028,-20.125,1.571
-599.855,1041.064,686.019,-14.934,-25.444,1.804
-616.495,895.208,788.24,-16.067,-30.204,0.415
-653.117,1025.55,737.261,-14.281,-38.974,1.585
-715.372,1202.335,751.368,-10.751,-44.366,7.24
-528.726,1228.142,736.463,-9.918,-47.734,9.717
-549.704,1344.413,693.953,-12.257,-46.328,12.075
-530.504,1476.473,502.405,-21.529,-50.269,18.638
-609.652,1513.569,452.678,-29.44,-51.588,24.513
-520.351,1452.322,383.487,-35.9,-54.336,26.972
-547.631,1425.103,392.184,-40.698,-54.359,27.946
-489.713,1398.226,317.829,-46.282,-57.635,30.341
-569.976,1432.925,338.679,-49.241,-58.799,33.518
-546.56,1444.001,333.423,-50.738,-62.816,37.418
-594.739,1469.99,416.395,-49.796,-65.268,41.226
-558.605,1478.861,420.058,-50.001,-71.485,45.994
-644.782,1499.106,476.75,-50.484,-76.179,50.889
-641.32,1483.853,516.464,-52.442,-83.76,56.001
-703.297,1471.121,615.589,-53.216,-88.89,60.73
-656.984,1424.78,606.546,-53.888,-96.276,66.075
-722.972,1433.402,669.251,-53.906,-100.875,71.591
-695.763,1417.85,653.567,-55.154,-107.798,77.965
-762.469,1431.122,703.625,-55.55,-111.779,84.192
-680.958,1403.471,679.118,-56.961,-117.704,90.816
-750.955,1386.495,749.587,-57.453,-120.478,97.282
-678.326,1358.718,707.922,-59.828,-125.521,104.288
-716.007,1338.149,778.241,-61.744,-127.893,110.428
-683.318,1257.973,755.337,-64.044,-132.947,116.698
-734.999,1244.505,758.709,-65.287,-135.49,121.935
-665.177,1186.188,701.531,-67.112,-140.328,127.224
-696.044,1185.758,748.017,-68.006,-141.645,131.505
-633.921,1141.477,682.762,-71.423,-145.444,135.742
-686.481,1122.609,701.986,-74.482,-146.443,139.017
-635.81,1098.07,641.269,-77.587,-149.894,141.779
-709.545,1082.552,671.634,-78.426,-150.457,143.195
-646.678,1037.236,627.682,-80.086,-153.962,144.536
-719.324,1055.859,658.819,-80.786,-154.804,144.807
-659.349,1033.451,650.129,-83.178,-158.022,144.996
-743.44,1034.256,676.4,-83.442,-159.409,142.348
-738.267,1107.698,629.054,-83.143,-162.979,141.417
-826.14,1158.777,706.811,-82.257,-163.278,140.677
-813.823,1187.99,627.358,-82.595,-167.426,138.686
-917.021,1268.918,668.546,-82.892,-168.254,137.885
-905.331,1324.047,602.022,-84.433,-171.504,137.443
-1003.462,1393.978,653.9,-84.729,-171.584,136.579
-985.533,1432.421,591.577,-86.087,-174.897,135.446
-1094.748,1450.255,616.24,-87.065,-175.007,134.393
-1057.233,1436.347,557.26,-89.181,-178.962,132.729
-1138.615,1463.491,543.647,-89.401,-179.171,130.928
-1081.553,1415.229,485.024,-90.651,-182.301,129.537
-1130.029,1412.983,493.007,-90.052,-182.203,127.607
-1038.506,1323.596,411.777,-88.423,-184.962,125.885
-1114.685,1334.551,424.823,-85.425,-184.372,123.402
-1011.3,1285.316,356.28,-83.739,-186.756,120.902
-1058.327,1245.41,357.624,-80.711,-185.769,118.137
-951.122,1168.929,262.351,-78.051,-187.641,115.358
-1001.388,1166.373,275.404,-73.258,-185.823,111.683
-893.48,1091.971,210.25,-69.325,-186.888,108.132
-935.338,1077.084,238.089,-64.55,-184.788,104.099
-874.695,1065.64,178.41,-60.691,-186.094,100.1
-898.844,1051.368,227.453,-56.922,-184.087,94.952
-816.973,1039.739,213.54,-55.759,-186.024,89.925
-822.672,997.669,300.708,-54.39,-185.137,84.577
-736.31,933.123,268.55,-55.094,-186.503,79.309
-791.33,904.531,337.126,-54.237,-184.639,74.126
-684.391,880.156,267.97,-53.851,-186.147,69.118
-717.671,916.873,308.442,-52.709,-184.697,63.304
-651.462,908.311,249.23,-53.172,-186.835,57.748
-669.247,923.841,326.122,-52.373,-185.798,51.857
-556.999,871.423,298.294,-53.132,-188.236,46.64
-605.52,839.339,347.99,-53.458,-187.13,41.384
-485.633,799.93,294.33,-55.125,-189.223,36.991
-532.132,799.429,346.623,-55.599,-188.31,32.239
-455.308,752.918,284.283,-54.941,-190.562,28.379
-480.562,749.845,332.048,-52.928,-188.998,24.372
-389.957,733.806,268.293,-51.937,-190.911,20.847
-449.249,725.277,317.862,-50.047,-189.59,17.176
-358.301,686.111,268.001,-50.424,-191.494,14.145
-398.457,638.465,308.515,-48.622,-189.587,10.993
-332.936,597.295,249.076,-46.864,-191.084,8.948
-392.909,598.039,272.442,-44.756,-189.463,5.441
-298.637,576.454,226.351,-45.142,-191.74,2.224
-369.71,581.71,259.366,-44.359,-190.678,-0.822
-290.888,529.541,194.997,-45.138,-192.914,-3.09
-348.143,508.586,265.878,-45.285,-191.737,-5.936
-271.195,457.184,176.369,-46.307,-194.092,-8.441
-346.859,448.777,239.625,-46.243,-192.788,-11.138
-253.976,422.095,187.127,-47.768,-195.234,-13.332
-345.501,417.897,225.466,-48.328,-194.293,-16.082
-253.654,394.525,163.583,-49.95,-197.966,-18.043
-343.22,368.415,199.506,-49.512,-198.14,-20.567
-262.22,320.122,147.251,-50.062,-202.618,-22.695
-343.932,330.943,175.912,-49.688,-203.323,-25.264
-229.66,309.757,115.934,-51.49,-207.609,-27.621
-319.769,329.29,146.061,-51.818,-207.958,-30.731
-213.745,302.67,71.811,-53.095,-211.837,-33.365
-298.739,300.721,103.516,-53.842,-211.182,-36.59
-185.92,301.116,11.867,-56.854,-214.605,-39.133
-286.078,302.271,24.952,-58.743,-213.745,-42.002
-203.201,261.891,-56.408,-61.875,-216.755,-44.282
-281.826,293.214,-34.897,-63.637,-215.368,-47.248
-188.937,272.047,-116.344,-65.765,-217.315,-49.953
-264.232,296.39,-57.112,-65.402,-214.528,-53.095
-177.807,252.14,-158.005,-65.809,-215.853,-55.896
-268.396,244.298,-107.967,-63.695,-213.222,-58.868
-190.696,208.788,-206.64,-63.501,-214.544,-60.544
-261.103,232.669,-116.148,-61.645,-211.505,-63.065
-170.374,233.187,-175.819,-60.416,-212.162,-65.234
-213.022,276.043,-127.304,-57.799,-208.072,-67.595
-103.517,294.928,-188.049,-56.894,-207.522,-69.218
-199.258,315.041,-102.168,-54.022,-202.791,-71.101
-123.462,313.631,-204.554,-51.721,-203.022,-71.48
-242.748,335.328,-152.287,-49.012,-199.065,-72.336
-152.158,318.247,-206.834,-49.368,-200.295,-72.293
-262.865,345.989,-167.626,-47.657,-197.108,-73.929
-160.514,354.664,-228.47,-46.691,-198.114,-75.68
-262.458,379.497,-173.233,-43.586,-193.88,-78.47
-156.994,396.425,-259.731,-42.217,-194.225,-80.446
-293.708,422.081,-217.165,-38.955,-190.743,-82.894
-197.852,358.432,-317.071,-37.831,-192.604,-84.124
-308.76,365.334,-257.19,-36.045,-190.203,-86.274
-225.917,301.604,-348.453,-34.513,-192.938,-88.589
-330.444,324.569,-280.851,-28.818,-191.379,-91.558
-241.568,310.054,-375.168,-23.978,-194.503,-94.788
-392.015,321.203,-322.043,-18.41,-193.369,-100.121
-298.623,330.21,-432.723,-15.843,-198.149,-103.869
-414.565,374.458,-406.779,-12.624,-198.408,-108.326
-305.508,368.169,-505.146,-11.527,-204.21,-112.452
-437.261,443.336,-463.761,-8.471,-204.44,-118.171
-246.653,438.688,-536.764,-5.694,-209.088,-122.811
-340.002,458.356,-471.294,-1.224,-207.394,-126.455
-207.421,430.867,-614.807,0.175,-210.116,-128.52
-299.283,444.322,-548.771,2.95,-207.379,-130.913
-146.17,423.388,-624.375,3.943,-209.798,-132.323
-280.286,463.78,-557.581,7.263,-205.703,-135.59
-79.872,470.914,-624.477,8.778,-207.283,-137.293
-166.799,553.808,-538.309,11.514,-202.466,-140.765
-30.224,526.613,-618.439,11.942,-203.562,-143.654
-125.854,579.124,-537.765,14.219,-199.416,-146.808
5.632,562.075,-597.288,13.825,-200.751,-150.418
-81.006,603.16,-497.084,16.132,-197.203,-153.359
77.164,589.82,-606.035,18.902,-198.963,-154.395
-34.584,603.556,-500.122,24.302,-193.98,-155.703
78.972,577.138,-627.363,28.84,-195.739,-155.884
-24.757,640.197,-565.143,35.495,-191.498,-156.579
58.073,677.284,-753.05,40.529,-193.364,-155.842
-111.078,732.633,-709.412,48.216,-190.783,-154.12
17.011,748.673,-832.627,54.047,-195.017,-152.6
-77.133,799.11,-759.69,63.004,-192.779,-151.987
105.228,800.981,-876.343,68.629,-193.787,-149.604
-35.952,827.613,-876.645,76.459,-188.12,-146.504
61.95,769.96,-1014.587,82.102,-189.33,-141.166
-128.011,755.043,-969.616,89.828,-184.055,-138.572
16.878,748.346,-1116.782,94.649,-185.585,-136.579
-150.195,774.781,-1072.018,100.831,-180.541,-135.53
-17.02,755.052,-1203.404,104.806,-181.566,-133.203
-200.752,772.29,-1125.692,111.613,-175.741,-131.945
-102.339,661.791,-1310.239,117.089,-175.982,-129.538
-322.314,635.419,-1272.154,123.743,-169.563,-128.252
-198.321,579.053,-1434.188,127.933,-170.106,-126.769
-406.102,595.522,-1406.28,137.082,-163.686,-126.75
-245.863,558.388,-1545.061,145.755,-163.106,-126.54
-438.377,603.697,-1505.928,155.875,-155.301,-127.461
-326.052,545.333,-1714.896,161.53,-155.604,-126.054
-551.477,556.539,-1663.539,169.49,-148.631,-125.481
-373.306,558.372,-1841.589,172.908,-148.868,-123.983
-538.1,620.252,-1757.312,179.427,-141.092,-123.752
-362.669,603.13,-1929.186,183.944,-141.44,-121.94
-573.078,630.196,-1850.906,189.95,-132.274,-121.831
-382.855,602.662,-2019.933,192.929,-131.755,-120.099
-608.689,613.372,-1945.041,197.422,-122.417,-119.559
-412.162,562.926,-2080.243,199.27,-120.532,-117.943
-585.461,588.78,-1941.819,206.588,-109.44,-117.972
-372.661,514.321,-2107.804,212.988,-106.974,-115.522
-570.744,531.718,-1998.221,222.966,-95.129,-114.702
-380.543,421.328,-2155.703,229.311,-94.544,-112.295
-614.171,387.473,-2066.104,240.067,-85.585,-111.495
-436.965,275.055,-2272.957,250.125,-87.153,-109.884
-683.073,238.878,-2196.396,264.325,-79.722,-109.041
-489.453,183.114,-2396.313,274.943,-80.8,-108.127
-778.849,252.785,-2296.792,286.357,-72.183,-109.417
-668.038,265.993,-2562.235,289.029,-74.196,-109.239
-1025.951,329.981,-2528.679,291.526,-68.458,-109.763
-957.845,327.837,-2820.187,287.379,-72.3,-110.063
-1304.919,455.441,-2832.398,286.531,-67.697,-111.607
-1229.495,402.415,-3187.257,280.635,-73.771,-113.09
-1622.054,393.029,-3207.999,280.135,-68.416,-118.126
-1451.278,279.982,-3524.625,280.386,-71.108,-121.798
-1865.277,277.111,-3556.204,289.917,-60.557,-127.55
-1778.85,152.994,-3900.866,299.669,-59.135,-133.269
-2188.523,194.19,-3889.261,313.019,-45.117,-141.018
-2035.243,126.705,-4206.678,317.622,-42.126,-147.501
-2402.982,106.386,-4233.892,322.356,-27.518,-157.701
-2252.538,-54.035,-4603.858,320.491,-22.188,-168.006
-2654.976,-180.312,-4536.8,323.765,-3.779,-183.592
-2468.863,-426.69,-4940.599,323.616,2.646,-200.292
-2991.217,-545.024,-4914.414,327.443,25.362,-220.257
-2934.212,-781.039,-5330.373,324.06,34.682,-238.814
-3553.773,-850.661,-5249.165,323.884,60.105,-261.722
-3503.687,-1020.75,-5589.531,315.255,73.419,-286.538
-4161.214,-1143.918,-5355.058,312.549,103.463,-317.478
-4197.977,-1192.318,-5415.01,306.79,121.038,-349.607
-5102.252,-941.158,-5064.655,324.427,153.443,-382.152
-5154.726,-979.448,-5316.062,317.327,166.041,-414.717
-5820.503,-914.665,-4783.801,298.877,198.842,-442.911
-5783.966,-843.552,-4831.436,291.739,213.455,-467.587
-6649.121,-545.719,-4201.388,281.096,246.391,-504.812
-6600.434,-505.208,-4345.77,256.737,255.657,-539.308
-7521.607,-438.1,-3824.524,240.977,286.824,-577.061
-7416.734,-365.423,-3862.361,226.679,298.418,-610.675
-8254.965,0.738,-3189.228,217.16,333.188,-644.239
-8080.29,405.353,-3220.458,189.248,347.313,-671.1
-8972.775,974.083,-2629.975,155.036,387.249,-697.742
-8737.612,1200.152,-2716.513,109.412,397.533,-722.523
-9435.819,1473.457,-1984.017,72.242,435.713,-751.187
-9015.215,1434.179,-1986.999,24.699,446.801,-774.77
-9805.139,1710.914,-1370.012,-12.478,482.968,-800.118
-9344.388,1847.485,-1485.364,-53.637,494.468,-810.298
-10130.081,2160.393,-698.581,-87.799,532.937,-823.348
-9387.975,2244.437,-972.944,-133.901,538.56,-829.854
-10373.649,2529.523,-197.61,-168.24,573.064,-838.774
-9578.73,2622.792,-699.057,-215.937,557.144,-837.614
-10377.543,2919.605,-141.984,-252.374,587.609,-842.398
-9068.135,2916.599,-784.406,-302.821,585.315,-845.642
-9964.589,3018.044,-44.365,-344.612,636.066,-858.762
-8225.221,2776.1,-1050.662,-411.869,635.679,-865.896
-9270.457,2936.461,-409.059,-462.956,711.198,-872.785
-7338.686,2767.203,-1752.943,-554.675,720.607,-859.66
-9004.688,2659.081,-736.769,-627.068,798.233,-858.251
-6509.652,2392.847,-2704.598,-726.229,760.415,-843.379
-9288.92,2042.552,-1432.14,-786.335,839.178,-830.377
-4980.15,1934.848,-4739.717,-905.982,753.885,-799.025
-8817.3,180.881,-6442.03,-943.22,984.643,-771.83
-8047.151,3377.824,-8997.735,-1124.732,713.108,-766.376
-13429.617,-2041.059,-9460.167,-1310.017,894.121,-618.803
-18972.996,-4901.769,-1798.759,-1682.804,472.101,-877.136
-4142.152,-5114.198,1351.488,-1595.788,107.555,-564.321
