acc_x[mg],acc_y[mg],acc_z[mg],gyro_x[dps],gyro_y[dps],gyro_z[dps]
-798.784,-87.234,113.761,-9.982,3.516,0.329
-799.998,-369.297,193.626,-17.53,4.073,-1.822
-803.003,-281.261,159.915,-15.556,3.6,-1.309
-809.017,-325.631,161.999,-16.765,3.372,-1.861
-792.984,-290.998,147.414,-16.131,3.283,-1.522
-817.16,-319.755,163.384,-16.782,2.874,-1.579
-778.308,-272.747,154.435,-17.052,2.766,-1.276
-772.455,-301.282,158.625,-17.852,2.852,-1.45
-743.279,-297.385,172.438,-18.31,3.083,-1.041
-758.213,-292.008,157.97,-18.826,3.102,-1.036
-750.092,-308.429,138.546,-18.938,3.359,-0.658
-747.139,-313.957,152.024,-18.884,3.459,-0.885
-773.635,-329.856,158.989,-18.821,3.61,-0.75
-782.59,-295.57,159.456,-18.468,3.569,-0.91
-770.247,-286.741,140.264,-18.615,3.617,-0.728
-757.226,-287.61,161.062,-19.111,3.493,-0.668
-761.823,-286.128,168.666,-20.234,3.469,-0.162
-791.238,-289.335,162.139,-20.802,3.326,0.091
-773.793,-298.002,139.586,-21.37,3.311,0.541
-784.124,-280.74,143.305,-21.22,3.085,0.707
-787.32,-310.183,144.095,-21.288,2.647,1.09
-795.307,-332.713,130.419,-20.91,2.358,1.367
-792.713,-324.029,154.658,-21.032,2.07,2.016
-788.535,-308.966,121.41,-20.624,1.753,2.415
-772.736,-312.342,147.064,-20.494,1.508,3.091
-780.459,-319.021,169.224,-19.76,1.089,3.566
-781.763,-321.168,154.036,-19.452,0.941,4.028
-796.337,-317.303,135.405,-18.253,0.536,3.829
-792.763,-334.477,141.352,-17.535,0.441,3.943
-806.531,-321.017,144.624,-16.601,-0.028,3.981
-790.653,-315.883,129.379,-16.513,-0.287,4.206
-796.677,-303.536,125.947,-16.056,-0.3,4.22
-794.775,-317.668,138.047,-16.093,-0.148,4.442
-818.402,-313.88,133.45,-15.84,-0.238,4.688
-808.787,-307.757,122.071,-16.457,-0.385,5.276
-835.952,-311.759,106.669,-16.645,-0.635,5.903
-814.666,-340.119,104.347,-17.131,-0.499,6.642
-829.644,-322.204,100.711,-17.047,-0.53,7.236
-821.607,-333.45,105.579,-17.438,-0.413,7.613
-849.701,-319.475,78.518,-17.248,-0.583,7.635
-818.726,-323.476,98.228,-17.682,-0.229,7.652
-831.934,-343.833,92.661,-17.845,-0.308,7.691
-813.228,-334.72,92.609,-18.609,-0.037,8.035
-829.012,-318.234,99.444,-18.573,0.308,8.277
-815.092,-348.51,94.342,-18.69,1.023,8.44
-821.668,-370.387,80.345,-17.66,1.404,8.267
-820.527,-382.496,85.594,-16.683,1.927,8.173
-829.596,-386.012,93.278,-14.731,2.151,7.704
-830.959,-382.612,102.532,-13.234,2.698,7.151
-848.078,-362.176,103.576,-11.396,2.939,6.397
-820.826,-371.41,96.52,-10.551,3.485,6.287
-834.46,-337.302,102.783,-9.6,3.772,6.131
-840.949,-328.328,112.845,-9.877,4.0,6.279
-856.582,-323.414,120.816,-9.734,3.771,6.305
-846.713,-336.664,132.976,-10.453,3.784,6.569
-846.804,-333.28,82.917,-10.429,3.418,6.84
-844.475,-339.905,108.508,-10.852,3.053,7.549
-856.622,-338.43,109.72,-10.529,2.4,8.26
-850.311,-348.481,96.08,-10.35,2.095,8.882
-833.23,-334.228,111.653,-9.242,2.064,8.907
-830.673,-331.809,101.908,-8.721,2.207,8.846
-835.026,-329.977,105.356,-7.987,1.892,8.811
-815.181,-350.803,96.145,-8.4,1.888,9.338
-840.149,-320.999,96.329,-8.642,1.616,9.945
-822.202,-328.973,97.527,-9.552,1.861,10.589
-836.514,-355.305,97.074,-9.596,1.847,11.014
-821.833,-360.428,109.468,-9.69,1.892,11.05
-832.262,-378.927,105.466,-8.628,1.757,10.755
-824.127,-363.007,113.841,-8.004,1.806,10.299
-851.932,-377.761,85.891,-6.763,1.513,9.536
-826.23,-370.976,115.872,-6.281,1.209,9.055
-862.221,-364.404,104.175,-5.502,0.773,8.632
-839.804,-365.873,100.34,-5.379,0.589,8.506
-854.362,-361.677,89.46,-4.72,0.269,8.236
-831.076,-369.321,100.22,-5.314,0.35,7.994
-841.552,-353.212,114.941,-5.538,0.067,7.603
-834.422,-369.886,95.49,-6.338,0.098,7.507
-855.001,-370.445,88.599,-5.759,-0.01,7.059
-841.58,-379.644,112.291,-5.364,0.176,6.533
-871.935,-369.191,99.295,-4.141,-0.056,5.603
-854.297,-386.606,91.006,-3.694,-0.118,4.684
-857.613,-377.394,100.951,-2.956,-0.284,4.084
-850.581,-347.651,108.142,-2.953,-0.118,4.017
-857.803,-342.666,112.239,-2.576,-0.048,3.905
-853.747,-335.694,125.011,-2.81,0.284,3.689
-862.465,-330.024,132.161,-2.328,0.258,3.115
-852.019,-341.89,133.852,-2.559,0.318,2.7
-858.837,-331.263,110.791,-2.013,-0.009,2.554
-853.015,-341.348,116.557,-2.371,-0.197,2.626
-876.575,-339.212,113.381,-2.057,-0.742,2.81
-840.878,-343.386,111.777,-2.008,-0.779,3.177
-867.161,-361.453,124.768,-1.313,-0.92,3.034
-864.997,-343.493,141.155,-1.31,-0.89,2.676
-862.867,-331.617,133.93,-0.825,-0.903,2.071
-887.089,-351.253,132.835,-1.636,-0.734,1.984
-892.579,-311.512,125.805,-1.8,-1.031,2.063
-904.468,-338.977,127.732,-2.289,-0.928,2.254
-882.961,-326.815,113.415,-2.021,-1.452,2.035
-903.682,-341.055,156.565,-2.085,-1.234,1.998
-917.959,-347.81,119.169,-0.897,-2.947,2.029
-876.69,-352.553,101.177,-0.33,-2.36,1.487
-898.253,-340.795,129.111,1.508,-1.113,1.106
-886.028,-337.21,100.982,2.491,-0.982,1.376
-898.978,-321.858,101.427,3.072,-0.778,1.076
-905.978,-325.089,110.787,2.318,-1.038,0.848
-899.805,-307.128,113.549,1.951,-1.059,0.494
-912.048,-310.819,108.841,0.691,-0.841,0.42
-882.498,-292.928,104.907,0.332,-0.603,0.308
-894.637,-326.614,116.904,-0.324,-0.16,0.27
-913.873,-307.39,100.601,0.146,-0.065,-0.347
-895.751,-350.295,114.462,0.246,0.198,-1.033
-881.503,-317.066,111.487,0.929,0.334,-1.731
-892.402,-345.83,112.012,0.935,0.538,-1.737
-871.152,-327.148,98.755,1.508,0.55,-1.747
-881.854,-332.982,109.144,1.407,0.842,-1.438
-897.085,-321.056,105.878,2.014,0.999,-1.722
-873.79,-335.015,129.793,1.902,1.534,-2.062
-881.336,-305.804,107.677,2.496,1.757,-2.652
-871.438,-318.088,108.188,2.14,2.066,-3.049
-877.59,-316.514,117.69,2.131,2.145,-3.282
-870.311,-335.585,122.208,1.523,2.235,-3.156
-879.528,-322.78,109.457,1.806,2.233,-3.014
-871.212,-331.958,142.311,1.658,2.283,-2.775
-901.81,-320.289,110.531,2.389,2.234,-2.767
-866.321,-328.304,117.196,2.591,2.225,-2.827
-863.673,-318.054,129.111,3.184,1.934,-2.862
-882.456,-328.577,136.028,2.992,1.806,-2.724
-867.176,-313.152,144.518,3.25,1.619,-2.648
-879.151,-324.646,130.008,3.027,1.471,-2.469
-886.366,-329.285,113.386,3.573,0.963,-2.353
-867.297,-331.864,124.107,3.285,0.785,-2.267
-863.06,-328.323,119.066,3.957,0.261,-2.466
-867.632,-341.691,125.833,3.914,0.134,-2.756
-879.138,-326.982,111.837,4.509,-0.123,-3.062
-857.827,-337.892,122.481,4.396,-0.247,-3.032
-862.753,-332.285,112.883,4.464,-0.682,-3.031
-857.915,-334.081,108.042,3.622,-0.918,-2.823
-888.661,-327.952,89.358,3.49,-1.373,-2.695
-861.703,-305.317,75.738,3.06,-1.377,-2.641
-895.252,-314.623,78.945,3.306,-1.388,-2.828
-875.282,-321.683,99.74,2.443,-1.376,-2.949
-890.694,-300.823,91.169,2.143,-1.491,-3.047
-882.928,-308.422,112.695,1.775,-0.966,-3.003
-894.11,-315.945,90.109,2.363,-0.697,-3.467
-883.483,-330.677,90.39,1.962,-0.5,-3.79
-894.629,-314.596,74.418,2.195,-0.613,-4.063
-908.685,-328.838,103.737,2.127,-0.438,-3.838
-919.01,-339.079,92.976,3.271,-0.331,-3.756
-892.521,-342.366,89.169,3.936,0.254,-3.874
-899.998,-323.837,102.068,5.19,0.419,-4.334
-892.624,-343.466,118.114,5.741,0.726,-4.653
-888.32,-338.647,101.539,6.555,0.72,-4.93
-883.659,-330.941,104.185,6.443,1.142,-4.903
-882.063,-332.071,114.33,6.767,1.313,-4.9
-888.942,-313.835,121.51,6.318,1.55,-4.595
-917.815,-302.511,120.636,6.364,1.382,-4.641
-864.09,-313.994,120.264,5.866,1.55,-4.566
-901.048,-286.417,125.489,5.997,1.59,-4.904
-875.14,-333.141,127.081,5.372,1.847,-4.872
-891.288,-320.98,118.502,5.314,1.426,-4.759
-872.513,-325.078,127.458,4.7,1.399,-4.33
-902.525,-323.902,128.263,5.125,1.103,-4.187
-861.01,-340.686,125.68,5.048,1.096,-4.368
-884.245,-315.673,121.919,5.484,0.802,-4.788
-870.551,-314.411,133.673,5.036,0.743,-4.874
-900.009,-308.34,119.387,5.027,0.451,-4.771
-878.235,-304.005,136.982,4.342,0.487,-4.298
-895.386,-307.917,139.153,4.284,0.242,-4.132
-879.93,-296.865,138.19,3.457,0.286,-3.917
-885.896,-298.195,122.516,3.446,0.103,-3.814
-878.883,-307.651,124.72,3.099,0.381,-3.742
-883.051,-318.194,109.192,3.518,0.156,-4.027
-881.156,-317.555,114.598,3.08,0.199,-4.304
-892.805,-310.787,116.341,3.071,-0.101,-4.308
-889.586,-307.102,120.658,2.5,0.004,-3.921
-893.361,-303.344,125.425,2.87,0.038,-3.804
-884.907,-306.631,139.97,2.619,0.329,-3.831
-889.995,-310.267,129.567,2.759,0.289,-4.102
-881.546,-308.606,162.062,2.248,0.406,-4.101
-874.932,-296.583,134.503,2.58,0.594,-4.174
-854.892,-283.034,156.958,2.089,1.021,-4.171
-892.214,-300.65,152.148,2.189,0.911,-4.06
-874.617,-303.183,141.519,1.597,0.87,-3.714
-863.176,-298.289,138.781,1.643,0.532,-3.408
-884.345,-314.744,157.623,1.415,0.361,-2.797
-893.356,-308.696,148.224,1.912,0.176,-2.43
-854.779,-315.914,149.363,1.667,0.228,-2.149
-864.509,-301.794,144.268,1.748,-0.062,-1.913
-862.827,-316.296,147.704,0.954,0.164,-1.587
-861.496,-313.779,147.461,0.891,0.362,-1.306
-850.22,-322.398,136.18,-0.064,0.806,-0.989
-863.621,-313.967,141.989,-0.098,0.582,-0.922
-825.986,-344.133,144.378,-0.491,0.632,-0.788
-857.685,-338.105,132.317,-0.211,0.349,-0.811
-843.469,-334.093,147.695,-0.667,0.427,-0.821
-847.404,-323.967,129.001,-0.564,0.27,-0.807
-859.073,-337.282,132.135,-1.056,0.553,-0.548
-858.033,-340.645,115.161,-1.181,0.241,-0.392
-841.484,-339.957,131.807,-2.292,0.264,0.035
-854.546,-332.11,135.384,-2.34,0.113,0.301
-846.347,-316.936,126.788,-2.835,0.198,0.443
-845.795,-331.252,122.788,-2.623,-0.065,0.52
-838.645,-345.277,138.039,-3.106,0.134,0.695
-845.181,-355.381,111.126,-2.608,-0.167,0.91
-825.253,-361.552,130.482,-2.666,-0.192,1.131
-855.249,-365.765,125.884,-2.101,-0.349,1.401
-843.036,-366.157,107.243,-1.923,-0.356,1.735
-843.933,-347.436,123.896,-1.247,-0.302,2.069
-839.589,-357.398,123.004,-1.413,-0.279,2.592
-867.619,-345.648,130.251,-1.16,-0.408,3.057
-845.226,-326.077,123.21,-1.369,-0.18,3.614
-859.243,-335.249,126.253,-0.899,-0.296,4.067
-842.889,-331.033,125.087,-0.841,-0.038,4.662
-857.912,-354.47,115.626,-0.078,0.125,4.977
-852.493,-343.276,98.224,-0.374,0.267,5.342
-849.007,-332.598,100.437,-0.257,-0.031,5.967
-866.989,-335.407,88.531,-1.102,0.082,6.806
-878.151,-361.635,107.656,-1.303,0.221,7.412
-865.564,-365.288,92.35,-1.986,0.737,7.931
-901.063,-367.081,79.853,-1.72,0.952,8.368
-894.021,-378.535,74.552,-1.943,1.333,8.996
-913.188,-384.34,67.126,-1.234,1.392,9.606
-920.646,-405.956,63.133,-1.013,1.658,10.314
-936.808,-395.005,44.307,-0.237,1.84,10.981
-909.294,-397.703,67.943,0.109,2.441,11.807
-940.346,-385.08,64.049,0.906,2.959,12.138
-934.178,-381.562,72.49,0.742,3.388,12.16
-937.531,-396.231,64.229,0.737,3.805,12.113
-913.337,-396.169,60.799,0.155,4.785,12.429
-919.035,-405.306,51.008,0.423,5.512,12.635
-908.521,-405.793,49.221,0.173,6.621,12.672
-937.017,-408.55,53.136,-0.035,7.49,12.601
-940.132,-409.651,33.112,-1.17,8.287,12.79
-935.523,-420.781,27.626,-0.939,8.775,12.839
-937.982,-426.8,26.668,-0.618,9.999,12.836
-948.897,-448.333,25.676,0.662,11.146,12.284
-923.725,-455.381,25.219,0.946,12.094,11.654
-942.206,-463.793,19.805,1.743,12.576,11.146
-932.305,-466.254,35.11,1.784,13.967,11.033
-939.357,-469.159,40.442,2.386,15.611,11.004
-917.194,-455.077,12.864,1.82,16.999,11.437
-948.66,-443.024,-14.451,1.219,17.768,12.306
-948.858,-463.859,-11.476,-0.097,18.363,13.352
-942.762,-444.783,-15.285,-0.767,18.625,14.015
-943.543,-446.723,-17.78,-1.876,19.022,14.581
-938.472,-451.353,-11.775,-1.935,19.221,15.155
-929.957,-479.527,-2.243,-1.887,19.851,15.909
-934.18,-489.023,-10.517,-0.669,20.445,16.151
-924.6,-484.814,-2.129,0.294,21.386,16.166
-925.322,-470.392,7.602,1.902,21.917,15.884
-945.232,-484.705,-3.682,2.846,22.727,15.723
-960.405,-456.003,-13.253,3.984,23.246,15.484
-926.974,-467.839,-9.065,4.484,24.053,15.231
-934.641,-464.043,-11.966,5.904,24.691,15.114
-916.688,-462.475,-10.685,7.135,25.801,14.594
-910.778,-452.082,-4.989,9.509,26.855,13.312
-899.587,-471.228,-27.747,11.136,28.428,11.46
-934.174,-444.522,-34.214,12.416,29.323,9.516
-919.213,-448.077,-2.212,11.987,30.259,8.634
-917.606,-422.649,-4.665,11.614,31.16,8.506
-917.608,-440.906,-14.298,11.164,32.497,8.841
-930.96,-441.829,-34.251,12.439,34.081,8.631
-919.778,-426.364,-64.423,12.926,36.065,8.501
-941.421,-438.921,-69.898,13.045,36.525,9.197
-953.896,-442.536,-86.177,11.908,35.678,11.037
-984.477,-448.69,-99.896,12.263,34.031,13.632
-980.415,-454.771,-92.234,13.996,32.899,16.095
-1005.299,-484.689,-93.775,19.323,31.029,17.077
-962.772,-493.165,-74.178,27.687,29.992,15.072
-941.364,-475.601,-102.669,35.09,30.318,9.96
-901.697,-475.197,-75.964,37.463,29.887,6.123
-906.59,-444.559,-58.901,35.438,29.263,5.413
-856.303,-455.155,-47.208,31.864,29.943,8.637
-885.394,-440.453,-56.096,31.635,31.196,13.3
-869.585,-432.938,-19.106,34.685,33.518,16.763
-844.748,-429.57,-34.881,40.66,36.368,17.189
-858.817,-451.645,-4.084,46.197,39.892,15.4
-858.749,-437.802,-7.379,50.994,42.443,12.147
-844.21,-446.423,6.653,53.803,44.629,9.271
-850.544,-434.503,2.043,56.79,46.469,7.699
-857.83,-457.577,-0.77,60.311,49.859,7.79
-868.147,-458.917,-113.373,66.731,52.983,8.424
-831.502,-507.513,-246.947,71.456,56.426,9.342
-931.82,-504.104,-281.484,72.586,58.479,12.024
-1049.772,-522.236,-226.338,70.608,52.917,17.781
-1168.585,-520.297,-199.612,70.024,40.871,25.603
-1182.967,-512.938,-149.956,73.07,28.611,33.18
-1157.904,-489.54,-166.587,80.151,19.234,36.263
-1089.28,-468.943,-164.669,87.192,13.005,34.801
-1009.978,-416.356,-120.735,92.194,10.11,30.392
-946.28,-389.449,-109.381,92.982,11.547,26.304
-913.458,-369.253,-96.414,91.738,15.358,23.97
-845.271,-339.917,-111.702,88.506,20.506,23.538
-873.445,-368.585,-128.916,85.412,25.809,24.207
-901.492,-359.67,-117.33,81.981,30.768,25.103
-961.627,-372.317,-147.988,79.631,34.249,25.344
-1025.68,-404.852,-140.996,77.463,36.024,24.756
-1092.715,-435.459,-144.069,77.386,34.635,22.818
-1121.913,-471.548,-154.569,77.691,31.821,20.377
-1189.782,-476.541,-132.641,79.44,27.59,17.421
-1169.091,-498.918,-125.669,80.836,23.393,15.114
-1154.63,-507.455,-141.07,82.997,20.18,13.443
-1114.403,-519.123,-106.185,84.291,18.316,12.9
-1101.67,-515.903,-90.324,85.218,16.721,13.182
-1092.6,-555.82,-68.579,85.403,16.714,14.79
-1057.252,-536.671,-94.595,87.273,18.82,16.939
-1061.053,-537.355,-109.252,89.456,22.123,18.877
-1097.015,-547.587,-101.783,92.674,23.877,20.131
-1125.249,-541.406,-67.968,95.446,24.589,20.943
-1163.319,-538.551,-73.595,98.813,24.664,20.933
-1182.507,-527.534,-95.216,101.276,24.299,20.132
-1215.539,-507.174,-68.32,103.588,22.349,18.619
-1197.898,-485.006,-54.234,104.642,20.058,16.914
-1212.642,-444.781,-43.4,105.644,18.09,15.5
-1169.733,-443.724,-29.171,105.374,16.971,14.569
-1159.449,-428.1,-17.6,104.975,16.14,13.734
-1126.286,-409.78,-12.227,103.678,15.801,13.09
-1105.111,-358.943,-5.969,102.949,16.269,12.358
-1088.711,-384.765,11.244,101.844,17.873,11.516
-1066.378,-380.132,11.422,101.334,19.223,10.107
-1085.611,-384.827,25.951,100.123,20.197,8.685
-1058.139,-370.546,40.037,99.19,20.069,7.184
-1092.793,-376.746,60.99,98.167,19.955,6.411
-1060.459,-371.607,51.52,98.498,19.754,5.933
-1086.835,-365.708,61.401,98.957,19.816,5.654
-1094.734,-360.308,59.234,99.896,18.901,5.5
-1070.246,-336.633,72.437,100.025,18.035,5.885
-1078.572,-299.17,77.725,100.758,16.801,6.399
-1062.826,-304.46,97.112,101.015,15.247,6.796
-1060.151,-271.864,104.843,102.22,13.371,6.712
-1043.064,-259.293,147.438,102.636,11.461,6.134
-1023.82,-245.702,158.869,103.081,9.59,5.264
-998.339,-240.412,178.917,102.359,7.925,4.799
-981.198,-232.299,185.922,102.664,6.417,4.671
-946.876,-215.963,219.562,102.558,5.778,5.022
-947.877,-202.087,228.241,103.02,5.35,5.498
-910.904,-212.174,235.298,102.505,5.216,6.113
-896.382,-193.318,237.375,102.947,5.071,6.749
-866.017,-205.648,233.512,103.308,5.522,7.906
-868.81,-205.942,209.456,104.47,6.189,8.922
-834.253,-219.636,228.471,103.926,6.293,9.912
-848.461,-187.461,226.509,102.435,4.317,11.087
-840.658,-200.886,234.596,99.809,1.732,13.382
-834.962,-206.098,249.31,98.564,-0.359,16.158
-801.141,-211.459,228.652,98.147,-2.268,18.526
-741.085,-192.511,225.459,99.274,-3.997,19.554
-712.486,-206.013,218.799,99.231,-4.539,19.669
-710.336,-187.474,206.147,98.42,-4.649,19.008
-665.574,-205.461,203.049,95.588,-4.304,18.906
-641.049,-194.988,182.921,92.904,-4.259,19.35
-626.89,-204.787,206.546,89.94,-4.383,20.598
-618.042,-199.941,184.721,88.573,-4.879,21.935
-596.035,-212.732,190.941,87.549,-4.717,23.048
-572.086,-219.491,185.73,87.602,-4.5,23.138
-581.919,-255.244,177.694,87.124,-3.699,22.341
-575.187,-268.837,181.651,87.432,-3.024,20.835
-566.044,-279.218,160.097,87.479,-2.165,19.341
-593.644,-270.932,137.084,88.753,-1.954,18.203
-586.689,-299.277,147.36,90.085,-1.939,17.792
-602.471,-290.068,123.529,92.147,-2.236,17.754
-601.382,-281.668,103.924,93.373,-2.45,18.373
-606.566,-261.91,62.956,94.613,-3.341,19.319
-623.662,-254.485,80.323,95.379,-4.629,20.577
-639.454,-247.2,76.254,97.165,-6.494,21.311
-616.421,-243.728,67.492,98.265,-8.146,21.519
-624.706,-226.269,45.165,99.674,-9.588,20.686
-615.26,-220.856,33.48,99.433,-10.493,19.247
-650.272,-203.154,29.019,98.494,-12.304,17.951
-626.795,-185.115,9.615,96.146,-14.216,17.535
-643.424,-153.098,3.848,95.08,-15.67,17.917
-594.23,-145.344,-1.251,94.183,-16.103,18.607
-629.733,-100.652,-17.618,94.871,-16.534,18.793
-632.135,-117.528,-17.924,95.614,-16.563,18.281
-630.484,-89.273,-33.401,97.068,-16.233,17.044
-640.036,-86.322,-21.622,97.162,-15.659,15.851
-652.154,-51.836,-59.038,96.927,-14.89,14.695
-668.265,-45.067,-33.273,96.852,-13.876,14.489
-727.625,-27.14,8.599,98.016,-15.679,14.93
-736.218,-24.978,75.406,98.175,-19.543,15.46
-752.008,-21.075,70.443,98.882,-23.138,14.951
-692.89,-48.208,70.352,99.489,-23.985,12.903
-698.555,-49.382,32.198,101.469,-22.634,9.588
-673.334,-76.607,24.438,104.436,-19.661,6.526
-694.001,-67.715,78.597,109.741,-16.84,4.374
-648.726,-34.027,88.753,115.326,-12.252,3.888
-651.871,-8.127,56.159,119.611,-6.955,4.326
-634.194,18.46,57.124,120.262,-3.519,5.583
-635.869,84.738,41.998,119.707,-2.415,7.266
-621.887,91.996,40.275,118.571,-1.264,9.159
-650.384,127.705,56.68,119.085,-0.601,10.138
-657.832,146.302,71.125,118.991,-0.026,9.162
-699.103,198.305,98.927,118.383,0.376,5.793
-685.84,228.223,108.028,116.19,0.351,1.349
-710.85,267.266,142.234,115.28,-0.283,-2.217
-701.143,298.596,200.698,113.181,-1.436,-4.518
-718.338,326.204,224.783,108.318,-3.249,-7.093
-678.715,327.345,256.236,99.205,-3.975,-9.948
-709.537,328.077,280.738,89.371,-4.399,-12.752
-682.098,306.221,298.457,80.809,-3.243,-15.072
-662.898,265.673,298.644,77.024,-3.354,-16.528
-662.481,182.542,303.569,77.64,-1.827,-17.48
-655.057,75.608,283.105,85.195,0.954,-19.696
-644.118,-52.039,269.087,98.042,5.501,-23.763
-645.489,-109.29,244.04,114.578,11.536,-29.481
-591.308,-194.345,195.979,130.721,19.07,-33.098
-636.696,-236.6,196.123,159.59,26.776,-32.598
-657.88,-281.496,214.775,198.79,27.889,-28.014
-678.561,-338.876,214.725,232.457,28.139,-27.278
-652.894,-364.915,190.927,248.771,27.03,-32.791
-629.84,-358.644,110.054,246.283,26.686,-42.228
-595.204,-298.174,57.49,229.433,27.208,-50.69
-587.435,-206.36,33.258,206.212,26.229,-50.972
-605.549,-93.337,19.706,183.211,26.366,-40.095
-678.554,39.581,56.246,166.167,26.704,-21.359
-723.803,127.402,91.213,153.213,25.127,-0.654
-818.714,196.746,117.244,142.923,21.754,16.591
-847.51,274.207,125.8,133.645,18.99,27.05
-915.261,294.581,82.42,126.249,17.097,29.95
-988.456,359.375,114.978,119.062,14.915,26.997
-1076.145,379.285,166.169,111.364,8.1,20.624
-1112.747,405.022,246.23,102.648,-2.001,14.475
-1178.947,409.573,316.676,95.266,-13.016,10.519
-1148.908,354.809,360.953,89.555,-23.989,9.336
-1125.649,329.824,405.437,86.389,-33.841,10.892
-1021.153,291.608,411.022,83.584,-41.45,14.17
-952.53,225.697,423.699,81.424,-46.25,17.18
-830.327,203.794,452.881,80.058,-47.282,19.467
-717.25,175.274,417.453,83.407,-43.217,20.613
-621.388,132.922,367.981,92.139,-32.238,19.241
-564.721,88.181,316.495,105.796,-17.438,14.126
-539.705,23.638,239.805,119.005,-1.25,5.721
-589.531,-42.472,219.666,128.91,11.575,-4.129
-666.765,-116.647,239.511,131.402,17.346,-12.269
-765.09,-148.387,254.296,128.955,15.82,-17.09
-809.61,-200.185,265.465,124.157,11.123,-17.361
-848.116,-196.127,253.405,122.87,7.146,-13.747
-842.103,-183.594,223.233,125.92,6.431,-8.655
-843.774,-161.2,203.048,133.528,9.028,-4.95
-830.71,-123.507,187.508,141.069,14.027,-4.026
-844.19,-74.908,217.691,146.243,18.898,-5.466
-850.793,12.673,206.541,146.83,22.821,-7.504
-863.697,71.737,185.133,145.196,25.051,-9.432
-876.25,112.629,217.818,141.732,26.381,-10.207
-919.801,171.289,221.349,138.402,27.301,-10.319
-912.668,179.819,217.8,134.355,28.624,-10.172
-952.425,181.928,239.247,130.827,30.224,-10.355
-977.04,182.872,231.367,127.331,32.64,-10.799
-988.978,145.943,208.615,125.695,35.198,-11.759
-999.35,99.911,215.879,124.539,37.892,-12.674
-1021.573,101.245,221.08,124.66,39.441,-13.325
-1043.226,80.275,202.09,124.749,40.441,-13.084
-1085.328,106.079,194.625,126.732,40.513,-11.944
-1114.068,103.591,208.272,129.539,40.309,-10.107
-1135.239,124.47,203.003,133.257,39.11,-8.412
-1141.288,183.874,223.678,135.668,37.712,-7.06
-1186.298,226.148,241.412,136.949,35.265,-5.764
-1185.689,280.055,263.48,136.833,32.651,-4.752
-1224.787,311.266,248.484,136.729,30.819,-4.038
-1192.017,360.476,264.79,134.864,28.899,-4.056
-1171.448,373.216,279.69,132.132,26.528,-4.238
-1195.499,368.493,271.941,127.889,24.576,-4.085
-1180.201,366.348,282.061,123.718,22.907,-3.541
-1152.687,361.488,300.335,118.744,21.384,-2.864
-1190.493,337.681,300.01,113.926,19.522,-2.061
-1174.904,297.139,296.401,109.354,18.285,-0.99
-1189.224,251.063,270.117,107.337,17.033,-0.064
-1190.629,215.271,280.197,106.62,16.229,0.753
-1205.55,199.885,261.443,107.286,15.387,0.924
-1208.807,130.75,234.36,107.222,14.376,0.784
-1230.053,139.786,234.917,107.495,12.565,0.644
-1237.301,128.2,220.824,107.249,10.892,1.053
-1265.235,126.36,230.656,107.813,9.385,1.705
-1249.533,133.989,232.794,108.023,7.915,2.564
-1283.442,145.192,209.509,109.122,6.492,3.102
-1275.617,150.185,190.054,109.629,5.732,3.265
-1298.265,194.395,192.706,109.859,5.029,2.563
-1307.789,209.93,165.689,108.22,4.272,1.51
-1306.906,246.241,168.964,105.991,3.107,0.412
-1292.714,266.478,157.823,102.456,2.228,-0.051
-1297.728,271.131,129.19,99.284,1.356,-0.239
-1313.046,292.711,146.829,95.24,0.932,-0.032
-1327.255,306.743,121.287,92.079,0.642,0.24
-1302.751,310.263,95.861,88.664,0.81,0.736
-1296.784,284.995,117.862,86.447,0.825,1.11
-1279.976,260.193,107.5,84.074,1.281,1.485
-1268.71,253.962,93.44,82.244,0.899,1.924
-1222.574,240.307,97.154,80.275,0.612,2.973
-1221.612,243.823,93.281,79.789,0.336,4.177
-1205.223,215.064,89.719,79.385,0.215,5.797
-1185.558,219.626,71.36,80.002,0.302,7.09
-1162.488,213.127,108.984,79.597,0.407,8.215
-1131.92,188.511,92.195,79.591,0.029,9.2
-1106.416,186.652,90.33,79.363,-0.214,10.465
-1079.617,158.125,91.384,80.339,-0.606,11.717
-1039.712,142.62,109.001,80.717,-0.687,12.943
-1036.808,173.11,111.048,81.203,-1.07,13.642
-994.567,154.146,123.23,80.542,-1.606,14.427
-974.206,154.607,97.146,80.281,-2.382,15.237
-947.748,148.925,100.676,79.126,-2.933,16.284
-938.683,176.984,117.429,78.066,-4.308,17.27
-909.655,148.236,126.787,76.546,-5.911,18.206
-888.041,155.523,127.799,75.956,-7.317,18.796
-861.426,118.923,126.577,74.97,-7.714,18.951
-852.88,117.179,111.856,74.385,-8.177,18.492
-821.269,96.935,120.174,73.146,-8.297,17.986
-835.88,86.042,81.536,72.716,-8.471,17.563
-818.959,59.14,109.893,71.954,-8.182,17.741
-839.123,84.495,98.947,71.782,-8.286,17.91
-828.153,60.559,83.574,70.971,-8.21,18.395
-810.258,82.035,93.339,70.721,-8.376,18.638
-810.824,82.051,105.493,70.008,-8.354,18.936
-827.731,77.385,88.793,70.464,-8.247,19.336
-819.473,79.274,78.444,70.505,-7.87,19.679
-811.379,81.363,64.806,71.514,-7.482,20.008
-839.74,58.96,47.512,72.528,-6.978,20.518
-827.01,59.261,55.183,74.23,-6.99,21.0
-844.788,65.701,43.075,74.764,-7.387,21.737
-853.382,59.93,40.723,75.519,-8.571,22.688
-849.368,68.991,49.471,76.163,-9.516,24.102
-858.371,54.85,44.67,77.698,-10.813,25.354
-823.901,61.071,39.777,78.539,-11.898,26.169
-841.491,71.53,37.536,79.369,-13.101,26.171
-820.78,64.921,59.729,78.449,-13.989,25.621
-820.454,107.062,54.011,76.826,-15.346,24.771
-815.966,97.337,74.536,73.933,-16.132,24.098
-802.591,137.562,72.472,71.259,-16.648,23.411
-774.229,151.446,82.55,68.17,-17.033,22.702
-784.68,167.149,58.666,65.376,-17.293,21.142
-776.844,165.995,92.284,61.317,-17.098,19.058
-794.082,181.686,71.203,57.017,-17.3,16.639
-781.589,167.137,62.322,52.273,-17.768,14.575
-796.619,147.969,85.976,48.883,-18.534,13.028
-814.982,133.789,85.208,46.004,-19.225,12.214
-812.696,132.389,75.319,44.898,-20.214,11.529
-825.994,107.907,73.776,43.984,-20.814,11.035
-827.82,107.429,80.024,43.739,-22.025,10.399
-817.653,117.421,97.571,43.057,-23.058,10.071
-861.67,133.401,81.553,43.677,-23.803,10.0
-818.759,136.916,92.385,44.556,-24.04,9.989
-849.357,151.299,75.593,46.014,-24.238,9.623
-835.127,170.389,92.909,46.395,-23.95,9.123
-850.355,208.982,90.808,46.636,-23.846,8.15
-853.188,185.755,88.695,45.535,-23.808,7.339
-883.734,199.285,86.442,44.194,-24.416,6.621
-900.067,206.103,98.604,42.048,-25.278,6.16
-903.068,200.101,104.586,40.933,-26.243,5.631
-890.711,159.556,89.129,39.673,-26.873,4.914
-906.665,185.013,100.952,39.695,-27.496,3.718
-913.872,145.004,96.152,39.989,-27.863,2.142
-919.317,125.307,89.569,41.759,-28.031,0.42
-905.131,94.672,87.204,43.404,-27.662,-1.143
-903.671,116.982,94.354,45.302,-27.452,-2.734
-898.438,109.995,82.812,46.423,-27.17,-3.771
-909.028,138.24,95.79,47.947,-26.927,-4.641
-882.816,138.809,110.697,48.88,-26.25,-5.036
-891.193,139.369,106.245,50.402,-25.304,-5.599
-877.192,164.413,118.027,51.194,-24.05,-6.228
-871.651,202.796,123.44,51.783,-23.046,-7.473
-886.215,203.491,138.591,51.198,-21.374,-8.578
-876.662,225.32,134.224,50.958,-19.904,-9.768
-886.139,209.034,162.978,50.069,-18.869,-10.631
-894.551,206.285,165.115,48.848,-18.541,-11.526
-877.725,195.184,173.559,46.804,-18.443,-11.902
-881.91,198.213,176.342,45.945,-19.008,-12.3
-856.416,192.835,184.898,45.561,-19.254,-12.814
-860.915,188.357,181.321,46.434,-19.483,-13.673
-840.581,188.466,196.147,46.804,-19.409,-14.755
-828.684,175.964,196.896,47.739,-19.028,-16.143
-802.207,153.291,198.906,47.808,-18.21,-17.229
-795.817,159.86,194.052,48.106,-17.741,-18.115
-761.476,151.473,207.926,47.75,-16.901,-18.584
-774.399,190.226,208.581,47.828,-15.838,-18.368
-735.142,180.604,213.345,47.312,-14.654,-17.958
-763.56,191.943,219.534,46.914,-13.74,-17.716
-780.373,190.422,236.665,45.47,-13.179,-17.223
-764.551,195.946,253.775,44.55,-13.269,-17.043
-766.519,193.477,267.604,43.356,-13.748,-16.768
-789.503,190.304,257.984,42.954,-14.704,-16.674
-795.28,208.708,270.025,41.927,-16.16,-16.573
-785.242,194.484,265.931,41.517,-17.97,-16.264
-770.978,201.198,264.383,41.046,-19.722,-15.551
-755.052,193.382,273.766,41.376,-22.049,-14.337
-735.439,201.681,273.189,40.968,-24.089,-12.764
-710.91,180.559,267.946,40.668,-26.429,-11.03
-661.961,185.222,264.669,39.496,-28.644,-9.215
-636.038,152.277,248.788,39.032,-31.113,-7.41
-571.743,147.125,274.365,38.499,-33.385,-5.33
-551.03,146.934,262.203,39.376,-35.277,-3.246
-498.606,99.502,244.464,40.24,-35.878,-1.346
-446.22,69.374,229.862,41.435,-35.733,-0.344
-430.115,51.797,206.829,41.738,-34.453,0.366
-421.975,10.507,163.657,41.926,-32.718,0.966
-433.65,-9.438,147.087,41.241,-30.568,1.899
-452.205,-5.06,123.517,41.317,-28.977,3.001
-439.342,-58.99,114.918,40.892,-27.325,4.242
-475.665,-44.779,104.779,40.728,-25.853,4.818
-483.189,-59.779,101.797,39.167,-24.501,4.61
-531.172,-66.39,93.425,36.82,-23.372,3.751
-528.161,-47.044,97.813,33.041,-21.837,2.83
-519.938,-22.706,94.595,29.321,-20.108,2.291
-520.276,-19.847,71.822,25.01,-17.894,2.045
-547.164,18.173,98.912,20.823,-15.94,2.029
-548.552,30.627,115.204,15.559,-13.906,2.046
-560.728,51.567,135.037,10.907,-12.175,1.989
-615.707,8.192,157.458,6.248,-10.627,2.003
-658.25,14.692,180.806,3.63,-10.044,1.944
-693.241,-3.301,215.935,2.99,-10.488,2.213
-753.253,-23.441,232.581,6.034,-11.79,2.723
-830.591,-73.014,227.923,10.904,-12.948,3.405
-880.373,-105.206,245.71,17.731,-14.937,3.433
-924.718,-117.441,276.337,24.273,-17.843,3.146
-958.065,-105.323,261.268,30.698,-21.328,2.95
-974.704,-95.146,269.034,36.552,-24.246,3.419
-990.5,-56.178,241.42,42.257,-27.449,3.729
-1016.093,-39.563,260.276,44.997,-30.7,3.781
-1048.117,5.965,252.103,45.569,-34.116,3.517
-1050.941,27.571,242.965,44.144,-36.798,3.032
-1078.541,36.506,194.983,43.11,-38.985,1.772
-1076.114,43.972,165.392,40.741,-40.68,-0.55
-1092.586,77.438,143.385,37.354,-42.277,-3.877
-1138.243,85.329,104.505,31.911,-43.729,-7.599
-1119.08,97.203,49.976,26.818,-45.319,-11.214
-1144.946,74.59,28.203,21.622,-46.472,-13.855
-1135.597,88.718,-3.778,17.614,-47.225,-15.858
-1113.603,64.495,-28.889,13.189,-46.99,-17.072
-1106.099,68.575,-37.716,9.159,-46.378,-18.016
-1087.14,55.257,-26.001,4.732,-44.933,-18.209
-1076.009,51.708,-29.413,1.128,-43.833,-17.491
-1070.025,29.621,-20.936,-1.217,-42.505,-15.717
-1074.398,-2.465,-9.912,-0.383,-41.053,-13.83
-1061.646,-14.575,2.306,2.492,-38.75,-11.768
-1060.563,-74.988,-2.42,7.917,-35.808,-10.719
-1058.801,-99.274,33.483,13.692,-32.886,-10.422
-1069.481,-84.976,47.185,20.384,-30.811,-10.791
-1056.252,-76.685,77.299,26.996,-29.095,-10.751
-1058.289,-69.576,62.591,34.681,-27.774,-10.343
-1029.201,-33.194,123.645,41.317,-25.838,-9.944
-1033.807,-0.406,123.619,46.868,-23.925,-10.097
-1008.069,44.307,144.168,49.867,-21.698,-11.01
-999.832,87.166,169.994,51.115,-19.643,-12.309
-963.399,116.38,189.23,49.836,-17.924,-13.184
-963.888,140.774,203.077,47.288,-16.914,-13.807
-955.45,165.379,223.832,43.761,-15.821,-13.934
-940.987,153.772,201.447,40.83,-14.649,-14.322
-913.369,147.233,228.308,37.005,-13.239,-15.337
-913.96,127.363,238.606,33.507,-12.384,-16.875
-881.066,112.222,243.466,29.95,-11.567,-18.269
-892.957,95.57,245.88,27.904,-10.85,-19.659
-881.134,75.625,258.279,26.429,-9.948,-20.544
-876.333,60.71,283.331,26.807,-9.346,-21.234
-822.681,30.584,278.295,27.764,-8.205,-21.755
-827.748,27.141,294.19,30.406,-7.099,-22.426
-826.509,19.951,309.109,33.329,-5.502,-23.267
-827.198,16.049,309.108,37.721,-4.245,-24.467
-822.422,11.687,312.858,41.856,-3.12,-25.929
-822.239,22.082,299.052,46.186,-2.748,-27.237
-820.369,48.804,290.632,49.17,-2.299,-28.074
-829.281,53.545,296.675,51.821,-2.058,-28.357
-794.776,87.017,314.195,53.194,-1.438,-28.057
-799.993,140.222,315.568,53.935,-0.39,-27.611
-781.643,145.155,349.088,52.805,1.032,-26.987
-787.127,202.503,334.437,51.057,1.702,-26.602
-755.797,202.754,340.215,48.44,2.844,-26.381
-772.916,221.01,357.859,45.874,3.212,-26.359
-741.463,211.367,384.513,42.264,3.306,-26.252
-736.184,209.438,382.058,38.68,3.455,-26.13
-712.607,187.351,386.153,35.387,3.537,-25.442
-737.412,168.905,369.978,34.03,3.517,-24.501
-709.992,111.386,412.201,32.668,3.413,-23.234
-737.943,101.677,449.73,31.973,2.121,-22.086
-736.818,57.484,465.006,31.517,0.908,-21.012
-731.802,41.104,453.111,33.005,-0.25,-20.376
-747.541,16.892,438.738,34.485,-1.356,-20.142
-797.244,38.473,456.965,36.557,-3.089,-20.624
-779.406,29.519,449.299,37.401,-4.981,-21.596
-804.257,40.773,446.16,37.478,-7.323,-23.104
-844.941,94.494,470.814,35.485,-9.572,-25.033
-864.586,120.541,481.562,32.658,-12.222,-27.162
-887.833,140.765,469.625,28.546,-14.602,-29.007
-916.5,160.589,458.68,25.492,-17.397,-30.904
-936.776,163.675,460.48,22.025,-19.825,-32.641
-963.787,146.692,446.759,18.112,-22.403,-34.205
-958.351,138.298,437.877,13.631,-24.661,-35.506
-967.002,138.713,439.032,11.108,-26.258,-36.994
-960.646,123.125,435.66,9.889,-27.116,-38.159
-987.056,141.908,424.105,10.445,-27.673,-39.572
-980.966,132.275,420.429,10.008,-27.824,-41.171
-1014.726,137.225,429.523,8.524,-28.556,-42.722
-974.251,143.569,406.827,5.811,-28.661,-43.277
-953.935,155.164,388.753,4.232,-27.922,-43.123
-979.34,171.813,407.745,2.752,-26.166,-42.535
-958.255,171.278,411.207,1.621,-24.817,-42.05
-957.622,144.189,409.605,-0.697,-23.715,-41.702
-950.629,111.842,429.874,-2.004,-23.047,-41.239
-926.667,84.772,429.714,-2.656,-21.495,-40.584
-968.168,69.23,440.904,-2.012,-19.737,-40.062
-939.958,50.149,419.535,-1.973,-18.054,-39.121
-950.934,52.045,423.958,-1.812,-16.467,-37.916
-966.506,49.949,428.703,-2.504,-14.785,-36.384
-986.238,60.285,450.018,-3.047,-13.845,-35.213
-979.019,52.34,457.799,-3.942,-13.086,-34.234
-999.007,60.585,474.556,-4.082,-12.371,-33.84
-968.844,38.69,481.939,-4.779,-11.531,-34.046
-991.726,27.019,475.066,-4.66,-11.349,-34.529
-999.263,-0.377,428.033,-4.704,-11.34,-34.598
-1026.932,-7.892,417.765,-4.597,-11.565,-34.482
-1031.38,-11.494,426.21,-5.768,-12.073,-33.882
-1036.22,5.286,387.318,-6.27,-12.508,-32.902
-1028.157,7.476,392.793,-6.588,-12.477,-32.254
-1034.346,-0.717,373.67,-6.1,-12.582,-32.507
-1008.423,21.769,356.943,-6.114,-11.772,-33.639
-1012.333,11.991,347.786,-5.677,-10.918,-35.254
-1005.536,-6.078,325.14,-6.099,-9.885,-36.787
-1010.331,-8.184,329.753,-6.798,-8.827,-37.914
-1003.732,9.443,297.968,-8.134,-7.428,-37.879
-1023.144,23.878,303.311,-8.423,-5.671,-37.208
-1029.988,30.06,291.294,-8.73,-3.52,-36.427
-1021.013,36.838,293.156,-8.146,-1.521,-35.793
-1031.1,8.751,293.643,-7.672,0.719,-35.554
-1031.383,28.138,290.422,-6.531,2.576,-35.773
-1029.436,21.558,314.818,-5.566,4.443,-35.857
-1043.673,32.795,306.198,-4.642,6.121,-35.449
-1050.892,43.904,324.17,-4.798,7.224,-34.478
-1046.164,49.479,327.931,-4.417,8.338,-33.18
-1055.752,70.582,357.145,-4.086,9.423,-31.93
-1044.161,77.797,348.356,-3.074,9.95,-31.49
-1057.57,72.802,363.242,-2.939,10.418,-31.292
-1062.787,80.797,377.775,-2.392,10.342,-31.323
-1062.407,69.702,365.336,-2.221,10.44,-31.406
-1068.101,103.947,361.191,-1.102,9.946,-31.405
-1074.863,77.612,370.781,-0.61,9.848,-31.094
-1089.637,76.649,365.778,0.001,9.211,-30.981
-1087.792,85.049,339.455,-0.199,8.827,-30.527
-1101.16,95.3,350.461,0.224,8.622,-29.831
-1089.244,105.286,331.726,0.581,8.766,-28.948
-1081.049,93.408,346.336,1.184,8.607,-28.362
-1123.024,99.368,344.741,0.923,8.302,-27.418
-1119.965,110.732,321.127,1.061,8.124,-26.444
-1131.024,109.628,341.628,0.535,8.417,-25.022
-1153.964,82.215,339.825,0.852,8.458,-23.363
-1154.258,74.291,334.902,1.069,8.696,-21.6
-1164.165,87.912,341.873,2.001,8.87,-20.156
-1170.046,53.608,349.156,2.224,9.597,-19.132
-1161.555,81.202,343.437,2.859,10.211,-18.485
-1161.234,72.805,343.878,2.59,11.088,-17.398
-1191.105,65.572,351.814,3.046,11.727,-16.053
-1162.365,40.691,349.616,3.385,12.52,-14.916
-1176.033,40.747,349.581,4.659,13.331,-14.396
-1148.212,1.575,356.279,5.606,14.487,-14.359
-1124.798,-12.214,343.12,6.779,15.434,-14.382
-1132.775,-5.127,364.683,6.889,16.785,-14.193
-1159.798,-2.501,339.848,7.008,18.011,-13.842
-1138.486,-9.94,347.734,6.473,19.053,-13.288
-1133.831,12.628,335.345,6.024,19.581,-12.556
-1109.029,-1.984,351.27,4.822,20.063,-11.802
-1111.899,2.01,334.738,4.007,20.273,-11.346
-1081.646,-21.206,342.123,2.921,20.791,-11.044
-1077.861,-22.969,333.824,1.975,20.972,-10.719
-1042.961,-23.248,325.324,0.195,21.102,-9.937
-1060.318,-18.253,325.541,-1.257,21.038,-9.265
-1024.291,-37.08,336.541,-2.979,20.916,-8.669
-1026.185,-38.52,334.108,-4.297,20.542,-8.351
-987.713,-51.83,322.686,-5.787,20.293,-8.389
-986.213,-64.554,325.874,-6.195,19.741,-8.429
-967.508,-86.991,319.262,-6.158,19.174,-8.381
-956.753,-96.825,311.302,-5.566,18.899,-8.709
-921.569,-102.296,308.373,-5.73,18.557,-9.214
-898.975,-97.778,295.401,-5.599,17.846,-9.513
-898.536,-106.435,288.623,-6.135,17.327,-9.232
-892.198,-64.745,294.291,-6.812,16.75,-9.004
-895.275,-77.036,293.265,-8.054,16.42,-8.884
-885.646,-53.886,304.721,-8.667,15.749,-8.952
-878.051,-73.997,301.638,-9.942,15.09,-9.012
-900.554,-64.149,289.354,-11.082,14.301,-9.136
-876.741,-72.701,296.135,-12.904,13.501,-8.956
-894.456,-47.251,285.433,-14.051,12.486,-8.633
-883.643,-60.273,280.168,-15.586,11.736,-8.165
-886.829,-37.928,283.383,-16.945,10.551,-7.853
-886.966,-54.145,278.784,-19.181,9.482,-7.499
-867.574,-49.829,281.812,-21.089,8.328,-7.166
-882.567,-59.712,283.535,-23.226,7.524,-6.888
-894.143,-50.262,262.289,-24.467,6.693,-6.787
-863.605,-76.717,289.987,-26.28,5.813,-6.886
-893.166,-69.665,271.376,-27.271,4.586,-6.982
-884.133,-69.042,243.714,-28.386,3.398,-6.927
-871.446,-76.837,240.938,-29.084,2.172,-6.76
-843.636,-104.209,230.885,-30.22,1.131,-6.268
-856.831,-76.292,242.991,-30.646,0.325,-5.961
-861.795,-62.693,250.354,-31.622,-0.238,-5.646
-834.19,-85.286,229.981,-32.166,-0.779,-5.591
-852.276,-91.68,230.933,-33.263,-1.233,-5.68
-829.52,-93.067,225.166,-33.82,-2.149,-5.851
-816.157,-97.783,219.143,-34.402,-2.715,-5.857
-841.334,-107.484,215.349,-33.953,-3.409,-6.073
-820.067,-91.134,232.186,-34.018,-3.859,-6.472
-833.161,-74.828,228.822,-33.737,-4.738,-7.069
-843.544,-102.712,234.673,-33.886,-5.316,-7.199
-829.796,-83.046,248.785,-33.633,-6.078,-7.437
-839.864,-79.469,236.413,-33.963,-6.563,-7.277
-855.163,-79.977,236.011,-33.982,-7.32,-7.187
-841.509,-94.576,222.199,-34.285,-7.644,-6.866
-861.098,-82.327,216.061,-34.089,-8.215,-6.671
-864.017,-101.252,203.373,-34.534,-8.729,-6.437
-847.465,-80.093,218.545,-34.565,-9.46,-6.319
-865.845,-85.666,215.253,-34.883,-9.571,-6.056
-867.576,-64.292,209.017,-34.739,-9.366,-5.962
-844.027,-91.349,200.494,-34.981,-8.971,-5.764
-839.672,-96.124,193.625,-35.081,-8.538,-5.667
-848.159,-117.914,191.359,-35.234,-7.962,-5.496
-837.921,-112.606,186.451,-34.465,-7.19,-5.603
-841.208,-116.098,205.001,-34.117,-6.185,-5.65
-830.08,-111.236,183.061,-33.109,-5.346,-5.998
-857.969,-132.891,200.532,-32.533,-4.091,-6.472
-852.661,-111.059,200.397,-31.873,-3.195,-6.913
-862.658,-123.58,224.789,-31.831,-2.435,-7.173
-861.33,-101.165,226.709,-31.401,-1.768,-7.422
-860.098,-104.847,233.022,-31.542,-0.751,-7.611
-869.929,-76.447,254.691,-31.41,-0.236,-8.135
-860.64,-105.86,258.895,-32.348,0.398,-8.647
-855.743,-66.182,253.224,-33.328,0.755,-8.905
-859.497,-55.645,262.428,-35.25,1.277,-8.922
-869.593,-46.865,261.836,-36.348,1.172,-8.882
-861.421,-54.01,261.357,-37.83,1.303,-8.604
-869.306,-79.14,270.197,-38.802,0.79,-8.808
-862.212,-58.374,259.217,-39.661,-0.026,-9.101
-866.796,-55.23,266.18,-39.5,-1.017,-9.478
-867.771,-80.14,259.541,-39.515,-1.799,-9.763
-857.331,-55.442,260.169,-39.463,-3.02,-9.808
-894.238,-56.055,278.706,-40.492,-3.927,-9.463
-885.555,-47.521,247.855,-40.86,-5.091,-8.827
-885.525,-46.618,254.458,-41.591,-5.402,-8.241
-894.546,-33.799,268.525,-41.587,-5.682,-8.135
-897.36,-36.703,262.216,-42.121,-5.583,-8.074
-913.172,-49.051,233.489,-42.164,-5.829,-7.879
-901.937,-29.298,256.667,-42.439,-5.929,-7.347
-913.996,-43.974,248.197,-41.993,-6.148,-6.676
-907.945,-48.551,251.989,-41.863,-6.16,-5.995
-929.041,-62.359,256.013,-40.897,-6.373,-5.046
-935.515,-68.581,256.989,-39.54,-6.249,-4.147
-967.436,-74.007,245.08,-37.536,-6.335,-3.305
-953.74,-85.957,249.362,-36.588,-6.653,-2.468
-970.316,-81.687,272.44,-35.613,-7.153,-1.354
-997.266,-65.566,255.52,-34.778,-7.689,0.101
-1027.281,-66.149,275.352,-33.311,-8.32,1.331
-1021.545,-84.564,258.794,-32.417,-8.554,2.418
-1062.173,-63.466,265.055,-31.508,-9.078,3.318
-1040.928,-89.992,291.002,-31.132,-9.298,4.588
-1072.301,-100.442,278.469,-30.143,-9.076,5.812
-1071.975,-92.11,280.459,-29.611,-8.16,6.856
-1099.565,-93.27,262.263,-28.864,-7.184,7.548
-1110.525,-108.619,279.955,-28.735,-6.074,8.263
-1131.117,-94.453,274.452,-28.414,-5.048,8.818
-1174.558,-107.328,290.79,-28.432,-3.607,9.522
-1222.423,-99.465,278.625,-27.771,-2.176,10.106
-1235.005,-142.601,281.157,-27.218,-0.833,10.629
-1245.962,-139.23,270.238,-25.653,0.375,10.996
-1255.983,-178.244,275.445,-24.676,1.999,11.327
-1287.827,-184.774,267.001,-23.304,3.411,11.765
-1303.933,-205.964,292.356,-22.4,5.116,12.768
-1313.851,-191.538,293.247,-20.932,6.758,13.836
-1319.196,-192.969,310.432,-20.159,8.567,14.779
-1311.693,-198.058,307.189,-18.686,10.325,15.239
-1308.708,-213.047,290.858,-17.975,12.287,15.31
-1309.064,-228.128,295.575,-17.204,13.729,15.155
-1295.207,-230.533,286.285,-17.265,15.241,15.281
-1302.886,-239.973,293.203,-16.887,16.835,15.652
-1262.13,-248.735,309.273,-16.687,19.076,16.282
-1264.643,-278.852,322.297,-15.715,20.977,16.636
-1237.239,-273.42,321.776,-15.423,22.775,16.805
-1247.086,-310.381,323.149,-14.573,23.924,16.612
-1214.983,-317.222,330.85,-14.486,25.34,16.373
-1217.555,-309.235,306.669,-13.74,26.297,16.184
-1185.092,-317.565,322.562,-12.995,26.943,16.053
-1195.953,-322.499,305.924,-12.096,27.043,15.846
-1166.344,-320.494,312.287,-12.143,27.071,15.55
-1170.469,-321.272,325.335,-11.991,26.445,15.263
-1137.387,-310.77,317.363,-12.223,26.217,15.067
-1139.691,-301.187,318.438,-11.773,25.533,14.799
-1118.284,-303.864,313.863,-12.019,24.868,14.289
-1136.621,-268.067,297.431,-12.216,23.6,13.548
-1140.422,-284.223,278.122,-13.593,22.214,13.228
-1128.793,-260.739,254.677,-14.704,20.695,13.453
-1132.841,-236.954,264.787,-15.982,19.845,13.876
-1148.226,-194.431,257.513,-16.577,18.701,13.794
-1141.481,-213.462,242.01,-17.734,18.105,13.262
-1140.203,-217.236,242.401,-18.185,17.437,12.471
-1135.508,-191.492,237.973,-18.498,17.194,12.035
-1131.44,-199.742,243.205,-17.942,17.233,11.664
-1141.765,-203.662,243.862,-17.586,17.428,11.483
-1173.372,-177.777,232.014,-16.828,17.599,11.195
-1173.858,-195.723,253.125,-16.313,18.041,11.033
-1156.489,-152.705,246.425,-14.927,18.458,10.753
-1150.213,-134.359,250.421,-13.997,19.02,10.324
-1147.054,-122.923,255.153,-13.118,19.278,9.658
-1152.774,-118.284,280.429,-12.942,19.4,9.327
-1161.225,-110.379,279.065,-12.847,19.405,9.264
-1161.191,-89.273,283.569,-13.247,19.69,9.575
-1150.295,-82.316,275.432,-13.016,19.985,9.951
-1150.128,-67.82,302.242,-13.118,20.673,10.146
-1170.775,-72.69,285.835,-12.575,20.822,10.273
-1164.03,-80.268,302.737,-12.535,21.068,10.285
-1179.609,-77.791,290.279,-11.947,20.926,10.213
-1170.01,-82.441,268.305,-11.567,20.965,10.344
-1182.615,-87.346,278.736,-10.775,20.491,10.751
-1181.208,-91.657,262.554,-10.387,20.213,11.528
-1140.869,-54.938,266.289,-9.53,20.249,12.073
-1149.197,-58.275,270.807,-9.099,20.681,12.238
-1133.139,-50.783,287.867,-8.743,20.882,12.236
-1106.409,-51.091,279.62,-9.485,21.59,12.201
-1120.256,-34.952,268.592,-9.925,22.291,12.09
-1100.716,-67.339,274.475,-10.717,23.229,12.232
-1130.516,-43.581,250.125,-11.04,23.816,12.248
-1121.361,-69.7,255.87,-11.561,24.222,12.183
-1122.086,-61.091,254.51,-11.476,24.495,12.037
-1084.361,-82.02,284.33,-11.473,25.079,11.998
-1090.132,-85.415,268.76,-10.904,25.722,11.756
-1081.311,-77.509,279.417,-11.315,26.337,11.634
-1068.551,-58.818,282.939,-11.391,26.546,11.475
-1067.038,-91.298,273.514,-11.37,26.926,11.478
-1074.056,-75.918,280.201,-10.425,26.897,11.152
-1052.993,-103.437,274.788,-10.289,26.583,10.615
-1066.678,-106.374,253.451,-9.972,25.735,10.28
-1042.01,-98.14,255.448,-10.79,25.013,10.569
-1054.587,-99.198,254.07,-11.65,23.946,11.49
-1040.07,-91.329,261.58,-13.14,23.154,12.583
-1045.134,-94.648,256.877,-13.742,22.411,12.713
-1030.562,-94.007,236.732,-15.242,21.661,12.337
-994.624,-79.061,242.214,-16.93,20.168,11.549
-989.513,-97.725,231.34,-19.243,19.165,11.143
-979.691,-85.543,220.837,-20.634,18.363,10.882
-958.327,-105.231,245.788,-22.06,18.259,10.602
-968.13,-102.344,227.277,-22.918,17.948,9.918
-972.474,-102.769,229.879,-24.062,17.564,9.245
-969.312,-89.448,220.321,-24.218,17.056,8.244
-957.489,-81.003,226.787,-24.694,16.823,7.456
-951.859,-87.188,225.133,-24.909,16.447,6.742
-936.486,-74.03,240.957,-25.503,16.394,6.397
-951.51,-90.883,220.695,-25.141,16.066,6.185
-941.744,-90.977,247.976,-25.191,15.845,6.194
-954.939,-49.185,240.383,-24.752,15.336,5.993
-954.02,-74.955,238.824,-25.355,14.945,6.123
-933.025,-51.285,245.439,-25.38,14.479,6.392
-925.7,-60.727,241.279,-25.721,14.394,6.983
-922.446,-35.975,212.131,-25.492,14.256,7.403
-910.059,-36.091,226.004,-25.788,14.123,7.619
-896.153,-25.134,217.117,-25.964,13.72,7.836
-891.789,-36.185,220.927,-26.772,13.285,8.214
-894.865,-49.425,213.41,-26.884,12.512,8.547
-863.322,-65.722,198.495,-27.058,11.968,9.14
-863.141,-57.784,182.016,-26.814,11.169,9.564
-852.732,-47.389,185.23,-27.358,10.306,10.301
-842.329,-53.245,178.308,-27.45,9.201,10.829
-851.347,-66.406,165.649,-28.022,8.701,11.018
-829.256,-43.837,182.935,-28.225,7.863,10.801
-817.549,-33.353,185.193,-29.259,7.292,10.693
-837.792,-26.462,159.625,-30.027,6.589,10.516
-806.554,-28.657,168.598,-31.248,6.12,10.405
-834.787,-9.959,131.488,-31.936,5.657,10.172
-789.786,-19.006,129.957,-33.266,5.258,10.072
-793.587,-22.054,110.613,-34.523,4.47,9.841
-760.086,-23.782,106.785,-36.3,4.149,10.049
-762.617,-22.322,94.861,-37.13,3.674,10.472
-739.689,-41.002,88.048,-38.21,3.865,10.941
-725.301,-37.536,94.131,-38.874,3.877,11.378
-713.17,-38.545,98.175,-39.728,4.211,11.69
-702.636,-67.237,83.489,-39.699,4.639,11.916
-697.332,-58.928,86.994,-39.78,5.386,12.142
-676.31,-57.88,90.402,-39.585,5.61,12.141
-680.243,-42.608,92.816,-40.015,6.049,12.287
-683.587,-31.564,80.85,-39.796,6.164,12.407
-661.284,-36.528,91.438,-39.657,6.587,12.727
-669.66,-72.217,100.546,-39.084,6.899,12.7
-670.479,-72.451,98.479,-39.597,7.321,12.495
-661.684,-57.7,94.433,-39.575,7.227,12.337
-671.969,-73.651,102.803,-39.373,7.415,12.396
-686.573,-46.344,70.941,-38.122,7.277,12.327
-667.311,-54.479,79.341,-37.591,6.866,12.261
-666.297,-35.852,61.681,-36.331,6.088,12.007
-663.952,-32.643,32.949,-35.277,5.492,12.263
-656.87,-34.987,27.658,-34.27,3.953,13.143
-626.566,-35.949,38.946,-34.375,2.215,15.075
-628.696,-44.641,21.792,-33.569,0.943,17.18
-587.871,-50.375,22.38,-32.342,0.805,18.807
-600.153,-36.793,17.157,-30.09,0.667,19.739
-595.863,-37.797,13.477,-28.576,0.747,20.459
-602.019,-36.089,19.2,-26.962,0.681,20.975
-577.351,-40.97,32.632,-26.026,1.035,21.579
-602.137,-15.888,45.101,-24.723,1.229,22.199
-584.608,-28.486,13.617,-24.249,1.715,22.893
-607.444,-13.709,32.903,-23.962,1.952,23.589
-625.483,-1.325,40.768,-24.402,2.055,24.138
-650.694,-13.165,56.066,-24.416,1.621,24.369
-669.554,-1.956,57.654,-25.07,1.083,24.375
-667.57,-19.657,91.504,-25.426,0.271,24.075
-689.184,-20.478,62.398,-26.299,-0.355,23.5
-707.316,-16.597,75.406,-26.549,-1.113,22.747
-715.377,-32.078,98.115,-26.846,-1.66,22.124
-735.802,-25.28,87.917,-26.545,-2.745,21.506
-744.073,-17.209,91.255,-26.751,-3.606,20.911
-768.268,3.732,72.014,-26.363,-4.88,20.506
-747.2,5.525,56.988,-26.575,-6.371,20.293
-754.784,-1.343,49.786,-26.716,-8.297,20.846
-737.534,-10.64,63.324,-27.514,-10.32,22.017
-753.957,41.024,45.775,-27.646,-12.394,23.411
-746.632,7.402,43.863,-28.064,-13.416,24.504
-748.431,8.556,37.701,-27.871,-14.344,24.9
-710.866,6.799,36.723,-28.21,-14.951,25.258
-723.998,-2.227,24.396,-28.095,-15.707,25.498
-703.746,-30.176,30.785,-28.71,-16.049,25.948
-716.652,-43.766,18.023,-28.936,-16.569,26.601
-716.96,-42.707,25.495,-28.771,-16.639,27.431
-730.965,-45.372,12.719,-27.481,-16.858,28.092
-718.717,-60.641,15.929,-26.073,-16.909,28.134
-757.804,-69.445,27.184,-24.203,-17.025,27.555
-757.402,-100.348,9.248,-23.055,-17.016,26.772
-745.748,-74.177,19.68,-21.562,-17.471,26.02
-759.494,-76.531,27.544,-20.599,-17.496,25.661
-783.556,-60.258,38.1,-19.374,-17.518,25.272
-777.131,-63.499,45.331,-19.145,-17.231,24.84
-805.366,-62.91,41.785,-18.961,-17.134,24.383
-797.832,-36.381,33.955,-19.516,-16.876,23.895
-834.074,-55.428,35.894,-19.929,-17.011,23.279
-818.766,-30.863,40.513,-20.957,-17.116,22.632
-843.937,-8.988,53.628,-21.611,-17.688,21.887
-825.78,-24.249,51.257,-22.788,-17.717,21.338
-831.263,-4.08,71.799,-23.659,-18.149,21.107
-820.548,-10.112,86.702,-24.863,-18.088,21.167
-822.459,17.999,58.628,-25.524,-17.827,21.097
-832.451,9.891,92.955,-26.047,-16.975,20.83
-827.458,25.806,95.11,-25.397,-16.167,20.303
-840.78,27.066,86.746,-24.955,-15.367,19.668
-840.715,36.403,120.369,-23.906,-14.936,18.983
-859.885,19.672,106.215,-23.311,-14.059,18.5
-887.918,40.158,130.341,-21.768,-13.675,17.953
-883.413,39.824,114.978,-20.3,-12.775,17.636
-901.356,47.666,126.606,-18.526,-12.056,17.482
-931.065,56.485,114.969,-17.189,-11.266,17.63
-947.212,64.287,139.472,-15.255,-10.857,17.829
-933.581,61.826,128.812,-13.8,-10.196,18.197
-955.377,68.331,107.113,-11.876,-9.645,18.558
-936.895,54.57,97.405,-10.641,-9.0,19.019
-934.804,62.263,109.738,-9.186,-8.615,19.546
-912.571,41.154,105.6,-8.381,-8.307,20.191
-922.757,64.497,77.46,-7.042,-7.728,20.826
-904.292,40.392,86.961,-6.604,-6.805,21.45
-903.02,44.711,93.453,-5.894,-5.756,21.788
-893.595,28.755,100.822,-5.583,-4.392,21.753
-893.796,30.611,116.118,-5.083,-2.977,20.976
-869.61,31.414,125.564,-5.646,-1.067,19.856
-891.147,21.608,110.142,-5.668,0.654,18.751
-901.421,20.966,132.619,-5.939,2.708,17.61
-926.661,0.112,139.862,-6.17,4.092,16.583
-926.652,-5.276,141.69,-7.191,5.237,15.761
-943.004,3.598,163.527,-7.361,6.053,14.915
-934.074,-0.826,151.801,-7.444,7.162,14.129
-944.324,20.498,159.376,-7.1,7.918,12.823
-926.423,-5.159,169.219,-7.294,8.8,11.479
-927.803,42.292,167.05,-7.605,9.302,9.988
-898.13,28.896,161.449,-8.557,9.656,9.267
-905.875,35.727,177.278,-8.775,9.674,8.905
-885.147,26.567,176.651,-9.153,9.652,8.827
-877.291,20.128,172.45,-9.197,9.129,8.637
-883.128,23.767,191.816,-10.044,8.634,8.387
-895.226,21.895,189.063,-10.274,7.837,8.137
-881.065,19.71,215.903,-9.996,7.681,7.796
-874.367,20.016,204.139,-8.69,7.98,6.696
-883.341,49.372,212.818,-8.199,8.321,4.993
-906.721,48.862,216.488,-8.316,8.194,3.274
-901.502,68.537,220.924,-9.394,7.9,2.056
-888.07,69.864,213.113,-10.409,7.303,1.328
-909.188,75.869,229.631,-11.898,7.152,1.002
-914.569,67.625,249.649,-12.914,6.969,0.601
-905.83,62.851,270.476,-14.021,6.798,0.291
-902.937,49.526,235.081,-14.15,6.305,-0.032
-920.758,26.091,248.486,-14.186,5.961,-0.328
-939.61,34.395,251.308,-13.451,5.437,-0.746
-947.365,41.993,238.225,-12.906,4.976,-1.111
-937.022,17.951,233.129,-12.12,4.151,-1.362
-948.43,32.856,246.425,-12.077,3.49,-1.294
-968.591,44.498,233.365,-11.885,2.312,-1.13
-982.107,45.163,225.184,-12.457,1.156,-0.688
-991.525,35.947,205.024,-13.058,-0.296,-0.499
-987.41,42.539,208.964,-14.364,-1.695,-0.338
-1000.833,40.091,206.814,-15.05,-2.93,-0.213
-981.315,34.258,176.75,-15.794,-3.504,0.068
-989.783,11.958,166.323,-15.84,-3.839,-0.008
-977.796,1.24,171.503,-16.509,-3.807,-0.036
-988.054,12.638,158.634,-17.163,-3.776,-0.064
-975.368,19.914,137.777,-18.522,-3.726,0.109
-984.316,30.231,129.697,-19.209,-3.479,0.159
-959.111,23.121,129.763,-20.021,-2.648,-0.066
-959.758,35.854,150.071,-20.295,-1.716,-0.758
-948.549,9.449,122.728,-20.874,-0.759,-1.523
-964.795,20.423,140.707,-20.616,0.056,-2.253
-950.016,-5.858,134.951,-20.464,1.37,-2.889
-948.469,4.754,136.299,-19.559,2.611,-3.483
-958.862,13.597,165.371,-19.091,4.272,-4.11
-965.639,-0.199,149.539,-18.344,5.713,-4.734
-946.696,-3.495,161.203,-18.091,7.339,-5.002
-953.564,25.248,166.066,-17.269,8.527,-5.0
-940.412,8.309,176.813,-16.604,9.912,-4.8
-944.542,29.733,196.004,-15.522,10.614,-4.552
-942.528,37.872,193.285,-15.148,11.165,-4.188
-984.735,54.53,214.38,-14.607,11.414,-3.757
-968.939,53.227,205.396,-15.037,11.452,-2.933
-960.711,75.092,237.036,-15.382,10.878,-2.106
-967.712,76.876,234.126,-16.036,10.097,-1.129
-946.858,94.317,230.594,-16.262,9.237,-0.289
-964.82,85.25,240.751,-17.237,8.269,0.466
-954.726,73.22,215.869,-18.008,7.021,1.168
-920.715,64.384,217.978,-19.006,5.773,1.946
-925.202,85.121,197.836,-18.957,4.709,2.566
-915.652,80.388,187.271,-19.065,3.921,3.042
-899.214,76.993,186.021,-18.76,2.857,3.148
-898.945,62.679,175.064,-19.012,2.117,3.384
-861.15,43.607,188.055,-18.844,1.404,3.605
-866.686,64.268,173.871,-18.772,0.962,3.814
-882.765,58.737,172.563,-18.204,0.503,4.008
-842.174,42.792,168.125,-18.291,0.204,4.24
-876.04,43.043,167.361,-18.089,-0.162,4.169
-884.102,33.179,145.941,-18.175,-0.133,4.165
-860.577,21.937,134.994,-17.924,-0.317,3.751
-855.087,25.494,140.202,-18.376,-0.592,3.366
-855.526,11.408,140.35,-18.642,-1.326,3.064
-875.77,33.033,143.764,-19.489,-1.974,3.097
-868.867,35.326,159.418,-19.766,-2.635,3.009
-879.642,45.073,146.916,-20.348,-2.745,2.662
-878.085,46.984,140.869,-20.807,-3.1,2.027
-870.387,49.758,143.397,-21.5,-3.155,1.574
-867.237,56.678,133.786,-21.702,-3.463,1.247
-867.43,56.703,119.77,-21.946,-3.343,1.358
-886.303,55.979,127.655,-21.621,-3.412,1.638
-877.845,67.74,121.307,-21.602,-2.856,2.123
-889.275,61.37,136.129,-20.908,-2.483,2.499
-885.094,67.982,133.593,-20.661,-1.942,3.093
-899.244,86.81,123.607,-19.809,-1.599,3.776
-909.422,77.695,131.623,-19.494,-1.245,4.446
-916.879,95.131,142.192,-18.627,-1.155,5.1
-910.1,72.715,163.118,-18.173,-0.866,5.428
-934.605,82.261,165.257,-17.399,-0.697,5.4
-928.407,95.303,178.62,-17.298,-0.324,5.51
-931.641,98.324,164.908,-16.756,-0.07,5.664
-946.886,83.513,151.264,-16.592,0.436,6.229
-954.449,95.905,168.951,-15.816,0.782,7.048
-966.501,84.631,170.587,-15.202,1.253,7.893
-982.093,91.347,180.861,-14.388,1.131,8.485
-963.852,83.62,179.088,-14.545,0.946,9.116
-1000.671,109.242,188.787,-14.168,0.393,9.643
-993.602,86.798,176.302,-14.188,-0.223,10.152
-992.126,107.938,180.991,-13.997,-0.935,10.463
-974.078,94.392,168.882,-14.332,-1.434,10.81
-980.851,84.782,184.257,-14.225,-2.135,10.981
-974.241,72.055,166.221,-14.874,-2.501,11.27
-979.761,86.77,146.954,-15.643,-3.201,11.613
-974.896,62.761,159.05,-16.848,-3.66,12.024
-987.317,71.073,148.477,-17.285,-4.347,12.164
-974.903,75.445,162.445,-17.818,-4.514,12.087
-978.46,69.645,152.155,-17.985,-4.883,11.622
-952.171,39.218,165.625,-18.461,-4.92,11.073
-974.527,62.509,157.027,-18.218,-5.193,10.705
-951.841,40.914,150.755,-18.377,-5.284,10.834
-968.317,51.442,159.576,-17.777,-5.548,11.001
-958.786,38.733,160.19,-17.322,-5.289,11.206
-981.735,56.254,176.173,-16.477,-5.007,11.209
-988.864,38.479,164.37,-16.083,-4.431,11.129
-984.204,59.231,154.156,-15.182,-4.216,11.209
-968.96,67.912,163.144,-14.872,-3.666,11.568
-977.511,76.859,172.307,-14.044,-3.458,11.95
-974.053,78.227,175.586,-13.763,-3.389,12.445
-990.356,84.668,184.966,-13.487,-3.622,12.808
-961.319,63.587,186.247,-13.964,-3.579,13.429
-979.463,71.616,168.935,-13.813,-3.632,14.247
-973.488,54.755,172.104,-13.691,-3.235,15.053
-979.569,52.251,189.289,-13.196,-3.14,15.769
-983.177,65.232,192.966,-13.32,-2.999,16.495
-980.684,58.442,172.256,-12.998,-2.97,16.979
-992.354,46.258,179.953,-13.093,-2.67,17.44
-998.692,47.292,187.558,-12.745,-2.765,17.436
-978.508,55.107,193.597,-13.189,-2.777,17.442
-1000.256,66.264,185.106,-13.336,-2.802,17.473
-988.562,53.27,187.607,-13.63,-2.659,17.899
-1003.667,78.934,180.675,-13.321,-2.681,18.442
-995.604,61.788,180.387,-13.411,-2.786,19.004
-985.048,58.363,186.246,-13.152,-3.041,19.535
-1003.931,46.127,175.735,-13.141,-3.319,20.062
-1032.776,41.15,153.446,-12.527,-3.714,20.426
-1012.786,46.066,161.777,-12.425,-3.864,20.813
-1012.046,37.398,149.042,-12.136,-4.243,21.304
-1000.76,32.434,127.098,-12.371,-4.255,21.821
-1031.426,33.271,151.352,-12.322,-4.57,22.444
-997.353,50.2,126.271,-12.792,-4.778,23.11
-1020.876,50.343,147.33,-13.017,-5.132,23.669
-994.238,62.017,155.403,-13.783,-4.855,23.809
-998.105,47.835,149.586,-14.125,-4.759,23.545
-1013.982,32.542,155.653,-15.039,-4.081,23.162
-1009.155,48.796,152.644,-15.505,-3.71,22.647
-999.694,57.993,145.456,-16.359,-3.215,21.991
-1008.527,67.0,165.935,-16.757,-3.027,21.24
-1001.075,34.257,194.115,-17.347,-2.993,20.574
-1002.368,75.277,184.213,-17.556,-3.107,20.104
-970.19,46.584,186.145,-18.046,-2.749,19.882
-989.818,41.904,198.001,-18.038,-2.636,19.519
-963.856,43.63,196.753,-17.946,-2.297,19.277
-986.0,65.789,210.204,-17.466,-2.011,18.871
-961.087,52.146,210.794,-17.596,-1.697,18.466
-982.759,77.499,214.611,-17.419,-1.934,18.078
-956.188,62.039,215.155,-17.935,-2.23,17.93
-987.577,79.2,216.447,-18.317,-2.918,17.984
-968.515,71.926,217.139,-19.059,-3.703,18.239
-990.576,85.528,230.955,-19.233,-4.629,18.344
-964.386,87.232,210.099,-19.733,-5.142,18.296
-964.485,82.148,218.455,-19.98,-5.943,17.896
-981.691,82.836,217.076,-20.567,-6.82,17.683
-969.762,88.6,204.392,-20.894,-7.887,17.537
-938.889,111.281,209.381,-21.446,-8.511,17.523
-952.113,99.789,211.826,-21.685,-9.566,17.327
-945.091,106.056,221.337,-22.806,-10.448,17.158
-949.192,106.191,190.57,-23.579,-11.351,17.055
-921.164,96.644,212.395,-24.395,-11.73,17.23
-926.564,104.977,200.121,-24.322,-12.122,17.23
-904.93,98.788,202.647,-24.732,-11.999,17.04
-912.655,112.529,211.845,-25.173,-12.228,16.622
-900.508,93.545,191.303,-26.166,-12.29,16.468
-908.653,114.668,180.164,-26.572,-12.802,16.353
-870.523,121.692,177.395,-27.026,-13.138,16.575
-907.622,128.598,189.761,-26.623,-13.431,16.537
-894.03,94.997,185.159,-26.418,-13.319,16.332
-904.217,118.888,180.478,-25.985,-13.413,15.936
-890.438,98.408,191.636,-26.352,-13.282,15.518
-888.875,117.457,180.41,-26.659,-13.669,15.246
-865.567,108.934,179.705,-27.178,-13.864,15.375
-867.137,121.727,157.299,-26.627,-13.947,15.439
-875.696,111.867,159.7,-26.233,-13.736,15.283
-889.195,115.581,183.191,-25.634,-13.748,14.776
-868.867,86.342,150.831,-25.616,-13.791,14.153
-878.716,84.102,174.319,-25.346,-14.075,13.514
-870.523,118.054,155.581,-25.549,-14.378,12.974
-875.433,85.578,168.162,-25.36,-15.237,12.409
-872.52,87.611,154.529,-25.559,-15.682,11.784
-832.881,97.199,140.255,-25.338,-15.797,11.109
-833.058,103.739,124.455,-25.457,-15.434,10.239
-833.892,105.687,135.442,-25.064,-15.136,9.512
-825.811,108.012,120.13,-24.775,-14.515,8.885
-844.695,115.569,105.724,-24.353,-14.411,8.532
-845.183,123.83,108.245,-24.431,-14.251,8.451
-852.283,148.071,101.738,-23.953,-14.209,8.441
-863.121,148.822,131.736,-23.66,-13.785,8.252
-850.261,176.048,126.503,-22.792,-13.498,7.837
-895.919,164.402,148.318,-22.469,-12.764,7.443
-895.67,176.63,131.544,-21.762,-12.33,7.254
-880.33,182.356,148.551,-21.701,-11.859,7.46
-878.099,186.366,140.196,-21.103,-11.637,7.89
-882.722,194.834,147.139,-20.677,-11.244,8.587
-870.507,201.248,129.848,-19.849,-10.95,9.156
-890.16,194.439,135.534,-19.26,-10.195,9.623
-891.804,202.339,153.708,-18.461,-9.764,9.6
-872.918,178.84,172.551,-18.232,-8.624,9.725
-879.857,189.052,161.414,-17.489,-7.374,9.614
-875.224,172.393,165.916,-16.624,-5.701,9.709
-889.344,172.501,154.783,-15.342,-4.441,9.722
-895.335,141.995,171.148,-14.631,-3.445,9.795
-926.917,169.615,166.005,-13.922,-3.066,10.0
-939.952,142.727,170.057,-13.609,-2.899,10.251
-945.123,142.776,166.353,-12.844,-3.177,10.407
-937.82,155.985,183.084,-12.415,-3.461,10.549
-939.764,144.163,190.009,-11.492,-4.024,10.405
-953.915,165.391,188.396,-11.017,-4.305,10.142
-955.343,170.16,179.932,-10.268,-4.571,9.602
-935.486,166.417,200.355,-10.245,-4.593,9.233
-953.437,173.035,206.844,-10.297,-5.04,9.005
-926.086,185.618,187.856,-10.915,-5.438,9.215
-963.599,182.319,191.656,-11.001,-6.084,9.64
-940.463,174.546,214.961,-11.123,-6.356,9.886
-957.575,167.244,197.82,-11.038,-6.705,9.683
-951.663,172.107,182.204,-11.534,-6.78,9.414
-954.506,168.634,189.14,-11.637,-7.181,9.097
-944.734,155.757,181.708,-12.007,-7.447,9.162
-937.156,149.0,189.653,-11.821,-8.123,9.271
-939.147,159.703,188.238,-11.95,-8.469,9.387
-955.375,139.307,175.688,-11.536,-9.048,9.25
-919.789,142.706,174.253,-11.561,-9.162,9.284
-931.639,112.366,175.585,-10.854,-9.574,9.303
-927.689,116.616,179.918,-10.385,-10.021,9.759
-926.937,110.64,190.927,-9.207,-10.586,10.053
-916.236,103.28,175.93,-8.594,-10.86,10.234
-908.244,90.112,164.264,-7.61,-11.327,10.145
-884.917,85.135,155.045,-7.088,-11.54,10.191
-905.499,79.351,146.281,-6.169,-11.67,10.305
-860.048,82.534,139.341,-5.952,-11.275,10.36
-883.224,97.115,161.237,-5.668,-11.171,10.23
-847.922,90.649,167.688,-6.042,-10.878,10.335
-849.095,110.237,167.741,-5.978,-10.659,10.412
-852.794,98.317,185.454,-6.244,-10.002,10.485
-873.272,122.061,167.758,-5.788,-9.444,10.321
-865.376,99.669,184.91,-5.747,-8.713,10.209
-889.537,95.772,178.91,-5.024,-8.293,10.102
-905.659,111.946,180.99,-4.653,-7.909,10.111
-917.256,134.458,177.456,-3.892,-7.987,10.205
-893.929,118.988,191.867,-3.6,-8.03,10.589
-921.41,131.741,188.354,-2.611,-8.114,11.122
-908.774,143.534,176.303,-1.63,-7.827,11.63
-933.034,130.055,190.891,-0.167,-7.567,11.854
-922.641,139.211,183.883,0.691,-7.04,12.077
-912.216,143.008,178.347,1.694,-6.649,12.049
-913.435,144.103,175.145,2.152,-6.052,12.325
-916.402,147.177,161.976,2.952,-5.731,12.822
-910.999,154.182,173.977,3.475,-5.311,13.385
-904.729,140.017,174.512,4.207,-4.743,13.713
-913.979,132.192,173.081,4.474,-3.662,13.903
-923.741,150.586,173.518,5.196,-2.851,13.708
-903.078,152.067,180.557,5.58,-1.705,13.456
-902.521,165.91,191.213,6.011,-0.941,13.186
-887.734,142.188,186.659,5.845,-0.227,13.048
-915.545,183.357,191.348,5.845,0.266,13.044
-908.902,182.884,203.231,5.404,1.069,13.146
-909.354,188.605,210.804,5.425,1.679,13.275
-923.949,181.631,210.972,5.204,2.412,13.48
-937.393,204.229,199.562,5.445,2.982,13.578
-926.469,199.957,227.025,5.231,3.331,13.46
-969.737,198.786,221.506,5.03,3.185,13.403
-955.228,202.649,237.171,4.252,2.816,13.554
-938.13,198.82,243.243,4.283,2.208,13.812
-961.746,200.833,243.571,4.462,1.9,14.147
-960.437,194.739,257.075,5.244,1.845,14.245
-963.824,189.091,239.163,5.509,2.139,14.118
-975.136,180.956,237.114,5.937,1.867,14.029
-971.413,186.63,235.783,5.968,1.629,14.38
-964.374,205.015,235.389,6.461,1.361,14.76
-953.335,189.884,235.488,6.551,1.182,15.253
-934.515,199.696,222.451,7.087,1.097,15.462
-892.327,184.223,231.473,6.989,1.653,15.432
-928.912,197.773,229.322,7.294,2.047,15.099
-891.435,156.091,240.485,7.127,3.113,14.912
-907.209,160.681,227.558,7.423,4.094,14.619
-897.468,151.475,253.185,7.173,5.191,14.615
-922.841,159.527,240.845,7.46,5.725,14.77
-925.791,162.447,268.541,7.069,6.258,15.218
-940.606,181.859,257.657,7.02,6.412,15.417
-919.369,173.341,266.521,6.365,6.693,15.466
-926.94,159.234,265.706,6.059,6.534,15.447
-900.915,168.84,293.198,5.4,6.391,15.412
-928.363,176.639,280.833,5.152,6.157,15.58
-911.503,155.498,291.474,4.505,6.078,15.78
-928.19,162.67,273.607,4.248,5.637,15.998
-940.744,153.376,276.343,3.196,5.377,16.326
-942.901,180.338,276.945,2.464,4.648,16.692
-949.758,165.382,268.167,1.167,3.833,16.98
-967.294,184.614,263.503,0.283,2.846,17.178
-970.578,158.417,254.584,-1.454,1.58,17.23
-980.486,168.777,261.588,-3.12,-0.204,17.066
-954.208,170.096,248.861,-5.134,-1.561,16.936
-969.014,167.418,252.478,-6.323,-3.006,16.49
-954.152,148.351,241.308,-7.396,-3.829,15.811
-936.858,137.386,250.115,-7.726,-4.47,14.844
-958.178,130.519,237.863,-8.427,-4.645,13.954
-935.794,131.43,244.904,-8.735,-5.029,13.153
-934.97,128.333,250.266,-9.19,-5.288,12.734
-951.972,139.343,245.774,-8.905,-5.565,12.529
-951.988,128.783,245.361,-8.66,-5.501,12.481
-940.22,122.03,248.121,-8.205,-5.681,12.382
-939.792,139.458,248.441,-8.216,-5.676,12.256
-952.214,120.911,246.373,-7.909,-6.293,12.173
-955.463,112.398,242.574,-8.347,-6.875,12.283
-938.256,147.322,255.883,-8.777,-7.648,12.427
-948.215,144.001,242.48,-9.574,-8.325,12.733
-938.618,159.589,241.194,-10.216,-9.12,12.996
-926.735,137.485,251.864,-11.266,-9.628,13.304
-930.47,134.569,240.322,-11.99,-10.35,13.286
-924.8,121.924,232.528,-12.735,-10.817,13.46
-927.613,110.876,230.888,-12.658,-11.158,13.35
-897.627,82.982,222.65,-12.608,-10.909,13.259
-909.384,93.511,221.657,-12.034,-10.848,12.99
-904.148,84.901,222.554,-11.68,-10.391,12.6
-885.977,81.04,206.819,-10.844,-9.827,12.299
-888.043,95.537,196.215,-10.572,-8.874,12.229
-912.697,82.693,211.414,-9.641,-8.335,11.977
-920.873,95.067,195.154,-9.172,-7.482,11.654
-938.641,119.278,216.645,-8.46,-6.786,10.993
-922.474,134.384,227.03,-8.409,-6.087,10.124
-946.025,128.138,205.225,-8.115,-5.706,9.257
-941.389,144.974,209.882,-8.521,-5.115,8.523
-982.155,173.356,207.663,-8.78,-4.98,7.927
-939.766,166.754,210.186,-9.493,-4.831,7.551
-965.107,199.969,215.03,-9.431,-4.81,7.244
-957.116,209.289,228.657,-9.595,-4.366,6.78
-960.43,202.907,222.068,-9.145,-4.112,6.125
-959.718,212.004,220.085,-9.113,-3.814,5.427
-963.971,198.852,226.712,-9.138,-3.814,4.707
-956.139,215.409,229.642,-9.788,-3.755,4.618
-946.902,218.705,222.643,-9.484,-3.809,4.701
-941.084,206.831,221.121,-9.019,-3.638,4.87
-931.005,226.889,220.685,-8.083,-3.478,4.721
-905.364,197.167,235.367,-7.8,-3.129,4.26
-921.556,194.189,239.336,-7.223,-3.042,3.589
-906.087,190.112,249.609,-7.051,-2.685,3.246
-904.853,213.114,235.911,-6.292,-2.184,2.856
-911.879,205.939,241.62,-6.11,-1.465,2.601
-934.982,221.169,253.179,-5.641,-1.245,2.282
-901.984,238.248,255.484,-5.614,-0.891,1.907
-903.402,226.016,274.44,-5.42,-0.673,1.348
-896.417,221.994,262.567,-6.004,-0.176,0.631
-900.176,243.134,272.482,-6.427,-0.174,-0.084
-903.366,224.368,273.29,-7.241,-0.217,-0.482
-895.111,239.289,303.799,-7.401,-0.525,-0.617
-898.167,219.978,286.886,-7.977,-0.729,-0.579
-909.993,252.496,295.141,-7.949,-1.278,-0.676
-902.59,225.782,291.184,-8.102,-1.608,-0.82
-913.899,238.017,300.038,-7.855,-2.299,-1.057
-922.098,219.835,290.927,-8.012,-2.944,-1.018
-932.841,207.974,286.964,-7.485,-3.831,-0.954
-908.527,218.416,275.478,-7.148,-4.196,-0.709
-941.781,197.742,273.666,-6.161,-4.918,-0.54
-929.144,203.526,261.032,-5.541,-5.34,-0.551
-938.161,226.227,263.453,-4.93,-6.207,-0.569
-927.705,189.881,264.786,-4.978,-7.001,-0.551
-937.143,226.627,262.135,-4.836,-8.162,-0.601
-936.098,201.926,244.924,-5.192,-8.822,-0.661
-917.808,213.383,237.623,-5.479,-9.581,-1.128
-915.039,197.665,231.963,-6.452,-9.976,-1.651
-924.757,203.007,233.442,-7.144,-10.156,-1.984
-883.074,198.171,228.075,-7.761,-9.905,-2.019
-897.431,214.56,221.833,-8.015,-9.496,-2.305
-908.748,185.627,224.478,-8.353,-8.885,-2.75
-897.1,191.897,215.351,-8.046,-8.18,-3.372
-890.771,172.758,217.927,-8.073,-7.165,-4.077
-894.536,170.782,225.767,-7.559,-6.247,-4.786
-882.069,177.709,239.32,-7.402,-5.427,-5.313
-891.137,152.828,232.332,-6.933,-4.942,-5.469
-872.067,159.802,238.364,-6.67,-4.095,-5.467
-894.079,180.844,234.796,-5.892,-3.787,-5.375
-888.568,165.798,261.547,-5.442,-3.024,-5.165
-908.358,180.481,258.266,-4.801,-2.251,-5.344
-909.406,177.912,277.878,-5.051,-1.28,-5.534
-919.368,204.664,275.739,-4.856,-0.744,-5.81
-927.633,186.597,284.353,-5.153,-0.517,-5.971
-926.202,200.73,279.682,-4.959,-0.834,-6.074
-931.07,184.733,285.708,-5.329,-1.03,-6.203
-948.646,201.716,285.134,-5.478,-1.548,-6.515
-938.45,184.971,296.366,-5.997,-2.201,-6.854
-946.994,180.86,284.09,-6.006,-2.874,-6.946
-912.734,174.122,271.933,-6.007,-3.113,-6.912
-909.882,187.967,287.158,-5.564,-3.422,-7.046
-919.702,167.699,259.98,-5.433,-3.368,-7.297
-906.547,173.812,269.366,-5.262,-3.363,-7.778
-903.517,192.58,269.933,-5.595,-3.169,-7.942
-895.024,199.587,277.148,-5.4,-2.937,-8.089
-906.058,193.91,284.978,-5.559,-2.488,-8.32
-886.767,204.756,291.44,-5.578,-2.201,-8.788
-896.22,205.592,294.0,-6.223,-1.761,-9.45
-896.044,211.392,309.232,-6.362,-1.689,-9.861
-930.039,207.907,303.379,-6.682,-1.44,-10.105
-924.604,214.499,319.08,-6.583,-1.743,-10.501
-921.033,231.143,329.378,-7.012,-1.853,-10.606
-936.171,232.985,332.909,-7.178,-2.173,-10.647
-962.025,237.24,341.321,-8.047,-2.46,-10.597
-946.735,239.688,353.6,-8.471,-2.809,-10.523
-966.393,246.796,362.61,-9.218,-3.148,-10.492
-982.167,261.888,347.607,-9.637,-4.023,-10.664
-973.582,244.31,381.256,-10.736,-4.84,-10.639
-986.469,260.817,371.869,-11.684,-6.015,-10.519
-969.122,270.688,355.923,-13.039,-7.048,-10.41
-961.038,244.086,345.021,-13.842,-8.439,-10.361
-946.211,225.302,342.229,-15.179,-9.443,-10.069
-962.229,232.571,341.091,-15.764,-10.588,-9.854
-919.303,219.828,338.048,-16.256,-11.139,-9.704
-936.602,195.085,328.725,-16.008,-11.45,-9.774
-903.694,169.024,316.441,-16.137,-11.371,-9.929
-898.415,172.628,334.579,-15.854,-11.126,-10.118
-882.735,154.915,314.897,-15.784,-10.663,-9.979
-897.473,163.004,295.123,-15.201,-10.431,-9.775
-871.474,158.646,294.314,-15.027,-10.09,-9.568
-913.536,159.947,291.113,-14.676,-10.192,-9.433
-890.681,143.65,309.693,-14.86,-10.396,-9.3
-883.68,152.039,314.894,-14.89,-10.685,-9.349
-883.044,166.235,321.168,-15.466,-10.761,-9.566
-905.084,186.869,317.363,-15.735,-11.135,-9.985
-895.364,169.828,325.661,-16.303,-11.233,-10.329
-902.661,185.139,326.76,-16.752,-11.555,-10.58
-912.554,201.649,344.635,-17.691,-11.993,-10.667
-920.438,199.172,336.721,-18.478,-12.81,-10.466
-897.265,194.527,324.251,-19.474,-13.166,-9.994
-900.618,197.229,320.771,-19.932,-14.025,-9.752
-878.794,163.332,320.052,-20.896,-14.666,-9.43
-896.565,154.059,304.221,-21.418,-15.627,-9.181
-877.163,160.321,317.102,-21.985,-16.34,-8.729
-867.249,142.458,309.197,-21.706,-16.648,-8.362
-842.555,151.292,305.863,-21.637,-16.731,-7.991
-846.815,146.885,280.409,-21.014,-17.001,-7.839
-851.659,145.6,288.818,-20.658,-16.831,-7.604
-846.462,128.984,283.986,-19.919,-16.744,-7.484
-846.131,122.051,289.448,-19.717,-16.444,-7.218
-850.988,124.923,281.734,-19.168,-16.604,-6.883
-814.592,111.406,267.481,-18.66,-16.537,-6.369
-825.513,128.111,263.307,-17.456,-16.76,-5.936
-835.792,101.009,271.138,-16.525,-16.563,-5.684
-837.045,107.907,264.926,-15.105,-16.541,-5.87
-824.325,91.889,240.793,-14.001,-16.244,-6.108
-833.696,100.161,260.159,-12.268,-15.911,-6.367
-822.528,106.709,271.22,-10.578,-15.191,-6.447
-820.718,113.571,247.896,-8.717,-14.216,-6.833
-848.52,124.593,266.506,-7.695,-13.132,-7.14
-843.325,128.147,263.996,-6.626,-12.292,-7.241
-861.621,128.9,254.453,-5.782,-11.499,-7.084
-875.916,147.397,255.422,-4.778,-10.841,-6.815
-890.072,163.756,248.752,-4.745,-10.174,-6.787
-906.031,204.906,259.806,-5.069,-10.349,-6.92
-905.917,202.13,253.193,-6.322,-10.574,-7.077
-919.885,205.647,247.668,-7.333,-11.141,-7.31
-884.816,215.534,249.168,-8.495,-11.676,-7.578
-915.444,240.073,251.815,-9.316,-12.049,-8.085
-888.979,222.363,259.259,-10.555,-12.307,-8.84
-886.1,220.694,239.439,-11.081,-12.453,-9.325
-862.275,215.68,261.101,-11.598,-12.306,-9.468
-869.035,223.878,249.205,-11.022,-12.132,-9.401
-841.443,206.797,257.436,-10.33,-11.416,-9.028
-854.026,186.302,248.877,-8.77,-10.537,-8.471
-828.101,180.737,259.616,-7.189,-9.293,-7.744
-829.483,174.458,239.688,-4.826,-8.15,-6.961
-833.636,155.4,257.643,-2.581,-6.814,-6.158
-850.787,150.788,250.062,0.118,-5.756,-5.48
-867.065,154.181,275.835,2.086,-4.807,-4.631
-876.021,155.162,269.638,4.006,-4.144,-3.833
-844.6,172.794,269.396,5.082,-3.494,-3.052
-872.672,169.987,273.312,6.147,-3.03,-2.414
-867.934,166.678,308.425,6.718,-2.566,-2.032
-878.826,171.47,325.425,7.175,-2.266,-1.867
-882.338,197.934,341.979,7.053,-1.768,-1.909
-888.098,173.341,333.063,6.965,-1.523,-2.033
-912.71,183.509,354.508,6.214,-1.114,-2.09
-925.481,203.761,351.161,5.703,-1.18,-2.059
-935.093,193.24,367.984,4.781,-1.274,-1.791
-951.466,178.203,363.736,4.696,-1.873,-1.533
-951.979,169.067,358.701,4.684,-2.498,-1.421
-964.615,157.568,354.68,5.272,-3.477,-1.546
-957.867,147.452,363.65,5.515,-4.331,-1.881
-967.751,138.918,345.997,6.271,-5.356,-2.292
-967.432,128.158,325.961,6.922,-5.841,-2.587
-960.656,133.725,323.986,7.947,-6.458,-2.942
-944.175,107.745,286.012,8.213,-7.022,-3.236
-932.378,98.986,255.313,8.563,-7.808,-3.316
-934.948,91.523,278.303,8.265,-8.357,-3.287
-921.627,82.105,274.337,7.891,-8.744,-3.332
-901.949,101.255,242.782,6.578,-8.844,-3.67
-863.031,66.828,233.03,5.398,-8.994,-4.254
-839.222,58.853,229.884,3.837,-8.15,-4.911
-815.453,79.023,228.022,2.696,-7.019,-5.769
-792.382,89.92,231.962,1.432,-5.491,-6.773
-769.005,77.21,259.274,0.38,-3.79,-7.732
-753.589,54.657,270.883,-1.119,-1.716,-8.445
-733.541,49.78,260.78,-2.013,0.111,-9.076
-740.988,76.122,299.154,-2.638,2.195,-9.409
-743.323,50.335,323.549,-2.098,4.028,-9.58
-722.356,66.817,325.751,-1.492,5.688,-9.664
-752.569,57.202,330.072,-0.091,6.586,-9.976
-764.225,74.474,372.454,1.079,7.09,-10.168
-773.705,98.751,366.816,2.596,7.171,-10.293
-781.002,101.83,384.471,3.66,7.142,-10.411
-779.677,101.877,382.172,5.107,6.541,-10.449
-782.252,122.002,401.417,5.971,6.044,-10.175
-819.116,146.206,397.415,7.03,5.233,-9.68
-826.08,151.358,406.671,7.668,4.121,-9.006
-837.26,149.501,404.273,8.787,2.861,-8.253
-833.437,165.481,403.002,9.776,1.759,-7.645
-847.452,169.243,380.497,11.098,0.352,-7.335
-862.921,148.823,380.975,11.682,-0.636,-7.049
-885.827,182.824,361.612,12.201,-1.792,-6.825
-889.289,197.165,357.256,11.984,-2.951,-6.502
-896.405,202.781,351.059,11.857,-4.34,-5.959
-891.998,217.488,340.105,10.952,-5.587,-5.589
-921.389,217.825,321.216,10.138,-6.982,-5.296
-894.801,211.429,322.963,8.534,-8.008,-5.251
-908.045,223.362,325.079,7.144,-8.978,-5.378
-885.26,206.384,294.087,5.298,-9.42,-5.425
-908.019,217.713,323.424,3.553,-9.899,-5.433
-890.933,223.263,301.379,1.348,-9.764,-5.233
-874.488,192.215,277.376,-0.479,-9.899,-5.016
-869.953,162.34,287.153,-2.317,-9.864,-4.707
-910.796,149.869,275.605,-3.221,-9.882,-4.578
-883.062,138.475,303.761,-3.932,-9.553,-4.606
-917.275,133.602,297.858,-3.853,-9.496,-5.125
-925.466,109.458,282.539,-3.665,-9.104,-5.703
-937.493,74.145,291.485,-2.833,-8.941,-6.554
-935.486,65.819,279.504,-2.084,-8.4,-7.537
-928.482,51.477,274.256,-0.912,-8.028,-8.4
-965.058,30.305,257.248,-0.315,-7.955,-8.825
-955.602,19.324,264.986,0.89,-8.094,-8.836
-945.521,39.771,250.877,1.972,-8.2,-8.69
-964.04,41.011,259.081,3.546,-8.094,-8.791
-941.251,14.591,253.485,4.663,-7.45,-9.291
-947.076,40.846,263.373,5.911,-6.449,-10.329
-928.688,48.537,244.843,6.736,-5.207,-11.366
-950.833,56.273,254.782,8.039,-3.627,-12.203
-934.666,81.345,242.421,8.7,-1.601,-12.486
-920.361,95.394,253.194,9.294,0.027,-12.528
-933.225,79.234,256.897,9.4,1.396,-12.43
-931.422,108.841,238.763,9.723,2.418,-12.213
-923.935,88.776,256.609,9.788,3.119,-12.064
-921.999,96.873,254.116,10.436,3.697,-12.289
-884.338,101.096,254.39,10.889,4.895,-12.692
-874.259,98.045,249.224,11.707,5.991,-13.208
-855.739,92.112,269.437,12.076,7.257,-13.289
-843.665,97.387,253.029,12.729,8.568,-12.892
-831.344,105.156,276.348,12.894,9.951,-11.909
-816.686,102.684,285.11,13.484,11.137,-10.971
-819.941,121.753,286.162,13.794,12.777,-10.131
-814.201,122.398,299.814,14.267,14.062,-9.773
-799.186,105.002,317.503,14.417,15.361,-9.561
-795.545,129.546,325.417,15.004,16.538,-9.591
-809.819,120.282,328.075,15.432,18.023,-9.685
-802.047,131.807,336.26,16.108,18.945,-9.731
-812.882,160.16,346.351,16.351,19.9,-9.443
-821.608,144.491,351.403,16.856,20.21,-9.286
-819.102,165.746,379.536,16.92,20.336,-9.002
-847.281,173.378,389.329,17.369,19.667,-8.852
-826.259,143.37,405.885,17.428,18.907,-8.723
-826.96,151.547,388.554,17.99,17.875,-8.593
-840.649,155.9,387.108,18.221,17.01,-8.562
-831.091,158.577,397.648,18.873,16.018,-8.548
-829.444,166.534,409.677,18.935,15.546,-8.315
-835.405,184.593,403.042,19.106,15.067,-7.914
-828.789,198.132,413.275,18.689,14.959,-7.27
-843.749,208.034,414.39,18.601,14.902,-6.398
-848.215,218.081,410.053,18.098,14.976,-5.51
-899.497,224.689,414.755,17.647,14.509,-4.802
-878.685,220.702,427.029,16.565,14.156,-4.041
-937.12,239.7,414.241,15.35,13.005,-3.274
-932.088,224.499,419.952,13.316,11.582,-2.558
-948.597,230.285,407.284,11.452,9.447,-1.883
-970.829,237.679,407.173,8.972,7.377,-1.285
-980.02,229.027,382.508,6.654,4.674,-0.992
-973.288,218.807,386.377,3.544,1.915,-0.811
-981.766,213.366,392.92,0.475,-1.013,-0.795
-955.527,183.732,368.016,-2.895,-3.553,-0.76
-942.759,178.143,339.386,-5.176,-5.949,-0.721
-947.5,138.612,322.369,-6.831,-7.921,-0.55
-930.878,128.487,305.823,-7.436,-9.611,-0.605
-934.938,70.409,318.431,-7.862,-10.782,-1.043
-921.54,56.196,290.36,-7.551,-11.357,-1.552
-914.093,34.157,278.986,-7.111,-11.345,-2.169
-915.619,50.18,254.827,-5.508,-11.144,-2.801
-905.279,25.022,239.109,-3.722,-9.98,-3.305
-886.659,29.366,234.949,-1.292,-8.539,-3.789
-878.202,35.094,228.222,0.666,-6.688,-4.205
-895.149,40.312,209.7,2.343,-4.685,-4.662
-908.582,20.039,220.236,2.686,-2.606,-4.907
-901.98,38.834,210.875,2.493,-1.225,-4.852
-910.594,53.008,195.85,2.138,0.202,-4.064
-906.939,43.371,181.476,2.526,1.677,-2.735
-913.484,34.073,168.814,2.561,2.968,-1.41
-914.298,44.01,182.93,3.024,3.571,-0.674
-902.338,52.817,189.703,2.68,4.686,-0.493
-907.294,41.561,196.81,2.424,5.639,-0.941
-878.732,49.358,206.487,1.952,7.056,-1.487
-871.194,52.855,207.981,2.2,8.716,-2.258
-860.992,36.848,231.238,2.359,11.21,-2.947
-833.289,70.862,243.115,2.874,13.693,-3.47
-839.703,52.108,244.157,3.458,16.219,-3.565
-845.019,46.466,273.817,5.185,18.758,-3.566
-845.489,63.338,260.199,6.629,21.531,-3.375
-858.019,48.573,278.896,8.638,23.726,-3.56
-845.953,54.553,282.827,10.3,25.387,-3.676
-863.434,65.171,320.137,12.16,26.304,-3.728
-840.865,87.396,353.868,13.144,26.896,-3.486
-836.971,139.156,353.915,14.3,26.918,-3.195
-825.747,109.241,379.313,14.853,27.361,-2.782
-827.803,165.71,392.446,15.78,27.659,-2.622
-844.464,172.234,413.707,15.89,28.435,-2.489
-853.989,207.346,432.81,15.52,29.06,-2.376
-881.151,199.072,447.476,14.029,29.589,-2.143
-906.599,234.106,465.802,12.439,29.372,-1.456
-930.661,247.99,478.072,10.31,28.622,-0.482
-983.57,268.007,484.063,8.076,26.962,0.454
-973.985,256.031,473.101,4.935,24.264,1.032
-1016.097,266.365,486.872,1.777,20.34,1.121
-1002.315,254.798,477.798,-1.81,16.315,0.821
-999.335,245.196,441.555,-5.343,12.123,0.115
-982.333,243.474,429.133,-9.349,7.887,-0.759
-945.168,213.802,406.867,-12.869,3.454,-1.481
-922.198,192.433,388.277,-16.491,-0.628,-1.652
-893.379,160.012,339.52,-19.252,-4.418,-1.582
-851.097,108.682,321.094,-21.818,-7.309,-1.461
-817.393,106.468,296.983,-23.398,-9.639,-1.64
-795.451,74.628,242.005,-24.791,-10.736,-2.085
-788.32,59.389,236.307,-25.277,-11.274,-2.826
-759.928,40.862,191.158,-25.442,-10.846,-3.712
-755.201,32.883,188.344,-24.94,-10.266,-4.82
-731.879,27.704,190.854,-24.625,-9.094,-5.963
-733.655,35.146,164.393,-24.001,-7.569,-7.045
-724.476,20.084,166.56,-23.596,-5.303,-7.678
-742.255,50.699,150.715,-22.608,-2.843,-8.176
-747.458,67.065,168.291,-21.932,-0.031,-8.396
-771.071,88.731,175.532,-20.835,2.77,-8.112
-790.414,103.147,185.984,-20.002,5.601,-7.522
-834.659,100.679,193.242,-18.991,8.031,-6.975
-853.32,123.09,208.35,-18.347,10.593,-6.349
-884.213,145.133,214.74,-17.71,12.143,-5.939
-911.74,150.419,234.944,-17.469,13.126,-5.25
-934.241,170.111,251.694,-16.582,13.514,-4.538
-943.198,156.278,251.778,-15.895,13.814,-3.707
-988.998,181.014,274.119,-14.749,13.402,-2.754
-963.69,162.935,300.483,-14.017,12.685,-1.756
-998.979,205.582,305.05,-12.806,12.023,-0.361
-977.882,170.967,330.573,-11.77,11.85,1.119
-964.873,175.796,311.341,-10.502,11.678,2.272
-984.313,199.778,331.407,-9.423,11.699,3.434
-985.58,173.606,343.776,-8.094,11.515,4.613
-973.195,187.15,345.67,-7.018,11.435,5.912
-999.428,182.881,344.634,-5.731,11.323,7.18
-996.859,190.771,355.877,-5.144,11.436,8.202
-1021.869,189.812,355.906,-4.706,10.839,9.17
-1025.398,201.392,338.635,-4.887,10.09,10.296
-1042.948,199.395,318.782,-4.942,9.527,11.497
-1053.303,182.785,323.027,-5.761,9.027,12.704
-1085.381,197.162,323.385,-6.509,7.274,13.64
-1097.147,167.768,289.399,-8.157,5.824,14.288
-1106.747,159.538,307.81,-9.964,4.365,14.638
-1098.853,122.291,314.948,-12.631,2.308,14.696
-1102.761,124.197,273.987,-15.197,-0.325,14.635
-1098.156,106.648,267.424,-17.842,-2.454,14.899
-1070.382,94.033,246.971,-19.607,-4.653,15.103
-1059.986,51.938,240.236,-21.389,-6.536,14.933
-1052.241,30.245,217.38,-22.514,-8.833,14.209
-982.469,-12.522,208.769,-23.841,-10.518,13.441
-981.103,-55.111,190.042,-24.579,-12.164,12.463
-939.419,-69.781,194.105,-25.359,-13.811,11.669
-932.859,-101.142,183.002,-25.177,-15.457,10.916
-876.237,-125.845,167.858,-24.601,-16.072,10.294
-871.71,-128.881,159.174,-23.135,-16.134,9.496
-840.968,-161.532,157.775,-21.561,-15.13,8.66
-838.633,-152.89,153.416,-19.026,-13.269,7.682
-790.799,-152.11,159.867,-16.664,-10.26,6.916
-804.33,-171.69,146.019,-13.827,-6.919,6.417
-778.008,-135.444,153.9,-11.379,-3.48,6.282
-793.788,-123.192,175.404,-8.625,-0.27,6.605
-788.509,-116.954,161.52,-6.458,2.749,6.946
-802.92,-49.63,169.172,-4.352,5.081,7.221
-796.982,-23.116,181.319,-3.169,6.974,6.866
-785.332,19.19,186.922,-2.216,8.312,6.096
-801.346,50.081,221.316,-2.414,9.759,4.976
-800.835,71.111,213.334,-2.736,10.543,3.782
-772.188,86.792,242.925,-3.632,11.239,2.756
-800.261,88.675,238.009,-4.2,11.642,2.048
-765.779,93.562,261.507,-4.827,12.002,1.585
-781.908,122.854,258.412,-4.546,12.121,1.263
-778.608,106.799,261.912,-4.121,12.536,1.162
-789.06,98.788,265.634,-2.92,12.566,0.699
-773.886,113.819,258.534,-1.647,12.589,0.287
-749.162,122.778,231.09,0.35,12.602,-0.348
-772.308,128.493,239.26,2.271,13.041,-0.851
-775.639,153.494,255.559,4.531,13.421,-1.397
-789.986,149.947,240.933,6.348,13.983,-1.749
-779.944,171.126,258.851,8.434,14.692,-1.776
-802.415,203.111,240.274,9.799,15.834,-1.514
-832.432,229.633,242.08,11.152,16.873,-0.951
-819.394,266.081,254.703,11.687,18.211,-0.386
-849.374,272.524,258.078,11.929,19.276,0.195
-880.47,302.105,261.367,11.393,20.309,0.734
-928.539,326.453,283.15,10.462,20.59,1.042
-942.282,346.459,303.435,8.485,20.72,1.321
-963.491,343.892,326.908,6.462,20.561,1.511
-1001.962,359.451,354.726,3.829,20.56,1.83
-1039.638,380.414,343.986,1.719,20.111,1.956
-1039.394,395.169,356.486,-0.648,19.844,2.195
-1061.766,388.604,388.567,-2.663,19.257,2.333
-1102.545,362.28,420.115,-5.125,18.051,2.642
-1121.992,360.662,438.932,-7.334,16.254,2.95
-1139.971,354.347,440.242,-9.877,13.969,3.527
-1160.185,326.58,434.794,-11.948,11.317,4.365
-1174.975,325.188,438.14,-14.151,8.858,5.4
-1175.258,285.928,418.596,-15.596,5.386,6.26
-1180.973,237.762,397.756,-17.296,1.634,7.427
-1170.601,228.029,373.779,-18.254,-2.237,8.462
-1146.783,150.41,345.329,-19.043,-6.028,9.358
-1102.501,112.537,306.451,-19.099,-9.953,9.553
-1047.404,97.031,243.153,-19.481,-13.019,9.3
-1028.037,64.838,205.014,-19.872,-15.729,8.921
-955.46,16.632,172.546,-20.28,-17.725,8.445
-918.767,-35.189,140.347,-20.093,-19.108,7.974
-882.883,-59.849,91.785,-19.937,-19.305,7.328
-852.187,-111.494,61.143,-19.43,-18.732,6.344
-792.603,-110.793,34.236,-19.357,-16.987,5.189
-769.979,-131.692,21.02,-18.954,-14.523,3.846
-723.225,-131.614,17.139,-18.542,-11.043,2.466
-702.419,-148.864,-3.846,-17.467,-7.304,1.151
-679.594,-127.192,26.32,-16.38,-2.894,-0.048
-669.013,-137.102,31.486,-14.944,1.446,-1.359
-650.505,-128.396,72.257,-14.066,5.866,-2.592
-661.193,-103.511,75.033,-13.298,9.796,-3.838
-650.55,-98.546,110.888,-13.064,13.86,-4.81
-673.769,-90.984,126.136,-11.888,17.534,-5.456
-674.728,-64.705,148.665,-10.072,21.478,-6.095
-684.438,-44.507,154.055,-7.021,24.936,-7.022
-707.985,-55.706,201.028,-4.049,27.867,-7.844
-753.37,-22.703,216.71,-1.009,29.697,-8.859
-755.387,3.491,247.244,0.963,30.889,-9.344
-806.867,7.747,275.871,3.351,30.972,-9.476
-845.541,29.084,285.523,5.961,31.035,-8.992
-884.604,55.688,294.272,9.582,31.002,-8.222
-905.612,77.807,321.061,13.033,31.181,-7.297
-958.601,127.996,340.909,16.611,31.254,-6.557
-979.128,153.91,375.365,19.281,31.169,-5.934
-1041.072,204.099,385.297,21.655,30.187,-5.385
-1054.42,233.31,389.879,22.635,28.949,-4.658
-1071.37,284.979,389.506,23.158,26.945,-3.668
-1120.034,310.102,388.862,22.409,23.777,-2.477
-1159.794,327.038,376.371,21.3,19.668,-0.906
-1145.927,356.46,369.641,18.826,15.659,0.859
-1151.626,375.123,347.244,16.001,11.138,2.44
-1147.822,368.315,327.595,12.586,6.762,3.782
-1144.942,370.724,308.883,9.361,2.52,4.666
-1125.842,322.485,315.24,5.633,-1.36,5.252
-1120.366,298.654,273.734,1.966,-5.124,5.605
-1085.655,255.232,239.979,-1.842,-7.885,5.822
-1057.299,204.862,206.658,-4.409,-10.389,5.896
-1038.106,116.884,172.707,-6.251,-12.171,5.913
-1033.753,92.988,131.258,-6.531,-13.396,5.8
-990.891,33.355,116.398,-6.39,-13.993,5.445
-974.806,-18.676,80.707,-5.691,-14.655,4.646
-928.171,-56.791,79.52,-5.427,-15.219,3.71
-916.096,-70.303,51.47,-5.129,-15.512,2.842
-867.28,-85.692,43.189,-4.947,-15.225,2.154
-861.344,-93.722,49.518,-4.105,-14.84,1.223
-825.951,-91.834,44.31,-3.484,-13.468,0.076
-799.723,-74.584,47.941,-3.101,-11.701,-1.374
-784.24,-74.649,74.937,-3.991,-8.991,-3.081
-787.938,-32.389,90.724,-4.958,-6.153,-4.694
-748.154,-40.83,105.677,-6.241,-2.905,-6.055
-746.27,-4.662,116.355,-6.758,0.173,-6.975
-761.064,-12.168,148.079,-7.186,3.348,-7.688
-775.811,-7.95,145.129,-6.732,6.623,-8.453
-776.395,-7.665,170.293,-6.215,9.716,-9.284
-804.281,-3.216,179.39,-5.202,11.928,-10.054
-815.029,5.562,190.11,-3.986,13.374,-10.398
-833.523,13.756,206.162,-1.872,13.777,-10.169
-841.716,12.466,203.675,0.332,13.679,-9.298
-844.285,26.83,227.42,3.598,12.955,-8.193
-839.477,26.341,235.404,6.672,12.57,-7.134
-837.984,43.423,224.187,10.132,11.925,-6.319
-837.177,66.461,238.199,13.143,11.676,-5.648
-819.632,79.875,249.424,16.445,11.683,-5.176
-798.319,88.494,241.799,19.065,12.01,-4.932
-811.971,126.773,235.169,21.24,12.365,-5.01
-803.336,140.769,216.905,22.296,12.964,-4.993
-813.354,153.308,209.056,23.017,12.868,-4.997
-828.844,166.496,204.125,22.885,12.944,-4.76
-832.381,190.379,189.458,22.87,12.662,-4.633
-828.171,191.734,191.708,22.184,12.33,-4.746
-844.347,172.422,184.691,21.661,11.773,-5.366
-834.255,190.525,157.281,20.443,11.59,-6.138
-827.293,196.855,152.396,19.256,11.289,-7.265
-852.385,207.673,165.772,17.301,11.065,-8.269
-839.268,215.773,151.106,15.572,10.651,-8.899
-818.276,213.832,154.0,13.556,10.708,-9.115
-815.455,195.327,122.114,12.294,10.565,-9.071
-837.643,208.671,135.225,11.243,10.373,-8.943
-838.699,218.779,155.687,10.778,10.147,-8.848
-803.163,201.697,161.691,10.022,10.368,-8.809
-813.322,196.586,167.444,9.612,10.119,-8.941
-774.633,197.371,170.165,8.968,9.948,-8.897
-783.779,196.24,190.642,9.18,9.541,-8.729
-774.726,189.339,203.448,9.227,9.693,-8.465
-734.484,175.237,199.834,9.68,10.055,-8.202
-680.7,189.694,196.641,9.789,10.988,-7.92
-661.371,185.303,221.345,9.947,11.997,-7.503
-643.483,202.688,239.855,9.421,13.081,-6.826
-625.582,184.81,232.334,9.285,13.886,-6.044
-595.044,166.606,247.091,8.941,15.181,-5.428
-583.76,148.561,219.269,8.879,16.06,-4.973
-553.966,139.986,243.397,8.511,17.028,-4.637
-540.857,121.29,240.51,8.495,17.63,-4.393
-507.194,92.723,239.068,8.426,18.404,-3.953
-512.694,73.67,226.424,8.779,18.605,-3.478
-490.341,37.891,242.404,9.327,18.953,-2.676
-442.909,38.936,213.482,10.457,19.428,-1.809
-438.097,29.803,234.348,11.354,20.255,-0.812
-415.795,11.202,212.277,12.43,20.841,-0.05
-391.563,19.046,244.792,12.883,21.916,0.76
-362.17,19.418,242.41,13.443,22.694,1.645
-316.726,25.901,243.756,13.784,23.844,2.49
-293.671,15.752,257.121,13.918,24.783,3.5
-290.238,9.746,244.874,13.248,25.386,4.53
-300.556,8.906,263.286,12.541,25.245,5.609
-289.066,4.976,260.044,11.517,24.733,6.788
-291.022,11.368,271.928,11.344,23.622,7.888
-306.007,6.293,244.694,11.245,22.603,8.675
-307.105,-4.196,254.687,11.46,21.067,9.09
-301.482,-38.65,253.058,11.198,19.221,9.254
-329.795,-17.595,258.208,10.858,17.056,9.134
-371.727,-24.797,256.47,10.088,15.432,8.997
-391.449,-41.294,245.045,9.817,13.816,8.62
-425.971,-41.157,245.871,9.408,12.404,8.051
-496.113,-24.344,248.392,8.906,10.743,7.446
-559.71,-27.935,235.675,7.602,8.649,6.914
-616.781,-3.3,245.383,6.749,5.772,6.213
-688.67,18.34,232.992,5.924,2.981,5.686
-774.938,15.541,209.507,5.186,-0.418,4.666
-826.286,44.775,186.361,3.411,-4.252,3.52
-900.251,45.955,169.789,1.542,-8.659,2.517
-956.356,61.232,128.963,-0.869,-12.204,1.972
-1019.717,72.708,103.375,-3.339,-16.266,1.926
-1054.162,105.749,77.725,-5.96,-21.18,2.249
-1068.456,120.154,69.342,-7.803,-25.314,2.891
-1072.956,136.478,56.893,-9.447,-28.04,3.469
-1099.069,126.459,41.1,-9.966,-30.354,3.442
-1093.973,110.328,57.734,-10.251,-31.733,3.134
-1073.924,98.887,77.97,-10.32,-32.101,2.864
-1082.111,57.763,64.04,-10.668,-31.58,3.435
-1092.148,47.104,76.854,-10.015,-30.622,5.023
-1108.0,2.61,94.152,-8.478,-29.133,7.406
-1142.402,-10.518,108.057,-5.587,-27.631,9.959
-1179.655,-39.447,133.255,-2.614,-26.385,12.101
-1224.295,-54.934,153.566,1.208,-26.146,12.992
-1252.176,-58.659,174.235,3.991,-26.744,12.343
-1301.387,-73.413,195.547,5.618,-28.044,10.62
-1315.041,-87.58,208.733,5.637,-29.087,8.705
-1335.109,-66.597,200.024,5.263,-30.277,6.886
-1352.903,-46.234,233.113,3.571,-31.795,5.335
-1377.872,-24.292,249.285,1.695,-33.485,3.819
-1386.071,-30.609,264.423,-1.453,-34.969,1.944
-1388.551,-25.745,293.714,-4.957,-36.975,-0.421
-1400.248,-35.342,283.602,-8.249,-38.883,-2.913
-1384.416,-37.657,273.94,-9.992,-40.264,-5.586
-1382.548,-70.904,272.298,-11.524,-41.293,-8.272
-1379.675,-51.456,266.353,-12.52,-42.687,-10.705
-1354.153,-96.924,256.953,-13.282,-43.193,-12.399
-1353.493,-89.296,240.389,-12.999,-42.933,-13.44
-1332.031,-91.747,261.063,-12.511,-42.344,-14.111
-1334.82,-64.468,244.511,-11.948,-41.811,-14.453
-1305.086,-66.127,253.752,-12.056,-41.616,-14.272
-1341.141,-46.565,263.935,-11.7,-41.55,-14.025
-1336.898,-16.606,242.862,-11.672,-41.568,-14.153
-1333.131,-31.592,254.737,-12.016,-42.314,-14.537
-1315.882,-8.021,278.385,-13.422,-42.847,-14.878
-1311.735,-9.033,274.927,-14.471,-43.331,-15.603
-1297.177,-18.638,275.3,-15.109,-43.381,-16.765
-1275.686,-38.216,267.012,-14.758,-43.672,-18.85
-1279.236,-66.083,282.291,-15.079,-43.856,-21.57
-1237.716,-85.543,277.314,-14.675,-44.139,-24.766
-1204.427,-102.591,278.991,-13.903,-43.87,-27.903
-1194.349,-119.149,269.979,-12.672,-43.847,-30.7
-1176.713,-106.124,280.22,-12.086,-43.277,-32.702
-1146.378,-98.061,298.598,-11.386,-42.572,-34.452
-1110.268,-92.591,274.295,-10.77,-41.377,-36.159
-1095.87,-71.939,302.731,-9.491,-40.652,-38.153
-1070.489,-78.754,329.347,-8.854,-39.826,-40.209
-1063.016,-62.984,336.914,-8.835,-39.104,-42.344
-1045.351,-41.052,325.846,-8.823,-37.972,-44.403
-1039.546,-60.274,337.37,-7.599,-37.014,-46.327
-1021.31,-69.425,321.702,-6.572,-35.789,-47.756
-1029.395,-70.153,307.655,-5.628,-34.567,-49.492
-1014.98,-47.833,320.112,-5.433,-33.472,-51.077
-1000.928,-47.831,294.823,-5.093,-33.192,-52.26
-987.794,-20.568,320.023,-5.616,-32.971,-52.792
-956.245,12.292,323.879,-6.295,-32.455,-53.281
-934.956,34.818,316.172,-6.712,-31.443,-54.225
-933.87,50.138,322.076,-6.467,-30.743,-55.709
-929.242,27.949,334.504,-6.703,-29.969,-57.46
-916.013,37.892,323.618,-6.966,-29.875,-59.272
-920.084,33.603,329.798,-7.706,-29.637,-60.33
-908.2,18.728,331.72,-7.528,-29.291,-60.408
-911.648,26.374,331.904,-7.076,-28.702,-59.825
-917.224,33.845,317.481,-5.939,-28.38,-59.459
-944.659,63.763,337.308,-5.576,-28.453,-58.949
-949.556,67.21,336.422,-4.874,-29.189,-58.633
-936.972,76.894,331.808,-4.241,-29.859,-58.659
-958.883,92.623,328.847,-3.062,-30.985,-58.74
-962.902,100.289,344.568,-2.586,-32.267,-58.1
-964.408,99.154,351.223,-1.896,-34.008,-57.138
-956.019,69.678,348.447,-0.925,-35.253,-56.106
-986.451,80.844,337.02,0.21,-36.126,-55.531
-948.195,58.197,346.618,1.134,-36.849,-54.674
-942.973,72.022,325.485,2.868,-36.978,-54.086
-933.421,61.276,343.018,4.523,-36.439,-53.765
-948.809,69.633,331.487,6.251,-36.176,-53.535
-938.208,75.927,315.073,7.756,-35.593,-53.619
-954.277,56.529,308.254,9.684,-35.24,-53.425
-950.192,34.008,313.154,11.791,-34.37,-53.311
-949.26,23.894,307.171,14.199,-33.153,-52.946
-925.08,26.623,292.693,16.118,-31.372,-52.121
-920.55,0.056,286.033,18.482,-29.336,-50.973
-896.753,-13.366,311.784,20.853,-26.86,-49.565
-906.651,-0.55,324.789,23.792,-24.73,-48.724
-902.64,-46.087,325.141,26.407,-22.052,-48.258
-920.321,-29.619,313.325,29.4,-19.556,-47.984
-921.326,-29.822,332.677,31.02,-16.965,-47.09
-916.76,-35.032,332.928,32.189,-14.735,-45.52
-927.53,-10.925,333.15,32.324,-12.146,-44.282
-930.127,-18.984,344.798,32.348,-10.62,-42.831
-925.331,-21.121,336.495,32.293,-9.241,-40.818
-939.099,-4.962,359.15,32.854,-8.345,-38.883
-923.496,-41.548,360.149,32.725,-7.172,-37.651
-920.77,-45.436,396.889,32.593,-6.275,-37.161
-932.004,-43.012,394.675,32.009,-5.705,-36.197
-934.69,-40.609,412.774,31.757,-5.471,-34.433
-918.024,-40.571,407.88,31.254,-4.822,-32.708
-919.498,-53.082,403.046,31.607,-4.416,-31.735
-915.172,-78.31,411.828,31.405,-3.826,-30.852
-930.136,-67.48,405.055,31.617,-3.724,-29.981
-949.812,-87.994,400.782,32.028,-3.273,-29.153
-961.991,-86.398,407.985,32.908,-3.081,-28.47
-958.928,-78.892,397.776,33.18,-2.511,-27.929
-947.276,-84.94,422.528,33.689,-2.426,-27.843
-963.821,-82.918,415.378,34.045,-2.144,-27.586
-1000.862,-88.876,389.493,34.562,-2.012,-27.349
-985.088,-87.598,396.865,34.616,-1.717,-26.866
-976.925,-106.089,390.852,35.347,-1.672,-26.48
-960.531,-116.286,391.322,36.5,-0.866,-26.311
-1004.804,-134.423,376.395,38.129,0.006,-26.468
-987.076,-146.851,380.996,39.262,0.783,-26.38
-990.274,-139.375,375.516,40.662,1.487,-25.997
-982.384,-131.959,389.97,41.012,2.113,-25.165
-990.244,-113.286,367.705,41.586,2.107,-24.415
-973.648,-133.004,360.665,41.583,2.433,-23.904
-991.902,-111.71,368.857,41.224,2.546,-23.405
-973.849,-123.025,368.802,39.922,2.881,-22.754
-946.071,-121.939,397.028,38.974,3.407,-22.457
-944.206,-128.752,377.683,37.912,4.177,-22.448
-949.024,-135.289,390.545,37.049,4.147,-22.589
-945.941,-147.698,382.974,35.594,4.331,-22.603
-955.719,-151.773,393.587,34.467,4.314,-22.636
-910.736,-142.407,395.809,33.413,4.68,-22.629
-939.565,-149.916,404.917,32.875,4.667,-22.645
-941.131,-140.906,421.644,31.801,4.799,-22.871
-926.176,-126.269,402.853,30.768,4.701,-23.321
-922.341,-129.371,425.811,29.597,4.606,-23.726
-931.226,-128.46,417.212,28.755,4.057,-23.998
-916.39,-133.082,425.006,27.482,3.602,-23.918
-911.817,-142.811,399.864,26.99,2.932,-23.638
-903.271,-164.836,398.069,26.812,2.428,-23.344
-885.429,-159.817,394.219,27.385,1.615,-23.231
-885.635,-164.8,366.519,27.04,1.152,-22.84
-876.972,-133.292,375.547,26.166,0.512,-22.15
-882.017,-109.048,365.733,24.907,0.008,-20.992
-872.907,-111.77,383.921,23.933,-0.791,-19.766
-891.283,-123.028,378.636,22.378,-1.339,-18.956
-889.936,-122.586,374.697,21.079,-2.129,-18.755
-858.584,-128.598,373.19,20.007,-2.436,-19.02
-857.495,-147.469,384.626,19.81,-2.602,-19.382
-834.364,-151.963,380.003,19.188,-2.653,-19.45
-867.567,-148.165,391.174,18.696,-3.129,-19.282
-862.797,-154.151,388.73,18.259,-3.589,-19.068
-835.781,-148.484,387.284,18.4,-4.128,-18.842
-847.892,-147.148,402.305,18.087,-4.611,-18.733
-847.318,-152.044,390.629,18.117,-5.473,-18.909
-846.614,-131.837,391.158,17.7,-6.016,-19.009
-855.569,-137.984,400.516,17.611,-6.589,-19.141
-868.116,-126.642,397.322,16.932,-6.683,-19.207
-866.701,-129.917,384.694,16.302,-7.203,-19.286
-901.174,-116.58,391.667,14.81,-7.59,-18.872
-886.214,-105.998,397.871,13.149,-8.44,-18.128
-892.862,-102.508,383.163,11.267,-8.637,-17.283
-870.459,-95.598,392.068,9.955,-9.002,-16.71
-865.828,-119.282,397.24,8.437,-8.693,-16.289
-867.074,-90.507,402.253,7.411,-8.533,-16.264
-857.4,-130.392,373.184,6.219,-8.165,-16.137
-884.196,-122.641,396.605,5.64,-8.173,-16.046
-876.718,-133.727,412.431,4.889,-7.878,-16.15
-873.943,-147.088,424.938,4.915,-7.568,-16.406
-868.451,-146.98,406.739,4.787,-7.113,-16.656
-867.724,-146.72,414.355,4.742,-6.845,-16.604
-857.906,-144.653,422.565,4.315,-6.444,-16.16
-880.024,-154.651,411.129,4.083,-6.413,-15.578
-860.841,-155.55,424.289,3.68,-6.368,-15.175
-875.0,-142.056,413.124,3.841,-6.746,-14.988
-852.499,-176.981,415.493,3.662,-7.068,-15.026
-860.894,-174.228,413.508,3.712,-7.208,-15.019
-872.057,-174.039,415.952,3.489,-7.134,-14.843
-863.116,-147.667,408.683,3.507,-7.175,-14.471
-863.139,-152.154,415.081,2.84,-6.767,-14.003
-850.518,-126.195,403.622,2.307,-6.716,-13.38
-868.601,-147.501,397.48,1.47,-6.215,-12.712
-900.309,-123.334,398.736,1.149,-5.964,-11.963
-877.593,-141.835,422.649,0.628,-5.627,-11.157
-889.565,-146.852,420.92,0.733,-5.216,-10.656
-895.457,-156.875,410.623,1.021,-4.304,-10.221
-910.961,-157.929,432.17,1.614,-3.476,-9.731
-924.475,-128.016,423.122,1.706,-2.913,-8.89
-947.031,-136.346,424.649,2.173,-2.848,-7.961
-970.339,-138.278,423.817,2.462,-2.832,-6.838
-981.082,-135.883,437.897,3.349,-3.005,-5.724
-1003.298,-144.419,432.662,4.183,-2.69,-4.581
-1006.835,-134.099,445.138,5.304,-2.304,-3.561
-1016.709,-145.999,459.161,6.076,-1.827,-2.291
-1040.681,-121.956,441.614,6.925,-1.641,-0.689
-1038.091,-128.552,448.442,7.464,-0.844,0.842
-1082.52,-129.625,440.947,8.133,-0.068,2.148
-1068.178,-152.156,464.431,8.54,1.263,3.645
-1076.606,-143.303,442.927,9.308,2.518,5.098
-1091.822,-139.834,449.194,9.805,4.166,6.551
-1116.544,-132.579,455.695,10.58,5.671,7.657
-1128.828,-144.564,482.223,10.831,7.511,8.583
-1126.868,-158.493,463.251,11.393,9.342,9.235
-1108.052,-161.043,464.108,11.395,11.72,9.467
-1143.379,-164.031,465.759,11.508,13.764,9.608
-1153.207,-185.27,487.533,11.091,15.949,9.802
-1172.319,-182.111,475.473,10.863,18.063,10.044
-1136.707,-220.674,486.795,10.695,20.298,10.293
-1135.501,-219.282,486.835,11.228,22.497,10.366
-1111.373,-229.151,506.495,11.991,25.019,10.27
-1117.39,-232.398,501.702,12.73,27.107,9.759
-1092.014,-244.5,520.975,12.587,28.805,9.682
-1105.094,-243.143,489.886,12.407,29.83,9.975
-1099.013,-249.841,506.601,11.543,30.662,10.67
-1090.711,-228.834,496.342,10.767,30.901,11.539
-1053.411,-270.818,502.184,10.187,31.459,12.065
-1060.2,-235.028,507.412,10.235,31.656,11.866
-1029.332,-235.03,503.891,9.663,31.731,11.437
-1024.273,-238.001,490.886,9.003,31.498,11.272
-1023.854,-222.314,494.778,7.653,31.692,11.583
-1006.508,-207.391,471.55,6.772,31.525,12.136
-1026.089,-218.521,485.724,5.571,31.56,12.804
-1018.919,-219.302,477.579,4.866,31.279,13.221
-1002.919,-229.734,477.665,4.216,31.212,13.291
-1013.313,-209.851,457.408,4.209,30.753,13.113
-999.181,-226.255,462.188,3.748,30.758,12.933
-1001.01,-206.52,446.767,3.366,30.558,13.029
-985.581,-225.683,444.927,2.799,30.448,13.295
-989.785,-198.666,443.758,2.631,29.913,13.657
-982.085,-193.284,433.903,1.964,29.205,14.019
-996.469,-171.928,404.864,1.501,28.417,14.208
-993.275,-177.662,419.789,0.582,27.883,14.338
-991.069,-153.47,407.834,-0.456,27.124,14.482
-985.177,-137.097,409.392,-2.159,26.695,15.082
-976.1,-127.348,394.768,-3.068,26.475,15.407
-972.451,-135.006,390.851,-3.941,26.53,15.516
-983.36,-123.465,398.246,-4.609,26.481,15.277
-981.16,-126.628,378.786,-5.599,26.438,15.259
-983.481,-113.915,360.196,-6.202,26.416,15.693
-971.229,-122.037,366.95,-7.026,26.767,16.581
-985.013,-117.354,354.295,-7.137,27.105,17.535
-984.148,-98.374,359.638,-7.378,27.632,18.288
-964.028,-97.535,374.241,-7.014,27.756,18.818
-970.434,-123.052,370.166,-6.366,28.069,19.434
-976.229,-108.514,370.842,-4.797,28.529,19.911
-976.907,-122.047,355.72,-3.241,29.044,20.376
-980.508,-128.885,373.873,-1.158,29.188,20.754
-978.491,-109.554,361.852,0.576,29.797,21.098
-977.338,-88.088,360.358,1.924,30.501,21.314
-963.129,-56.088,360.268,1.969,31.058,21.814
-973.62,-49.672,365.022,1.413,31.466,22.582
-975.083,-45.918,361.927,0.032,31.98,23.281
-989.51,-3.636,362.031,-1.198,32.102,23.52
-973.496,-18.436,353.137,-2.889,32.438,23.237
-980.227,-6.344,359.832,-4.632,32.013,22.85
-978.912,-14.171,334.479,-6.621,31.639,23.075
-988.587,-15.241,335.338,-8.235,31.078,23.672
-964.428,7.414,312.712,-10.307,30.594,24.464
-999.884,-1.135,294.091,-12.208,29.767,25.222
-978.159,-0.258,300.618,-14.582,28.957,25.911
-979.991,33.355,297.287,-17.109,28.122,26.376
-962.079,46.363,292.96,-20.248,27.403,26.815
-934.603,39.807,288.484,-22.575,27.023,27.117
-924.323,50.018,283.66,-24.707,27.05,27.193
-918.111,34.787,272.654,-26.194,26.583,27.28
-935.782,14.352,264.819,-27.196,25.931,27.515
-929.711,-18.44,270.286,-26.382,24.795,28.069
-914.237,-62.057,260.079,-24.212,24.436,28.172
-899.687,-63.87,250.833,-21.237,24.462,27.49
-893.802,-65.897,261.905,-18.557,24.82,26.493
-890.994,-36.391,260.545,-16.16,25.394,25.715
-872.463,0.451,265.609,-14.855,26.357,25.459
-882.426,27.338,250.076,-13.871,26.884,25.633
-861.312,58.393,268.091,-13.97,27.555,25.796
-875.743,75.574,252.168,-14.154,28.435,25.692
-855.676,65.62,270.399,-15.086,29.468,25.277
-848.959,85.118,279.249,-15.786,30.218,24.561
-861.019,87.244,267.733,-16.519,31.167,23.908
-852.939,74.174,257.376,-16.655,31.749,23.29
-861.399,70.577,221.959,-17.546,32.212,23.398
-864.769,51.231,224.906,-18.326,31.704,24.157
-862.199,29.312,215.491,-19.544,30.912,25.346
-861.48,50.308,195.153,-20.619,29.572,27.028
-833.993,55.329,194.365,-21.54,28.714,29.003
-815.735,48.998,185.699,-21.525,28.366,30.232
-775.219,42.94,173.053,-21.718,29.123,30.42
-778.81,58.217,182.577,-21.897,29.646,29.804
-764.192,73.105,177.718,-23.113,30.332,29.465
-758.951,63.19,174.199,-24.44,30.405,29.522
-743.348,53.019,167.97,-26.258,30.377,30.176
-730.491,30.913,182.855,-27.304,30.438,31.091
-734.761,22.716,147.693,-27.936,30.848,31.833
-724.272,14.724,165.945,-27.446,31.03,32.066
-710.317,-14.653,173.057,-26.811,31.449,31.471
-711.809,-2.699,178.754,-25.652,31.525,30.481
-710.717,-8.854,156.049,-24.484,31.487,29.384
-712.175,-20.436,173.445,-23.067,30.909,28.648
-680.861,-4.612,152.373,-22.08,30.792,28.265
-689.26,4.239,150.015,-21.28,30.51,27.718
-662.991,22.714,160.528,-21.306,30.547,27.096
-649.24,30.747,142.928,-21.354,30.104,26.362
-628.416,34.64,138.685,-21.802,30.431,25.58
-638.847,32.532,140.473,-22.337,30.484,24.871
-624.372,32.734,128.311,-23.428,30.579,24.333
-642.425,56.919,114.938,-23.938,29.832,24.121
-637.841,26.641,133.039,-25.036,28.355,24.735
-638.725,28.33,132.732,-25.857,27.665,25.939
-637.26,38.458,136.039,-26.662,27.415,26.991
-630.065,57.127,121.187,-26.767,27.163,27.428
-632.232,83.412,139.269,-26.984,27.395,27.274
-655.089,105.928,143.85,-27.179,27.142,26.939
-624.017,101.697,142.08,-27.683,26.581,26.745
-630.653,100.236,120.795,-27.557,26.058,26.805
-647.332,85.742,148.233,-27.884,25.669,27.152
-639.753,80.723,152.629,-28.0,24.778,27.387
-634.746,81.145,143.209,-28.107,23.77,27.613
-646.69,92.435,157.486,-27.187,22.784,27.936
-643.593,79.883,128.6,-26.221,22.181,28.44
-650.561,77.411,134.933,-24.662,21.658,28.812
-649.328,72.009,126.392,-23.046,21.35,28.85
-666.452,50.471,136.404,-21.008,20.518,29.001
-667.618,64.445,124.361,-19.772,19.26,29.444
-666.459,47.18,112.994,-18.878,17.548,30.186
-671.102,42.854,96.182,-18.669,15.807,31.248
-695.858,41.319,98.098,-17.813,13.933,32.508
-715.429,28.36,60.806,-17.158,12.229,33.384
-714.166,26.176,79.233,-16.439,10.611,33.772
-722.11,25.134,74.082,-16.238,8.78,33.774
-736.323,52.237,75.046,-16.319,7.024,33.166
-704.127,46.719,59.644,-17.72,5.608,32.621
-750.782,53.039,75.708,-19.029,3.977,32.352
-752.17,55.581,58.233,-20.037,3.093,32.192
-758.364,67.968,53.355,-19.745,2.836,31.797
-752.603,30.609,61.362,-19.621,3.314,30.665
-769.582,33.736,56.52,-19.361,3.624,28.956
-774.02,23.766,63.912,-19.568,4.57,27.166
-803.42,40.676,61.92,-19.417,5.54,25.723
-807.593,31.201,43.728,-19.823,6.599,24.647
-805.71,57.835,57.199,-20.103,7.24,23.855
-829.059,53.022,66.586,-20.898,8.224,23.358
-848.084,55.264,57.048,-21.622,8.742,22.897
-854.348,66.476,75.256,-22.702,9.293,22.348
-885.7,72.944,64.752,-23.696,9.53,21.886
-891.417,79.719,81.125,-25.001,9.769,21.64
-909.482,88.342,101.801,-25.754,9.891,21.396
-907.912,71.277,103.198,-26.457,10.684,21.132
-927.592,77.065,117.876,-26.277,11.227,20.833
-944.433,71.72,131.853,-25.916,11.688,20.534
-980.513,84.464,135.546,-25.162,11.81,20.356
-996.608,76.796,140.068,-24.544,11.582,20.723
-1028.791,76.637,124.94,-22.804,10.876,21.254
-1029.662,68.247,142.245,-21.094,10.839,21.941
-1069.639,59.252,138.781,-19.705,10.281,22.41
-1063.213,72.079,161.87,-19.16,9.665,23.055
-1039.633,107.353,149.598,-18.619,8.909,23.873
-1053.203,85.084,140.635,-18.205,8.662,25.058
-1036.148,82.592,143.9,-17.122,8.272,25.837
-1036.963,59.65,154.415,-16.713,7.876,26.467
-1048.794,56.138,155.525,-16.298,7.221,26.896
-1026.344,39.164,142.006,-16.22,6.869,27.259
-1006.954,39.174,121.913,-16.0,6.476,27.561
-1014.955,20.402,120.173,-16.328,6.584,27.787
-1009.15,30.111,115.118,-16.448,6.77,28.112
-993.348,35.565,112.555,-17.31,6.913,28.23
-985.727,29.806,127.678,-18.174,6.646,28.181
-968.185,6.954,143.757,-19.422,6.648,27.906
-998.597,-9.607,149.659,-19.965,6.767,27.238
-976.905,-16.69,138.914,-20.441,7.391,26.35
-995.739,-22.391,127.32,-20.798,8.18,25.24
-985.135,-36.499,149.118,-21.947,8.879,24.587
-1035.877,-34.231,132.223,-23.084,8.506,24.444
-1047.147,-16.453,144.62,-24.284,8.204,25.23
-1047.612,-5.944,159.317,-24.687,7.664,26.03
-1048.101,9.958,164.302,-25.487,7.349,26.259
-1048.671,32.492,165.203,-26.164,6.832,25.426
-1058.311,39.97,188.521,-27.841,6.706,24.231
-1047.513,58.799,187.393,-29.123,6.272,22.917
-1056.018,45.902,207.988,-30.319,6.008,21.943
-1043.593,51.681,187.897,-30.88,5.193,21.399
-1045.904,26.294,181.446,-31.42,4.358,21.386
-1043.164,25.741,167.931,-31.194,3.597,21.802
-1031.084,12.053,188.608,-30.474,3.321,22.115
-1032.369,6.753,174.275,-29.016,3.09,21.982
-1040.188,-17.267,165.846,-27.901,3.16,21.753
-1002.541,-4.622,172.908,-26.561,3.003,21.377
-996.906,-11.732,175.029,-25.884,3.044,21.099
-997.271,-4.223,168.161,-25.471,2.681,20.512
-971.709,8.549,163.989,-26.069,2.677,19.979
-986.344,31.636,159.826,-26.943,2.501,19.137
-958.055,17.294,175.088,-28.302,2.367,18.36
-942.277,22.106,157.24,-29.346,2.135,17.437
-963.758,27.707,173.078,-31.158,2.112,16.07
-953.685,49.196,157.252,-32.81,1.774,14.758
-913.196,34.026,161.628,-34.588,1.73,13.777
-956.3,54.871,151.226,-35.738,1.313,13.081
-922.402,45.624,149.068,-36.926,0.989,12.676
-899.307,65.987,169.458,-37.429,0.685,12.121
-902.003,77.634,170.902,-38.232,0.567,11.381
-900.908,74.621,173.924,-38.567,0.535,10.564
-882.552,61.966,157.445,-38.944,0.88,9.93
-871.145,83.492,177.906,-39.143,1.141,9.351
-865.356,77.799,205.428,-39.829,1.446,9.269
-903.334,91.883,199.889,-39.858,1.262,9.547
-903.149,81.99,203.067,-39.825,1.204,9.956
-913.619,99.529,224.264,-39.173,0.697,10.069
-921.164,88.7,238.133,-38.617,0.154,9.97
-955.07,97.716,219.845,-37.861,-0.494,9.484
-951.489,96.223,224.776,-37.566,-1.094,9.169
-977.128,96.295,216.151,-37.275,-2.296,9.232
-969.534,89.001,221.153,-37.269,-3.249,9.652
-1002.698,115.822,230.473,-36.445,-4.527,10.216
-998.729,116.022,201.223,-35.749,-5.585,10.476
-988.83,108.244,207.973,-34.848,-6.817,10.217
-1002.679,107.833,207.46,-34.713,-7.932,9.799
-982.117,110.827,215.151,-34.297,-9.599,9.539
-967.596,70.328,180.702,-34.332,-10.574,9.234
-986.361,88.26,169.148,-34.02,-11.237,9.01
-947.5,96.049,153.839,-33.971,-11.555,8.726
-960.761,88.549,140.429,-33.845,-11.807,8.406
-938.374,77.013,133.782,-34.369,-11.858,7.963
-936.729,86.761,152.422,-34.879,-11.953,7.487
-903.254,81.012,129.578,-35.749,-11.931,7.014
-913.076,82.676,141.148,-36.394,-12.14,6.425
-899.574,72.384,133.42,-37.386,-11.91,5.633
-908.722,82.884,106.222,-38.483,-11.758,4.541
-900.795,71.206,126.974,-40.231,-11.743,3.673
-920.666,80.186,118.041,-41.383,-12.089,3.188
-918.656,76.401,119.458,-42.599,-12.042,2.898
-898.535,93.194,140.597,-43.211,-12.189,2.529
-903.288,89.436,132.169,-43.549,-11.86,2.193
-938.499,106.969,141.941,-43.289,-11.843,1.881
-929.602,87.369,158.799,-43.063,-11.789,1.568
-932.914,100.987,149.761,-41.926,-11.912,1.332
-940.644,77.009,151.24,-40.654,-12.113,1.32
-950.476,96.74,140.708,-38.817,-12.334,1.345
-945.028,67.046,155.409,-37.18,-12.354,1.589
-955.339,86.767,173.678,-34.875,-12.563,2.002
-965.661,76.289,178.227,-32.889,-12.608,2.519
-961.624,102.755,175.151,-30.683,-12.817,2.63
-954.677,84.677,171.031,-29.45,-12.961,2.82
-965.497,115.124,150.225,-28.269,-13.28,2.994
-947.398,85.441,185.377,-27.433,-13.345,3.364
-957.043,82.553,162.067,-26.339,-13.647,3.721
-952.113,74.721,172.325,-25.744,-13.877,3.905
-975.99,74.572,166.002,-25.329,-14.594,3.781
-965.268,57.456,154.288,-25.356,-15.226,3.542
-965.71,69.213,149.053,-25.163,-15.932,3.082
-955.066,50.132,140.946,-25.352,-16.282,2.507
-939.575,56.365,128.591,-25.03,-16.69,1.933
-928.962,57.463,120.719,-25.065,-16.667,1.664
-942.142,87.968,116.247,-24.687,-16.588,1.444
-930.389,62.5,117.481,-25.003,-16.169,0.988
-936.278,66.247,126.959,-25.227,-15.826,0.314
-918.323,60.701,116.714,-25.83,-15.069,-0.353
-952.035,85.496,131.623,-25.99,-14.642,-0.882
-961.652,76.854,134.941,-26.142,-14.172,-1.086
-954.21,90.742,117.308,-25.444,-13.885,-1.064
-943.418,51.12,138.843,-24.712,-13.436,-1.236
-958.025,81.838,131.501,-23.409,-13.344,-1.628
-964.719,66.256,152.67,-22.404,-12.796,-2.187
-985.894,54.383,174.544,-20.686,-12.493,-2.536
-945.487,71.379,148.619,-19.229,-12.174,-2.561
-952.351,55.813,163.683,-17.599,-11.865,-2.324
-939.168,58.828,169.813,-16.614,-11.483,-2.007
-934.327,71.887,192.121,-15.672,-11.456,-1.669
-931.438,58.062,195.405,-14.832,-11.168,-1.279
-932.023,60.922,188.394,-13.588,-10.941,-1.127
-919.565,46.624,184.242,-12.747,-10.539,-1.187
-907.885,84.367,157.057,-11.881,-10.408,-1.401
-908.417,56.551,189.689,-11.744,-10.178,-1.581
-896.241,40.219,189.35,-11.391,-10.369,-1.515
-879.544,47.296,196.913,-11.193,-10.587,-1.332
-885.145,54.897,154.928,-10.857,-10.679,-1.342
-874.153,45.753,180.724,-10.834,-10.371,-1.542
-874.158,48.426,170.062,-10.325,-10.306,-2.125
-864.463,51.669,177.307,-9.871,-10.029,-2.727
-880.433,53.375,175.669,-9.271,-9.645,-3.294
-862.605,52.461,159.436,-8.977,-9.241,-3.839
-862.757,50.237,172.086,-8.264,-8.549,-4.219
-841.307,62.971,170.924,-8.022,-7.781,-4.633
-842.906,69.483,187.752,-7.576,-7.276,-5.011
-844.711,83.449,189.51,-7.616,-6.767,-5.274
-855.883,78.09,181.552,-7.339,-6.8,-5.569
-856.658,103.883,200.704,-7.168,-6.805,-5.994
-839.922,119.028,204.278,-6.695,-6.936,-6.464
-847.265,113.992,231.061,-6.488,-6.491,-6.913
-848.363,97.456,206.383,-5.887,-5.876,-7.421
-822.667,137.277,233.098,-5.901,-5.099,-7.761
-849.111,133.129,246.875,-5.693,-4.579,-7.774
-865.707,133.648,256.135,-5.879,-4.192,-7.547
-878.754,158.777,247.482,-5.649,-4.15,-7.151
-877.999,156.261,244.302,-5.821,-4.386,-6.623
-909.161,152.21,248.864,-5.508,-4.797,-6.29
-873.685,138.855,257.449,-5.559,-5.219,-6.038
-887.335,172.5,258.477,-5.157,-6.215,-5.771
-886.3,166.561,276.14,-5.174,-7.023,-5.431
-903.181,177.743,272.457,-4.796,-7.746,-5.106
-894.593,153.175,261.803,-4.698,-8.327,-4.637
-876.628,147.23,268.614,-4.165,-9.048,-4.158
-891.824,155.295,257.493,-3.601,-9.145,-3.8
-889.687,156.455,242.251,-2.175,-9.244,-3.453
-889.313,157.158,249.483,-1.347,-9.125,-2.938
-907.036,139.258,240.846,-0.847,-9.507,-2.396
-925.492,152.765,245.375,-0.998,-10.04,-1.442
-942.778,160.65,227.133,-0.981,-10.785,-0.547
-963.358,141.034,232.216,-1.397,-11.298,0.217
-969.541,154.87,216.743,-1.455,-12.112,0.58
-967.295,145.042,215.996,-2.114,-12.923,0.652
-979.427,147.021,243.084,-2.48,-13.822,0.645
-970.22,143.518,224.167,-3.012,-14.391,0.652
-967.309,145.273,219.842,-3.082,-14.646,0.557
-958.423,115.276,213.562,-3.299,-14.486,0.68
-995.906,97.368,200.506,-2.97,-14.411,1.177
-1000.104,92.734,195.252,-2.794,-14.176,2.309
-995.332,95.881,200.869,-2.02,-14.188,3.647
-979.197,73.052,187.989,-1.326,-14.019,4.94
-1008.662,66.528,196.354,-0.219,-14.037,5.77
-988.912,79.881,202.973,0.31,-13.589,6.283
-999.721,89.477,199.885,0.777,-13.33,6.631
-1001.383,78.184,192.413,0.781,-12.568,7.063
-1006.547,87.832,187.643,0.919,-11.942,7.377
-984.165,51.226,183.635,0.593,-11.268,7.533
-972.543,60.496,176.004,0.362,-11.01,7.754
-970.599,21.064,178.615,-0.327,-10.671,7.855
-961.019,24.692,170.748,-0.283,-10.28,7.946
-933.774,1.648,165.975,-0.418,-9.736,7.584
-925.89,-20.345,174.133,-0.228,-9.35,7.118
-923.495,-23.134,172.105,-0.261,-8.503,6.621
-893.448,-56.016,169.046,0.161,-7.71,6.379
-875.568,-57.971,171.435,0.614,-6.799,6.294
-877.28,-55.127,144.458,1.756,-5.975,6.453
-846.961,-70.889,154.897,2.909,-4.737,6.279
-834.965,-57.881,182.015,4.458,-3.868,5.804
-824.587,-57.659,168.334,5.483,-2.955,5.126
-827.16,-54.707,167.068,6.294,-2.221,4.31
-817.668,-35.853,198.294,6.945,-1.418,3.53
-837.657,-12.117,195.318,8.211,-0.881,2.905
-824.066,-8.744,217.85,9.098,0.028,2.345
-840.423,26.525,204.505,10.078,0.709,1.734
-851.454,54.338,226.934,10.592,1.42,1.282
-884.692,79.76,232.716,11.216,1.772,0.957
-884.249,84.119,243.022,11.049,1.752,1.061
-886.886,116.78,264.664,11.061,1.062,1.455
-907.748,118.088,286.027,10.814,0.693,2.131
-911.998,135.211,265.718,10.959,0.257,2.571
-902.231,151.199,282.801,10.96,-0.153,2.865
-916.527,168.023,298.703,11.008,-0.907,3.086
-902.385,166.916,282.637,10.554,-1.276,3.576
-905.566,172.02,297.855,10.486,-2.341,4.262
-909.263,176.115,313.451,9.87,-3.128,5.078
-896.174,188.004,306.715,9.187,-4.217,5.845
-912.429,180.737,317.086,7.83,-5.32,6.606
-912.049,190.336,324.666,6.696,-6.491,7.199
-914.392,196.437,327.269,5.084,-7.397,7.785
-938.88,217.262,325.378,3.715,-8.84,8.339
-945.109,202.728,334.213,2.315,-10.106,8.77
-960.272,227.448,331.493,1.392,-11.46,9.041
-984.26,203.331,323.676,0.338,-13.014,9.14
-983.473,201.768,321.12,-0.294,-15.155,9.152
-986.762,183.206,318.27,-1.197,-16.972,9.378
-1005.243,173.678,304.218,-1.498,-19.024,9.647
-1004.302,139.951,264.689,-2.129,-20.573,10.203
-1011.014,158.358,251.805,-2.337,-21.65,10.67
-978.567,138.78,234.176,-2.755,-22.158,11.268
-973.43,123.319,219.339,-2.884,-22.602,11.852
-970.185,105.414,198.433,-3.401,-22.782,12.416
-984.83,103.524,192.311,-3.881,-22.896,12.519
-956.497,76.17,178.703,-4.372,-22.598,12.162
-961.876,65.009,147.926,-4.289,-22.336,11.481
-911.476,52.949,134.813,-4.264,-21.37,10.853
-905.005,20.918,149.093,-3.826,-20.175,10.063
-881.648,0.342,145.395,-3.861,-18.343,9.296
-861.221,-12.038,125.912,-3.357,-16.65,8.563
-837.076,-9.693,154.207,-3.034,-14.43,8.247
-828.393,-26.946,138.908,-2.184,-12.34,8.066
-790.281,-9.512,145.214,-1.61,-9.693,7.747
-785.821,6.066,154.145,-0.776,-7.316,7.076
-800.73,-12.934,182.573,-0.356,-4.428,6.237
-824.16,16.65,192.702,0.384,-1.866,5.203
-818.411,47.162,190.85,1.205,0.728,4.344
-834.404,57.658,206.275,2.61,2.941,3.405
-864.8,76.444,220.092,3.313,4.598,2.66
-894.873,87.66,241.485,3.78,5.058,2.101
-915.397,106.249,249.395,3.665,5.002,2.129
-935.555,124.685,257.788,3.932,4.279,2.274
-927.345,147.447,268.127,3.971,3.348,2.637
-924.443,166.912,271.117,4.677,2.212,2.852
-915.641,156.744,271.781,5.154,1.578,2.836
-916.677,187.797,256.617,5.863,1.085,2.738
-892.058,176.329,267.043,6.312,0.949,2.976
-901.529,192.901,232.833,7.062,0.69,3.567
-862.535,182.25,252.937,7.54,0.862,4.539
-864.827,183.885,264.515,7.928,0.713,5.591
-864.388,184.759,247.915,7.797,0.609,6.666
-870.512,178.263,251.323,7.847,0.03,7.64
-874.725,163.964,237.072,7.995,-0.32,8.548
-878.141,128.736,215.172,8.645,-0.613,8.864
-839.228,128.243,225.008,8.674,-0.69,9.073
-853.118,127.051,225.664,8.859,-1.003,9.07
-844.827,97.107,219.019,8.698,-1.146,9.234
-848.136,109.004,219.534,8.759,-1.241,9.395
-831.43,113.633,212.044,8.185,-1.067,9.654
-831.022,118.062,232.912,7.631,-1.234,9.52
-825.533,84.823,251.646,6.58,-1.041,9.336
-817.338,87.095,255.777,5.987,-0.982,8.778
-851.492,74.777,260.46,5.472,-0.716,8.357
-850.462,82.124,265.85,5.807,-0.843,7.849
-890.943,63.299,266.821,6.11,-0.843,7.52
-912.18,101.13,272.018,7.051,-1.083,7.212
-937.244,91.57,296.733,7.728,-1.167,6.866
-977.837,103.614,292.977,8.532,-1.773,6.283
-1004.456,111.554,307.273,8.488,-2.327,5.823
-1003.928,125.62,300.402,8.368,-3.31,5.534
-1007.482,132.048,289.916,7.766,-4.349,5.435
-1038.783,140.496,288.395,7.344,-5.581,5.496
-1057.397,114.564,267.016,6.874,-6.492,5.632
-1062.046,113.533,243.083,6.643,-7.243,5.522
-1032.685,97.531,222.976,5.795,-7.92,5.295
-1039.502,101.211,231.36,5.365,-8.558,4.898
-1018.899,88.957,206.097,4.828,-8.816,4.519
-1002.993,69.872,172.276,5.033,-8.962,3.918
-966.901,64.471,180.335,4.664,-8.599,3.447
-964.138,46.801,195.878,4.333,-8.207,2.79
-947.05,23.844,175.965,3.608,-7.395,2.28
-939.326,22.005,161.094,3.699,-6.421,1.716
-917.811,-2.561,167.332,3.859,-4.874,1.089
-918.875,-3.558,156.201,4.184,-3.286,0.163
-931.784,9.694,175.912,4.311,-2.004,-1.104
-924.239,-5.824,164.954,4.511,-1.048,-2.406
-906.516,-31.094,166.343,4.816,-0.083,-3.458
-915.804,-23.872,148.302,6.175,0.802,-4.599
-891.073,-21.011,179.681,7.557,2.106,-5.71
-904.696,-2.848,187.407,8.96,3.353,-6.77
-905.493,16.294,199.617,9.598,4.349,-7.737
-897.772,34.495,202.072,10.304,5.06,-8.44
-902.992,17.46,221.289,10.349,6.103,-8.979
-866.446,61.178,212.967,10.488,6.823,-9.627
-862.482,78.394,234.196,10.294,7.813,-10.38
-868.337,96.285,219.435,10.469,8.861,-11.556
-856.515,89.294,232.36,10.255,9.938,-12.909
-849.771,107.232,253.178,10.399,10.484,-14.085
-838.914,94.543,271.304,10.32,11.445,-14.799
-833.908,109.886,257.755,10.664,12.121,-15.221
-835.23,123.414,279.678,10.627,12.771,-15.095
-832.131,157.32,291.126,11.128,12.931,-14.749
-841.445,152.086,314.827,11.311,13.143,-13.953
-859.05,183.434,332.572,11.956,13.07,-13.393
-863.82,185.194,328.273,12.22,13.07,-12.894
-882.67,185.42,333.041,12.645,12.62,-12.513
-894.686,206.102,360.547,12.338,11.951,-11.834
-923.517,234.266,336.375,12.264,10.947,-11.148
-933.502,227.764,365.61,11.762,10.205,-10.346
-942.656,248.123,356.438,11.459,9.095,-9.591
-956.203,248.502,362.319,10.714,8.037,-8.679
-990.689,268.968,366.912,10.613,6.734,-7.973
-987.496,244.087,348.889,10.605,5.138,-7.377
-1019.462,269.419,343.389,11.154,3.561,-6.94
-1026.558,241.042,339.942,11.254,2.321,-6.599
-1042.461,235.02,327.706,11.168,1.085,-6.228
-1044.193,232.831,306.508,10.325,-0.044,-5.288
-1055.806,224.01,306.081,9.462,-1.525,-3.607
-1065.998,213.537,295.128,8.173,-2.953,-1.301
-1043.553,206.338,291.773,7.028,-4.456,0.854
-1053.493,195.107,291.593,5.648,-5.748,2.277
-1055.269,186.308,262.258,4.932,-6.606,2.827
-1015.35,161.055,269.395,4.232,-6.944,2.532
-1011.493,129.638,250.472,3.87,-7.427,1.448
-1004.498,95.239,243.063,2.915,-7.597,0.176
-972.949,59.3,261.452,2.079,-7.416,-1.131
-954.036,61.247,242.055,0.768,-6.55,-1.937
-946.16,33.114,237.628,0.15,-5.66,-2.144
-923.299,17.345,223.321,-0.049,-4.195,-1.803
-922.537,-2.174,228.149,0.463,-2.97,-1.783
-901.127,-11.847,247.781,0.756,-1.547,-2.033
-889.99,-4.674,255.98,1.401,-0.093,-2.887
-902.505,-39.242,266.242,1.903,1.566,-4.133
-906.353,-22.24,282.624,2.811,2.843,-5.486
-879.764,-36.415,278.898,3.429,4.029,-6.542
-917.102,-11.517,293.506,4.302,4.63,-7.257
-938.092,6.233,286.816,4.673,5.272,-7.414
-951.297,13.124,287.027,5.249,5.326,-7.208
-936.004,24.338,304.004,5.434,5.191,-6.632
-947.014,35.32,281.972,6.15,4.803,-6.121
-948.126,58.277,272.099,6.539,4.597,-5.656
-912.244,63.261,263.28,7.291,4.095,-5.736
-901.232,67.471,270.15,7.684,4.007,-5.975
-899.828,85.282,260.983,8.441,3.774,-6.323
-876.801,82.477,271.629,8.947,3.779,-6.43
-856.713,87.388,245.768,9.95,3.788,-6.34
-839.9,83.573,252.885,10.828,4.249,-5.887
-838.795,82.411,226.938,12.198,4.716,-5.324
-810.951,93.758,233.722,13.416,5.539,-4.661
-821.868,86.497,233.694,14.917,5.935,-3.953
-836.207,113.159,223.267,16.363,6.485,-3.343
-827.661,115.895,213.292,17.904,6.71,-2.89
-832.87,131.663,213.114,18.556,7.174,-2.773
-830.115,134.95,222.945,18.98,7.031,-2.716
-813.661,140.767,243.564,18.78,6.743,-2.739
-847.811,169.006,217.534,19.013,6.491,-2.955
-827.278,159.096,224.741,18.645,6.224,-3.41
-817.55,164.541,213.227,18.233,5.331,-3.999
-798.676,178.136,228.031,17.282,4.477,-4.425
-810.382,163.087,205.33,16.804,3.472,-4.815
-790.274,168.356,209.639,16.166,3.166,-4.952
-802.621,163.059,206.74,16.496,2.689,-4.934
-770.449,153.059,201.732,17.096,2.888,-4.719
-812.015,173.899,209.056,18.197,3.257,-4.563
-800.839,152.065,188.46,18.888,3.96,-4.447
-824.479,179.196,205.475,19.892,4.246,-4.346
-808.502,199.562,205.962,20.303,4.569,-4.02
-830.456,192.899,210.31,20.823,4.661,-3.596
-823.604,208.43,212.269,20.985,5.33,-3.152
-838.383,210.91,243.379,21.498,5.951,-2.826
-857.397,230.326,241.312,21.704,7.032,-2.9
-908.236,256.861,265.721,22.008,7.97,-3.078
-893.259,275.38,274.506,21.521,8.977,-3.516
-925.586,289.402,289.718,20.876,9.522,-3.78
-956.287,299.659,295.134,19.633,10.141,-3.719
-976.525,304.914,305.164,18.533,9.997,-3.318
-990.304,306.03,327.1,16.982,9.224,-2.701
-1011.409,314.67,335.109,15.799,7.703,-2.097
-1008.5,305.696,338.342,14.354,6.323,-1.544
-1014.165,298.779,356.301,12.977,4.519,-1.238
-999.33,282.204,332.919,11.379,2.618,-0.916
-996.953,275.377,323.358,10.498,0.596,-0.368
-985.993,252.391,311.16,9.676,-1.173,0.674
-981.912,241.791,297.589,9.514,-3.298,2.151
-953.201,189.718,265.029,9.639,-4.866,3.846
-935.59,173.977,246.78,10.175,-6.011,5.123
-910.424,139.169,230.728,10.459,-6.753,5.893
-896.453,125.324,206.1,10.937,-7.441,6.279
-891.52,83.869,195.906,11.008,-7.641,6.584
-876.686,72.58,159.011,11.608,-7.636,6.924
-872.891,41.198,153.2,12.418,-7.237,7.177
-850.085,32.256,148.655,13.638,-6.569,6.839
-847.158,28.13,120.477,14.129,-5.365,6.035
-825.827,21.784,118.708,14.645,-4.28,4.677
-823.129,22.025,135.613,14.58,-2.772,3.27
-779.41,8.69,121.481,14.753,-1.306,1.881
-798.683,17.57,123.361,14.892,0.51,0.711
-803.102,27.507,136.971,15.375,2.087,-0.228
-780.338,33.76,146.161,15.605,4.019,-1.074
-811.047,30.451,157.194,16.106,5.599,-1.835
-786.893,52.992,169.656,16.529,7.125,-2.305
-829.297,61.233,204.941,17.276,8.443,-2.637
-856.54,69.719,206.289,17.548,9.393,-2.737
-863.081,97.907,218.43,18.165,9.392,-2.772
-883.954,88.219,234.179,19.063,9.758,-2.705
-881.895,100.678,244.822,20.875,9.822,-2.938
-912.911,104.659,251.218,22.349,10.177,-3.274
-938.635,104.476,252.307,23.878,10.06,-3.586
-926.188,136.103,262.103,24.858,10.13,-3.639
-953.689,149.992,264.662,25.92,9.706,-3.339
-960.543,175.628,278.699,26.415,9.058,-2.588
-979.7,198.182,269.388,26.802,7.849,-1.74
