acc_x[mg],acc_y[mg],acc_z[mg],gyro_x[dps],gyro_y[dps],gyro_z[dps]
19.759,644.868,-524.037,16.545,-0.834,9.128
448.311,813.075,-771.243,23.856,-8.003,4.3
311.834,757.669,-688.334,17.513,-5.389,5.768
396.898,803.297,-750.62,16.778,-6.754,4.799
350.067,769.77,-691.357,12.777,-5.477,5.629
375.478,787.602,-727.197,11.568,-6.119,5.148
336.416,742.856,-675.949,8.553,-5.462,5.77
374.224,763.283,-678.743,7.626,-6.3,5.513
325.956,764.479,-666.273,5.659,-5.844,5.927
372.71,746.096,-694.083,5.475,-6.318,5.701
346.849,733.281,-691.7,4.353,-5.745,6.278
363.571,738.645,-700.54,3.863,-5.936,6.019
321.59,712.176,-680.241,2.126,-5.531,5.889
348.097,732.525,-699.725,1.507,-6.067,5.243
320.379,727.535,-691.92,0.656,-5.977,5.426
369.137,726.201,-697.727,0.92,-6.485,5.509
337.393,690.379,-683.846,1.132,-6.198,6.178
364.31,694.619,-689.076,2.075,-6.251,6.447
353.625,687.703,-686.585,2.729,-5.737,6.486
351.499,680.794,-688.159,3.99,-5.726,5.685
324.1,692.135,-686.273,4.722,-5.547,5.113
368.925,707.65,-696.524,5.725,-5.901,4.48
345.947,697.287,-680.468,6.197,-5.577,4.35
360.428,700.659,-701.142,6.543,-5.376,3.838
351.983,719.073,-693.093,6.238,-5.017,3.572
367.895,718.859,-699.714,6.966,-5.216,3.652
351.512,725.618,-698.783,6.803,-4.559,3.987
365.163,735.021,-725.691,6.547,-4.58,3.945
356.731,727.705,-711.386,5.787,-4.205,3.935
365.329,733.551,-706.805,5.262,-4.214,3.503
371.647,728.403,-699.284,4.127,-3.965,3.4
372.835,742.559,-710.605,3.269,-4.169,2.998
384.464,729.032,-720.652,2.082,-3.83,3.154
379.875,731.932,-707.3,0.785,-3.743,3.253
371.182,768.881,-715.381,-0.722,-3.139,3.41
369.633,760.983,-682.286,-2.001,-3.309,3.269
356.115,749.802,-693.685,-3.411,-2.961,3.228
369.611,750.449,-673.933,-4.367,-3.155,2.998
363.834,754.782,-683.508,-5.427,-3.08,2.775
363.717,733.187,-694.092,-6.214,-3.262,2.319
354.864,706.327,-696.214,-7.491,-3.008,2.0
366.061,733.83,-704.491,-8.346,-3.372,1.614
359.584,726.991,-703.833,-9.115,-2.999,1.621
383.739,722.034,-715.87,-9.479,-2.823,1.561
367.526,725.363,-723.814,-9.586,-2.223,1.752
370.553,705.283,-724.048,-8.958,-1.956,1.729
347.048,707.402,-703.038,-8.338,-1.337,1.634
358.121,717.763,-725.547,-7.243,-1.274,1.425
374.138,703.85,-717.633,-6.282,-0.974,1.382
355.116,702.821,-716.209,-4.815,-0.854,1.288
351.513,699.141,-693.865,-3.511,-0.202,1.414
366.477,704.474,-688.345,-2.057,-0.068,1.396
340.05,688.699,-688.211,-0.661,0.251,1.658
358.187,694.545,-693.253,0.826,-0.175,1.847
343.027,672.864,-691.42,1.539,-0.104,2.033
364.941,704.728,-699.272,2.242,-0.51,1.727
356.386,714.513,-681.974,2.547,-0.304,1.692
347.677,724.813,-687.547,2.863,-0.516,1.477
340.758,721.08,-702.599,2.555,-0.452,1.485
350.025,750.662,-705.733,2.268,-0.555,1.5
363.496,739.698,-694.971,1.982,-0.268,1.611
375.338,742.538,-709.841,1.896,-0.17,1.67
337.13,747.991,-694.569,1.449,0.155,1.919
365.288,740.981,-684.842,0.821,0.089,1.967
359.455,725.81,-686.209,-0.114,0.212,1.894
356.563,729.106,-676.609,-0.701,0.009,1.635
340.964,716.289,-668.66,-1.237,0.25,1.623
362.43,713.416,-671.07,-1.364,-0.013,1.506
316.519,721.827,-667.795,-1.863,-0.092,1.482
363.717,711.921,-681.619,-2.022,-0.376,1.227
355.444,721.911,-695.118,-2.193,-0.297,1.068
340.818,716.054,-694.142,-2.085,-0.472,0.935
347.537,691.738,-684.857,-2.115,-0.14,0.883
359.997,708.583,-687.765,-1.846,-0.274,0.762
347.647,718.279,-700.098,-1.568,-0.064,0.786
335.914,715.002,-695.334,-0.945,-0.313,0.758
357.786,698.531,-697.383,-0.311,0.042,0.754
356.356,724.692,-708.039,0.394,0.081,0.605
350.509,710.137,-695.749,1.002,0.487,0.596
360.869,731.104,-700.835,1.719,0.431,0.611
360.244,713.692,-696.005,2.213,0.806,0.827
347.506,726.886,-698.034,2.642,1.016,0.871
354.912,714.072,-699.731,2.932,1.348,1.049
338.833,715.744,-686.723,3.272,1.168,1.163
337.654,722.459,-700.413,3.464,1.208,1.3
342.208,723.986,-680.696,3.51,1.081,1.223
339.258,730.024,-677.883,3.287,1.143,1.306
347.288,746.424,-691.098,2.923,1.052,1.354
353.92,746.78,-670.351,2.452,1.159,1.483
340.528,753.753,-690.853,1.796,0.717,1.403
333.823,734.437,-665.216,0.753,0.605,1.419
351.024,755.538,-693.678,-0.236,0.303,1.227
356.546,739.477,-686.354,-0.872,0.381,1.307
359.026,739.17,-702.851,-1.348,0.527,1.47
343.394,727.975,-664.26,-2.521,0.844,1.494
338.203,730.109,-673.542,-3.05,0.498,0.986
346.329,720.992,-690.005,-2.704,0.327,0.955
340.432,729.679,-690.905,-1.806,-0.051,1.179
333.643,726.685,-678.092,-1.42,0.032,1.588
345.037,700.985,-687.552,-1.443,-0.18,1.542
335.447,712.877,-677.095,-1.453,-0.203,1.229
351.199,700.782,-682.888,-1.086,-0.633,0.762
347.873,700.308,-670.233,-0.735,-0.703,0.535
346.034,728.191,-686.867,-0.609,-1.122,0.402
333.172,711.419,-688.543,-0.484,-0.961,0.542
369.773,717.01,-710.871,-0.054,-0.993,0.534
343.228,720.64,-696.141,-0.019,-0.59,0.571
340.775,725.361,-684.997,0.006,-0.529,0.195
349.535,713.404,-696.421,-0.35,-0.417,0.026
344.741,743.053,-716.294,-0.406,-0.633,-0.106
341.216,716.759,-696.406,-0.502,-0.703,-0.047
373.923,735.307,-709.969,-0.556,-0.653,0.023
374.169,728.64,-708.488,-0.616,-0.245,0.21
357.377,717.21,-706.523,-0.617,0.023,0.251
353.796,705.665,-697.048,-0.276,0.396,0.292
338.958,720.037,-706.476,-0.049,0.308,0.327
328.997,711.697,-688.692,-0.229,0.335,0.23
341.082,725.317,-687.353,-0.341,-0.04,-0.211
338.284,724.85,-705.964,-0.383,-0.118,-0.352
360.258,732.749,-702.335,-0.139,-0.263,-0.547
352.632,749.208,-680.087,0.079,0.065,-0.363
336.629,740.311,-669.475,0.07,0.069,-0.121
341.26,751.57,-676.155,-0.362,0.061,0.194
349.81,744.252,-688.488,-0.86,-0.177,0.121
323.036,717.937,-685.481,-1.26,-0.049,-0.027
360.63,729.242,-687.569,-1.33,-0.172,-0.278
335.856,713.136,-693.946,-1.313,-0.011,-0.277
357.581,704.902,-678.778,-1.418,-0.27,-0.375
360.974,728.151,-683.866,-1.651,-0.218,-0.412
346.833,730.739,-706.895,-1.721,-0.421,-0.436
350.281,723.888,-680.074,-1.816,-0.149,-0.281
368.392,718.713,-693.236,-1.905,-0.159,-0.377
348.153,722.232,-693.988,-1.964,0.156,-0.431
351.25,728.777,-716.665,-1.876,0.095,-0.623
341.983,698.025,-711.069,-1.731,0.381,-0.356
336.396,721.033,-710.823,-1.499,0.491,-0.392
343.723,711.041,-698.784,-1.247,0.956,-0.428
366.582,737.572,-704.06,-1.24,1.225,-0.5
342.254,713.31,-692.607,-1.236,1.459,-0.454
369.931,728.667,-709.096,-1.162,1.496,-0.426
349.997,727.368,-702.71,-1.221,1.666,-0.269
333.72,716.956,-709.593,-1.218,1.56,-0.304
340.869,720.998,-695.333,-1.537,1.643,-0.214
334.309,718.266,-699.741,-1.638,1.535,-0.409
336.798,735.261,-702.614,-1.747,1.621,-0.404
323.059,736.162,-690.823,-1.948,1.51,-0.453
353.28,723.027,-687.105,-2.253,1.6,-0.479
357.889,720.183,-681.712,-2.425,1.442,-0.537
359.846,718.11,-668.87,-2.465,1.424,-0.489
362.312,716.55,-684.242,-2.324,1.064,-0.584
339.035,709.508,-674.82,-2.351,1.159,-0.546
353.811,700.212,-669.312,-2.262,0.836,-0.694
333.967,704.924,-669.265,-2.182,0.901,-0.699
345.082,714.546,-679.386,-1.932,0.749,-0.517
338.904,711.511,-681.371,-1.518,0.519,-0.334
349.662,728.004,-673.932,-0.904,0.182,-0.22
336.769,710.505,-672.902,-0.272,0.075,-0.084
345.922,729.881,-698.809,0.393,-0.189,-0.153
357.676,712.528,-697.863,0.731,-0.1,-0.154
351.693,721.312,-701.254,1.085,-0.267,-0.319
362.612,712.511,-702.779,1.176,-0.176,-0.368
354.534,741.777,-713.825,1.073,-0.225,-0.504
355.213,730.46,-699.28,1.22,-0.02,-0.391
354.763,735.868,-728.688,0.764,0.111,-0.392
362.847,718.951,-719.259,-0.246,0.529,-0.436
355.919,722.646,-713.117,-0.783,0.465,-0.832
357.95,746.638,-709.27,-1.168,0.59,-1.085
346.606,725.096,-694.311,-1.097,0.213,-1.445
336.095,727.628,-677.547,-0.856,0.24,-1.494
347.323,734.717,-685.075,-0.823,0.048,-1.679
355.524,730.165,-677.086,-1.401,-0.029,-1.704
354.095,704.03,-698.754,-1.841,0.025,-1.558
338.004,708.039,-693.586,-1.646,0.401,-1.374
319.251,688.822,-675.703,-0.748,0.586,-1.348
342.294,692.849,-670.125,0.347,0.57,-1.578
323.382,668.413,-647.632,1.196,0.097,-2.285
322.882,675.192,-634.488,1.61,-0.177,-2.98
329.863,698.228,-650.751,2.238,-0.847,-3.645
325.848,721.103,-653.258,3.265,-1.265,-3.907
352.142,748.885,-675.556,4.712,-1.861,-3.706
323.53,769.707,-685.59,5.592,-2.032,-3.12
338.807,777.567,-686.687,6.046,-2.298,-2.544
329.838,773.931,-688.363,6.008,-2.535,-1.835
340.203,787.679,-679.266,6.08,-2.767,-1.302
348.799,779.469,-674.108,5.965,-2.756,-0.836
346.223,766.427,-672.477,5.659,-3.038,-0.627
329.274,764.151,-673.301,5.092,-3.223,-0.31
327.662,741.83,-667.549,4.355,-3.554,-0.188
313.908,753.153,-685.831,3.725,-3.557,-0.146
338.94,746.596,-659.602,3.486,-4.127,-0.048
328.337,733.56,-666.774,2.785,-4.308,0.245
332.939,724.587,-664.206,2.045,-4.678,0.274
305.93,746.084,-650.28,1.231,-4.662,0.043
326.904,749.184,-673.124,0.476,-4.952,-0.074
333.918,758.726,-665.543,-0.244,-4.896,0.006
334.843,761.801,-668.517,-0.477,-5.161,0.321
323.988,741.782,-680.601,-0.942,-5.262,0.803
346.297,746.79,-686.566,-1.379,-5.555,1.123
341.943,722.671,-686.002,-1.893,-5.469,1.116
324.975,693.67,-688.875,-1.786,-5.532,0.82
334.851,686.89,-688.455,-0.946,-5.215,0.652
347.552,686.981,-684.03,0.58,-5.28,0.826
317.571,648.139,-673.774,2.933,-5.098,1.086
327.203,665.945,-687.516,5.359,-5.195,1.262
307.341,654.032,-661.113,7.471,-5.566,1.307
309.723,647.281,-685.014,9.312,-5.937,0.967
330.754,664.042,-689.233,10.655,-6.052,0.599
320.991,691.637,-703.064,11.365,-6.235,0.175
328.328,702.084,-697.415,11.764,-5.801,0.192
336.374,716.299,-696.792,12.022,-5.707,0.552
342.364,730.513,-719.849,12.142,-5.254,1.095
337.677,717.392,-734.159,12.36,-5.218,1.522
350.416,715.011,-734.659,12.605,-4.923,1.762
339.553,733.614,-733.889,12.936,-5.098,1.748
342.498,746.264,-724.99,12.885,-5.071,1.796
344.616,744.899,-733.474,12.327,-5.348,1.719
340.751,750.747,-729.02,11.389,-5.485,1.788
350.442,763.449,-734.513,10.249,-5.705,1.855
342.803,765.721,-707.586,9.172,-5.657,1.962
338.399,771.698,-694.074,7.798,-5.802,2.204
337.606,750.423,-701.798,6.02,-5.727,2.888
345.383,749.013,-678.355,4.718,-6.159,3.102
339.927,717.06,-688.484,3.837,-6.271,3.181
327.251,730.994,-688.32,3.627,-6.74,3.119
341.544,700.012,-686.683,3.545,-6.954,3.238
350.989,694.134,-700.859,3.835,-7.565,3.286
338.651,694.227,-685.336,4.744,-7.691,2.996
337.535,713.615,-674.763,9.137,-8.098,2.568
334.931,683.501,-727.288,12.235,-8.858,3.081
373.914,633.683,-768.74,11.35,-9.179,2.998
378.475,559.688,-765.443,9.988,-7.986,1.877
371.749,575.947,-727.399,10.473,-6.849,0.119
324.018,575.238,-687.144,11.563,-6.554,-1.419
301.895,629.086,-673.801,12.033,-7.614,-2.614
277.488,696.33,-676.099,11.804,-8.452,-3.345
274.566,789.462,-686.081,11.632,-9.305,-2.836
276.748,862.52,-691.969,11.077,-9.382,-1.31
302.061,914.241,-709.211,9.911,-9.507,0.68
323.956,953.854,-699.27,8.107,-9.462,2.917
333.85,902.048,-726.832,5.338,-9.906,4.51
324.654,838.167,-689.942,1.684,-9.94,5.41
360.423,766.065,-706.236,-1.769,-9.94,5.202
345.173,708.566,-696.863,-3.85,-9.661,4.392
347.877,652.1,-711.276,-3.896,-9.833,3.465
316.063,631.331,-699.157,-2.563,-9.835,2.934
334.086,619.331,-709.874,-0.359,-10.071,2.374
316.857,626.677,-719.437,2.336,-10.033,1.922
308.048,637.887,-730.13,5.316,-10.414,1.411
307.272,653.982,-714.185,8.096,-10.607,1.409
314.953,676.635,-725.735,10.335,-10.977,1.53
316.041,674.582,-730.544,11.858,-10.569,1.758
322.291,656.62,-712.482,13.227,-10.375,1.851
324.414,655.875,-713.796,14.413,-9.792,1.878
312.015,634.414,-730.655,15.723,-9.633,1.277
298.297,646.387,-725.887,17.327,-9.184,1.2
315.661,680.046,-732.458,19.078,-9.481,1.333
310.664,664.497,-723.959,20.109,-9.534,1.435
309.809,685.835,-740.274,20.356,-9.726,1.211
312.88,695.462,-714.24,20.235,-9.494,0.937
320.987,712.448,-736.738,19.824,-9.682,0.744
324.942,687.801,-736.307,18.885,-9.572,0.676
308.662,710.966,-728.028,17.739,-9.672,0.731
299.348,718.156,-715.959,16.355,-9.595,0.859
323.48,720.702,-734.001,14.91,-9.74,0.898
303.995,732.054,-721.008,13.577,-9.697,0.672
311.09,723.681,-732.768,12.835,-10.283,0.549
310.109,719.705,-727.067,12.614,-10.653,0.822
314.386,691.198,-728.182,13.085,-11.071,0.923
296.699,693.739,-724.725,13.742,-11.062,1.1
289.191,673.512,-733.685,14.451,-11.556,1.18
281.973,661.386,-730.034,15.376,-11.676,1.253
313.559,658.841,-734.352,16.158,-12.031,0.993
301.118,674.665,-739.93,16.981,-11.94,0.979
289.732,662.35,-744.483,17.591,-12.191,0.962
301.434,658.841,-740.43,18.449,-12.334,1.003
307.49,661.14,-761.61,19.309,-12.673,0.989
309.304,654.68,-735.766,19.876,-12.67,1.011
308.812,649.288,-756.147,20.47,-13.045,0.923
306.71,658.175,-745.197,20.837,-13.129,0.805
318.197,649.308,-736.406,20.836,-13.414,0.74
302.283,657.688,-712.544,20.699,-13.481,0.841
307.094,673.419,-712.685,20.376,-13.839,0.705
306.242,665.482,-724.865,19.776,-13.79,0.655
283.64,675.298,-741.101,18.823,-13.921,0.466
275.887,692.424,-734.576,17.949,-14.044,0.483
302.69,696.415,-742.485,17.197,-14.23,0.612
311.863,715.991,-748.729,16.469,-14.151,1.019
284.965,702.172,-759.418,15.87,-14.398,1.432
291.863,685.821,-780.767,15.129,-14.236,1.654
286.904,688.133,-795.639,14.844,-14.366,1.75
295.488,695.271,-790.721,14.705,-14.448,1.969
294.291,688.43,-809.831,14.586,-14.511,2.218
273.717,684.26,-803.945,14.388,-14.474,2.403
298.264,688.89,-797.32,14.378,-14.613,2.411
288.715,697.39,-788.455,14.462,-14.678,2.646
299.616,689.776,-787.859,14.493,-15.118,2.981
274.941,693.475,-767.854,14.03,-15.199,3.182
290.08,687.112,-760.74,13.19,-15.557,3.088
277.385,699.072,-748.801,11.795,-15.806,2.893
293.192,695.979,-753.7,10.122,-16.26,2.741
283.683,681.482,-738.364,8.15,-16.145,2.949
303.284,693.549,-728.301,6.421,-16.025,2.778
279.779,705.013,-737.43,4.355,-15.804,2.535
286.637,694.607,-732.436,2.399,-15.918,2.299
272.66,678.406,-722.549,0.496,-15.696,2.407
267.614,700.966,-754.03,-1.033,-15.745,2.524
280.119,675.94,-745.888,-2.242,-15.589,2.571
277.838,670.267,-768.945,-2.823,-15.572,2.605
293.186,682.182,-760.227,-2.849,-15.33,2.721
300.703,642.732,-776.546,-2.597,-15.386,2.674
278.252,671.432,-797.365,-2.35,-15.227,2.488
283.014,650.855,-801.605,-1.593,-15.238,2.443
285.002,657.326,-801.415,-0.262,-14.889,2.742
279.886,658.44,-810.135,1.557,-14.939,3.02
277.972,616.387,-806.47,3.785,-14.946,3.412
287.433,627.65,-806.976,6.138,-15.125,3.629
293.072,627.056,-805.326,7.808,-14.913,3.681
273.919,632.11,-805.815,8.936,-15.044,3.203
272.885,627.934,-799.846,9.796,-15.18,3.014
295.435,659.98,-803.958,10.559,-15.318,2.933
283.12,666.849,-794.361,11.063,-15.109,3.295
292.423,704.038,-784.838,11.311,-15.014,3.862
287.59,689.697,-786.117,10.817,-14.569,3.939
284.902,714.38,-782.177,9.82,-14.63,3.881
271.377,707.224,-756.488,8.739,-14.749,4.189
285.772,716.678,-776.917,7.212,-14.684,4.375
277.193,698.438,-777.396,5.265,-14.159,4.405
277.511,698.038,-774.307,3.786,-14.01,4.125
255.122,696.062,-766.144,2.488,-13.781,4.029
253.757,685.021,-764.24,1.088,-13.604,3.668
261.569,675.639,-779.447,-0.194,-13.06,3.261
252.736,675.712,-788.879,-0.997,-13.062,2.973
273.916,663.621,-783.255,-1.398,-12.93,2.963
259.423,651.055,-785.184,-1.324,-12.961,2.954
273.62,619.776,-795.585,-0.943,-12.88,2.83
258.352,641.026,-816.727,-0.391,-12.955,2.238
288.633,630.516,-807.231,0.304,-12.969,1.697
291.183,645.266,-820.597,1.162,-13.098,1.168
284.351,647.439,-826.099,2.048,-12.853,1.231
277.506,679.921,-823.905,2.86,-13.12,1.391
264.504,665.818,-806.23,4.032,-13.153,1.797
277.563,676.991,-825.054,5.655,-13.734,2.152
275.172,650.136,-798.346,8.114,-14.048,2.783
263.276,653.687,-802.968,10.264,-14.633,3.283
271.196,616.346,-799.789,11.107,-14.552,3.392
275.68,666.953,-798.444,10.884,-14.239,2.764
272.785,623.217,-800.953,10.53,-14.067,2.29
272.714,638.408,-789.981,9.562,-14.372,1.918
277.547,655.007,-779.894,8.392,-13.959,1.473
283.396,672.124,-770.793,7.37,-14.107,1.355
264.624,670.446,-800.424,5.806,-13.959,1.386
287.148,702.875,-779.739,3.914,-13.964,1.455
272.819,673.991,-795.283,2.018,-13.788,1.681
267.877,660.348,-798.577,-0.01,-13.607,1.839
260.736,643.479,-797.591,-1.696,-13.184,1.98
274.432,596.2,-786.59,-2.931,-13.051,1.546
264.192,589.767,-782.199,-3.798,-12.896,0.81
276.486,579.819,-789.027,-3.77,-13.119,0.274
271.072,566.314,-767.329,-3.069,-12.709,0.106
275.003,588.215,-789.39,-2.149,-12.413,-0.414
245.159,571.965,-774.026,-0.993,-12.117,-1.047
267.502,594.484,-778.973,0.284,-12.313,-1.6
233.37,615.386,-778.798,1.504,-12.192,-1.701
247.315,630.909,-761.195,3.09,-12.444,-1.863
242.303,634.644,-736.187,4.574,-12.531,-2.06
259.556,665.556,-742.404,6.21,-13.178,-2.211
250.39,677.391,-738.6,8.345,-13.707,-1.541
267.076,682.316,-737.877,10.745,-14.103,-0.703
258.335,669.225,-742.218,12.057,-14.088,0.451
259.171,651.624,-767.334,12.093,-14.386,1.456
230.368,635.659,-775.183,11.326,-14.429,1.297
226.487,636.8,-784.037,10.282,-15.088,0.463
210.07,658.869,-778.185,8.757,-15.808,0.176
243.933,656.372,-780.638,6.949,-16.274,-0.075
245.846,652.788,-755.469,4.982,-16.563,-0.401
243.943,650.986,-758.03,3.185,-16.824,-0.885
249.88,625.816,-763.509,1.464,-16.923,-1.313
219.926,645.482,-742.324,-0.086,-17.32,-1.807
197.423,644.486,-728.175,-1.828,-16.907,-2.316
202.268,618.595,-725.897,-2.804,-16.93,-2.857
188.574,642.396,-725.949,-2.98,-17.128,-3.079
198.376,627.211,-745.546,-2.95,-17.679,-2.95
183.234,621.702,-750.165,-2.801,-17.759,-2.983
182.168,612.314,-747.366,-2.169,-17.99,-3.035
203.514,600.333,-766.345,-1.076,-17.867,-3.185
206.265,611.691,-782.954,0.401,-18.036,-3.353
197.603,603.292,-764.441,2.152,-18.046,-3.506
187.094,581.363,-789.737,4.31,-18.391,-3.749
175.782,584.914,-773.223,6.569,-18.196,-3.978
184.964,585.501,-793.753,8.899,-18.61,-3.931
159.901,612.191,-772.777,11.262,-18.91,-3.93
177.347,600.925,-799.442,13.535,-19.251,-3.88
180.659,615.421,-790.1,16.42,-19.623,-3.712
177.675,638.018,-774.851,18.82,-20.49,-3.468
181.539,653.769,-750.9,20.719,-21.138,-3.351
178.57,667.207,-769.606,21.936,-22.055,-3.353
159.165,673.805,-741.931,22.639,-22.681,-3.15
169.76,681.484,-736.154,23.215,-23.876,-2.925
173.589,684.963,-689.465,23.494,-25.069,-2.484
162.888,669.932,-686.521,23.374,-26.713,-2.075
149.206,652.095,-697.307,22.378,-28.044,-2.078
167.789,654.358,-682.24,20.338,-29.426,-2.658
160.629,642.802,-687.808,17.765,-30.655,-3.526
138.514,671.572,-694.475,14.683,-32.365,-4.604
131.795,656.621,-683.27,11.373,-33.6,-5.323
121.795,687.59,-700.492,7.726,-34.743,-6.12
105.945,697.631,-699.323,4.105,-35.63,-6.617
96.253,714.543,-706.407,0.176,-36.793,-7.111
89.601,706.121,-719.182,-4.205,-37.639,-7.344
92.487,717.029,-711.838,-8.746,-38.966,-7.521
80.778,714.271,-721.351,-13.277,-40.267,-8.032
85.357,706.519,-714.287,-17.934,-42.133,-9.001
60.227,696.312,-699.716,-22.428,-43.647,-10.122
44.668,690.548,-696.69,-26.919,-45.506,-11.42
42.058,672.909,-684.253,-31.587,-47.045,-12.751
39.642,693.123,-670.269,-36.644,-48.843,-14.329
19.765,701.06,-636.205,-42.078,-50.379,-16.004
24.603,721.612,-631.205,-47.802,-52.359,-17.618
-26.945,714.532,-591.201,-53.746,-54.273,-19.1
-36.108,724.539,-567.366,-59.939,-56.667,-20.546
-36.669,740.747,-538.142,-66.535,-58.897,-22.018
-74.34,749.897,-513.494,-73.759,-61.694,-23.771
-67.498,766.878,-464.647,-81.527,-64.53,-25.847
-109.237,757.495,-461.36,-89.822,-67.498,-28.435
-127.673,758.764,-439.459,-98.685,-70.536,-31.145
-138.858,749.903,-409.878,-108.267,-73.842,-34.282
-176.528,749.902,-393.334,-118.451,-76.839,-37.505
-206.069,738.257,-359.346,-129.042,-80.665,-41.358
-232.907,731.735,-359.916,-140.109,-84.464,-45.9
-228.816,709.448,-356.143,-151.517,-87.974,-51.126
-290.427,676.305,-357.64,-163.331,-90.893,-57.254
-303.981,680.112,-376.722,-175.236,-94.476,-64.058
-315.172,654.745,-369.59,-187.49,-97.571,-71.259
-344.52,629.663,-386.651,-199.884,-101.036,-78.842
-343.003,616.244,-380.596,-211.933,-103.833,-86.507
-365.201,586.114,-347.062,-223.74,-107.349,-94.605
-376.638,592.491,-351.431,-235.828,-110.311,-102.815
-397.964,595.297,-370.544,-247.912,-112.995,-112.241
-399.796,592.431,-363.062,-259.712,-115.568,-121.61
-431.547,596.159,-368.432,-270.559,-118.329,-130.431
-463.986,604.041,-378.034,-279.981,-120.13,-139.122
-473.218,625.663,-398.443,-289.222,-122.115,-148.069
-481.65,632.493,-401.655,-298.809,-123.542,-156.344
-472.121,637.341,-430.619,-308.977,-124.151,-165.073
-502.299,648.437,-462.79,-318.854,-124.117,-173.995
-509.154,626.06,-487.867,-327.508,-124.163,-182.785
-522.514,657.511,-489.68,-334.765,-124.302,-191.616
-533.069,627.389,-534.751,-340.034,-124.665,-200.073
-515.518,649.847,-574.091,-343.824,-124.107,-208.714
-537.059,664.005,-595.399,-348.039,-124.656,-217.345
-504.844,681.199,-626.171,-353.705,-124.949,-225.462
-510.934,705.482,-636.454,-360.495,-124.096,-234.045
-481.597,672.399,-639.538,-367.481,-122.198,-243.327
-464.865,645.582,-654.752,-371.699,-119.292,-253.893
-464.552,630.179,-650.754,-375.787,-116.563,-264.527
-416.323,571.384,-637.619,-381.24,-112.824,-273.423
-418.257,531.596,-629.762,-385.013,-106.298,-281.472
-393.006,527.459,-622.773,-388.442,-101.175,-290.613
-411.546,536.077,-614.863,-392.821,-93.924,-298.815
-380.772,548.033,-601.273,-396.335,-85.235,-304.353
-409.451,541.515,-574.604,-396.115,-75.429,-308.259
-407.968,559.979,-593.717,-394.681,-66.716,-313.999
-395.348,577.326,-582.604,-391.698,-55.108,-319.352
-435.128,631.186,-599.439,-387.552,-41.766,-322.946
-456.002,646.861,-580.901,-382.998,-30.654,-325.856
-491.73,698.025,-565.846,-376.808,-18.293,-329.136
-557.752,772.921,-533.379,-370.704,-6.987,-332.097
-577.798,805.479,-459.014,-365.245,4.399,-334.271
-645.27,828.49,-416.757,-358.048,15.626,-335.911
-688.983,857.316,-360.182,-348.099,24.271,-335.823
-735.486,883.771,-314.114,-338.863,35.455,-332.999
-752.264,882.474,-280.755,-330.318,46.154,-327.93
-800.641,876.822,-257.188,-321.814,56.836,-320.674
-806.314,817.605,-242.317,-313.301,65.438,-314.028
-833.871,778.406,-199.849,-302.06,71.097,-304.899
-852.849,731.538,-159.753,-286.922,76.845,-295.859
-825.175,692.097,-131.539,-267.09,81.838,-287.599
-826.807,693.297,-98.002,-244.928,89.374,-281.417
-819.954,727.89,-54.6,-221.642,98.591,-275.5
-839.213,774.93,-69.026,-199.048,107.956,-270.185
-830.948,830.985,-27.294,-176.905,115.642,-263.788
-867.426,881.026,-26.42,-155.631,122.885,-256.175
-920.39,946.812,5.975,-136.634,129.224,-248.867
-939.137,976.929,29.409,-119.307,134.004,-241.212
-983.612,1021.182,65.659,-103.661,139.085,-232.54
-971.179,1069.247,101.337,-90.472,143.714,-224.31
-1025.53,1126.182,127.552,-79.658,146.537,-216.826
-1055.493,1178.936,142.788,-70.808,148.289,-209.726
-1081.851,1204.401,150.545,-63.656,149.567,-203.394
-1101.217,1210.979,159.014,-58.555,148.842,-195.509
-1133.038,1191.227,184.041,-53.879,147.106,-184.784
-1156.02,1159.607,168.321,-49.888,143.527,-174.798
-1176.265,1138.44,192.509,-48.001,139.643,-166.252
-1167.043,1110.355,206.651,-45.874,135.2,-157.617
-1190.265,1074.713,226.42,-41.974,131.383,-148.064
-1208.686,1077.525,219.521,-36.289,127.804,-137.619
-1237.076,1057.528,200.407,-30.098,123.948,-126.378
-1224.391,1035.098,240.696,-23.576,116.716,-112.978
-1234.149,1001.917,278.187,-15.386,108.514,-97.717
-1240.086,933.253,287.48,-2.406,99.588,-82.019
-1269.141,875.875,345.13,16.495,90.21,-67.506
-1284.587,803.91,434.131,41.706,79.272,-55.26
-1257.857,767.959,505.505,72.162,69.625,-44.208
-1209.572,754.646,516.621,103.166,64.288,-33.948
-1166.16,788.802,520.49,129.171,60.466,-24.1
-1147.322,886.817,493.658,146.552,54.587,-14.154
-1151.308,992.66,476.39,157.392,47.623,-4.623
-1112.257,1049.006,446.255,165.415,40.459,3.865
-1079.99,1104.082,422.34,171.577,34.12,11.75
-1077.433,1116.441,397.746,175.912,27.143,20.003
-1017.573,1070.033,404.674,179.477,20.393,28.265
-975.618,1067.866,410.814,182.668,14.711,35.799
-910.297,1093.827,414.655,183.826,11.622,41.935
-851.063,1130.876,414.672,180.965,8.721,46.873
-834.417,1166.044,402.056,173.599,5.751,51.215
-848.778,1223.5,382.585,162.208,2.063,54.728
-820.067,1267.142,386.742,146.858,-1.456,57.723
-812.061,1294.443,384.722,128.095,-5.213,59.848
-820.792,1291.018,396.769,106.985,-9.027,61.378
-809.141,1249.775,397.628,84.777,-13.676,62.042
-788.157,1193.538,371.059,62.87,-17.683,62.247
-775.305,1162.275,365.879,43.283,-21.89,61.901
-787.634,1058.647,365.882,26.556,-25.542,61.864
-776.392,927.935,399.202,13.852,-30.041,62.15
-747.166,786.551,407.985,5.421,-33.771,62.497
-743.403,664.498,405.757,0.606,-36.869,62.446
-769.202,529.926,410.604,-0.974,-39.077,62.051
-738.786,411.666,412.917,1.226,-41.823,62.086
-749.222,316.74,399.357,6.152,-43.317,62.323
-716.96,275.016,392.711,13.583,-44.102,62.206
-706.265,257.232,365.96,22.068,-44.7,62.247
-674.736,289.038,343.756,30.545,-45.087,62.792
-653.144,350.9,316.143,38.257,-43.721,63.99
-620.088,434.679,295.331,44.406,-41.178,65.43
-616.624,534.968,258.384,48.078,-37.657,66.745
-597.145,645.034,225.876,47.926,-33.73,67.339
-631.776,710.288,183.191,44.225,-29.592,67.095
-654.946,775.514,154.358,37.893,-26.889,65.861
-716.592,808.097,125.188,29.864,-24.81,64.299
-718.048,816.606,112.918,21.034,-23.731,62.644
-746.754,783.3,87.131,12.048,-22.375,61.413
-743.435,747.09,66.169,3.354,-21.288,60.48
-757.846,684.123,53.413,-4.607,-20.313,60.042
-726.309,629.942,18.311,-11.877,-19.783,59.091
-703.776,584.498,7.864,-18.228,-18.554,57.582
-687.496,547.474,-24.223,-23.922,-17.355,55.535
-679.252,507.718,-36.308,-28.536,-15.815,53.262
-667.59,496.167,-52.271,-31.513,-13.74,50.53
-647.285,470.134,-17.257,-33.732,-10.437,47.311
-658.723,460.863,-31.817,-35.687,-7.391,43.989
-686.441,420.203,-15.544,-36.732,-4.497,40.578
-691.73,363.539,-11.342,-36.846,-2.978,37.01
-693.138,296.425,-35.419,-36.589,-1.283,33.229
-699.187,260.175,-27.454,-35.788,-0.191,29.54
-729.331,191.0,-23.584,-32.826,0.664,26.35
-723.141,126.017,-36.894,-27.864,1.098,23.415
-725.365,62.573,-40.747,-21.586,1.609,20.673
-725.445,15.585,-60.303,-14.181,1.121,17.245
-721.671,-17.06,-92.317,-5.179,1.214,13.586
-715.339,-39.713,-113.462,5.317,1.334,9.737
-724.228,-9.567,-110.969,17.061,2.638,6.727
-720.346,37.132,-118.673,29.29,3.948,4.419
-752.838,63.648,-96.264,41.568,5.723,3.272
-788.367,141.124,-65.387,53.164,7.104,2.578
-817.437,203.956,-53.298,62.2,9.287,2.112
-827.396,264.171,-54.404,67.957,10.614,1.072
-862.479,326.562,-32.497,70.554,11.303,0.128
-884.12,372.165,-51.492,71.434,10.561,-0.993
-916.556,397.51,-11.059,71.481,9.058,-2.152
-923.597,394.059,-5.371,71.292,6.369,-3.483
-913.107,389.266,-10.676,71.339,4.187,-5.139
-917.275,357.465,-34.78,72.113,1.613,-6.59
-909.552,342.846,-19.466,74.302,-1.024,-7.207
-856.655,326.257,-16.085,78.41,-3.462,-7.73
-853.415,293.961,-15.748,83.742,-4.998,-8.448
-817.059,286.261,-26.156,90.048,-6.701,-9.149
-795.291,287.605,-32.935,97.213,-7.21,-9.189
-791.213,292.763,-75.296,105.509,-8.113,-9.406
-755.808,264.05,-96.437,113.305,-8.065,-9.36
-749.194,301.22,-127.618,120.311,-8.055,-9.041
-758.394,296.255,-144.748,127.159,-7.817,-8.838
-751.847,319.973,-170.588,134.276,-8.401,-9.167
-768.4,362.601,-154.646,139.911,-8.538,-10.007
-770.593,435.025,-157.166,144.272,-9.945,-10.011
-798.974,485.816,-158.961,147.798,-11.395,-9.118
-798.562,536.504,-151.422,149.936,-14.448,-7.402
-811.749,515.978,-100.156,151.227,-18.457,-5.68
-799.837,462.858,-28.315,153.462,-23.538,-5.141
-792.77,445.173,-9.871,154.039,-27.277,-4.317
-755.586,435.368,-56.414,154.935,-26.9,-2.809
-778.847,438.577,-116.691,160.343,-22.052,-1.296
-837.106,490.388,-76.512,170.836,-17.611,1.145
-871.645,574.688,-62.81,181.548,-17.83,6.709
-888.062,655.304,-135.047,189.624,-17.002,14.165
-927.452,697.147,-142.214,199.996,-15.27,21.098
-980.569,764.769,-196.331,213.154,-13.5,27.281
-1016.676,803.035,-196.613,226.141,-10.377,33.618
-1075.51,851.756,-259.154,238.229,-8.855,39.978
-1111.181,887.265,-257.559,247.849,-8.849,45.988
-1135.993,929.85,-311.513,253.849,-11.058,51.363
-1157.709,965.419,-332.333,256.333,-13.891,56.191
-1132.363,990.026,-366.596,255.639,-17.137,61.069
-1113.86,1060.057,-396.13,251.578,-19.596,66.138
-1087.644,1064.875,-420.877,244.248,-22.332,71.552
-1055.732,1094.304,-428.072,233.841,-24.332,76.872
-1023.858,1100.264,-459.114,219.65,-25.686,81.473
-986.936,1061.553,-480.546,203.851,-25.734,85.39
-938.225,987.244,-479.754,189.4,-23.989,88.997
-900.865,902.124,-489.582,176.298,-20.121,93.155
-888.745,800.393,-473.401,165.498,-17.137,96.167
-879.281,682.863,-465.305,157.706,-13.728,97.349
-855.66,582.979,-485.874,153.372,-10.341,95.739
-871.055,493.137,-459.433,152.005,-6.889,91.836
-884.425,425.21,-397.645,152.249,-5.323,86.409
-918.685,387.212,-334.946,152.819,-5.957,82.826
-896.526,329.848,-262.827,154.157,-8.609,80.901
-887.046,285.1,-191.526,154.532,-11.22,79.347
-849.818,247.834,-196.558,154.735,-11.333,76.131
-792.058,218.157,-184.802,157.263,-6.586,71.831
-810.385,201.075,-125.946,161.987,-2.777,68.254
-798.351,187.371,-109.406,168.718,-2.153,65.23
-815.517,173.36,-54.131,176.337,-2.717,62.363
-833.417,239.079,-1.035,179.103,-8.239,58.481
-798.926,310.923,-61.801,175.637,-12.199,53.689
-802.191,393.293,-114.073,169.992,-14.197,49.86
-752.627,454.928,-184.081,165.192,-16.094,49.051
-730.07,487.263,-231.365,163.969,-16.936,49.929
-726.445,482.019,-283.682,163.613,-19.755,51.744
-703.318,466.637,-266.593,163.357,-22.37,54.834
-714.646,446.869,-248.64,166.45,-24.389,54.967
-752.346,442.214,-233.464,166.409,-25.24,49.824
-754.873,463.959,-187.237,161.152,-26.446,44.519
-734.99,481.705,-175.598,153.047,-28.559,41.911
-719.278,481.796,-228.714,147.065,-29.531,41.243
-655.205,478.001,-296.893,143.362,-25.933,39.881
-670.564,458.456,-324.865,143.92,-22.457,37.583
-712.829,455.061,-330.735,142.993,-21.072,35.502
-732.698,435.157,-288.155,139.629,-19.945,32.964
-750.977,433.451,-306.529,134.74,-17.43,28.431
-728.732,441.809,-336.551,131.484,-14.277,22.762
-725.297,423.521,-350.003,128.596,-8.783,16.069
-742.353,432.858,-366.292,125.855,-5.394,12.429
-755.837,435.885,-384.004,123.859,-4.224,11.988
-744.211,440.239,-445.906,122.263,-3.299,11.659
-746.635,406.67,-475.245,120.676,-1.346,9.232
-764.943,385.712,-438.221,121.985,-1.028,6.664
-712.252,420.147,-502.132,121.196,-0.106,4.676
-696.079,446.794,-589.069,119.456,3.779,4.517
-693.129,518.912,-629.337,123.225,6.067,6.116
-717.106,591.063,-647.677,129.879,8.334,8.182
-724.247,657.264,-679.13,133.312,10.791,7.128
-744.607,755.562,-683.64,127.693,12.612,5.514
-810.563,779.762,-651.742,125.92,9.956,7.351
-778.648,778.522,-635.458,127.196,6.799,6.7
-754.054,841.999,-646.46,118.635,7.893,4.542
-710.272,898.234,-698.405,102.823,9.127,4.382
-663.032,949.377,-739.859,87.814,10.653,5.906
-633.225,977.449,-762.694,74.783,10.9,6.653
-649.267,989.015,-730.808,61.019,10.68,6.144
-635.585,980.068,-675.54,45.326,9.999,5.442
-647.028,915.049,-606.68,29.324,9.364,4.989
-622.317,836.604,-577.587,16.15,10.534,4.14
-671.26,778.443,-533.605,7.081,13.037,3.257
-686.494,737.061,-514.282,0.292,14.162,1.745
-715.239,705.702,-496.215,-4.498,14.297,0.68
-685.604,705.374,-495.866,-7.901,14.02,0.669
-691.508,723.723,-497.047,-11.174,13.803,1.532
-673.495,737.997,-500.532,-15.192,12.898,3.094
-704.206,717.536,-484.174,-19.911,11.984,4.229
-690.147,717.227,-499.509,-25.975,11.688,3.872
-691.05,738.357,-477.009,-32.578,11.637,2.596
-688.328,763.079,-477.056,-39.835,12.021,0.843
-697.201,750.437,-474.373,-46.974,12.745,-0.865
-728.968,772.005,-499.656,-54.674,12.968,-2.683
-786.5,820.754,-474.716,-63.429,11.516,-5.232
-811.902,858.334,-426.806,-74.22,7.256,-9.673
-802.86,922.469,-428.742,-87.874,2.823,-14.949
-774.722,966.146,-425.847,-105.425,-1.34,-19.502
-737.678,1031.854,-447.891,-126.159,-3.543,-23.201
-699.425,1095.627,-485.321,-148.267,-4.199,-26.647
-638.842,1167.292,-547.27,-171.364,-3.263,-29.651
-678.992,1283.411,-620.37,-195.347,-2.117,-32.319
-689.255,1378.017,-632.059,-219.847,-1.686,-35.412
-775.733,1493.356,-667.378,-245.41,-2.214,-39.895
-853.003,1564.263,-679.447,-272.631,-3.832,-44.657
-915.248,1637.625,-710.927,-302.275,-8.678,-49.426
-986.665,1607.438,-787.364,-332.684,-15.208,-53.75
-1040.917,1598.963,-800.12,-360.604,-24.289,-58.33
-1047.499,1529.114,-830.754,-385.754,-33.486,-63.518
-1017.044,1459.568,-888.554,-408.847,-42.751,-67.596
-991.481,1364.19,-895.101,-430.794,-49.84,-67.106
-941.658,1299.311,-888.799,-453.033,-55.966,-61.948
-964.03,1183.797,-808.037,-470.841,-62.448,-54.625
-929.546,1111.166,-688.061,-483.612,-68.973,-46.413
-908.87,993.213,-628.913,-494.16,-72.297,-32.91
-893.847,890.14,-616.648,-500.085,-73.072,-18.509
-857.664,777.017,-568.956,-499.268,-72.352,-7.492
-823.433,707.112,-475.1,-492.117,-70.172,2.581
-796.307,636.472,-401.947,-480.382,-66.457,14.424
-727.412,585.647,-323.092,-462.435,-60.202,25.774
-717.49,530.014,-222.714,-439.568,-52.816,36.564
-711.17,515.746,-159.942,-414.042,-47.895,46.922
-684.096,486.995,-110.234,-387.553,-41.449,57.033
-674.397,485.163,-66.941,-360.528,-34.24,66.77
-647.914,488.077,-33.949,-333.019,-28.357,73.939
-633.314,507.054,-24.145,-305.824,-22.196,80.487
-658.961,512.673,-22.647,-277.592,-16.539,87.987
-642.609,571.568,-56.179,-250.359,-12.437,95.732
-629.27,609.016,-38.252,-223.759,-8.564,104.028
-624.983,665.366,-31.291,-196.496,-5.268,113.239
-651.619,726.225,-18.605,-170.489,-3.413,122.097
-665.05,822.002,-37.628,-146.809,-2.829,129.816
-648.554,897.802,-40.203,-126.315,-1.15,136.366
-606.736,985.081,-78.04,-109.693,0.684,141.279
-584.786,1055.686,-91.077,-96.485,4.496,144.427
-531.852,1092.467,-99.179,-86.223,7.924,147.292
-514.05,1133.938,-116.649,-79.549,12.17,149.606
-503.766,1126.551,-117.488,-76.322,16.514,150.775
-450.657,1115.335,-128.452,-74.628,20.67,151.661
-449.357,1105.002,-109.165,-73.396,23.905,152.631
-458.771,1063.524,-114.77,-72.771,27.144,153.709
-429.226,1039.811,-125.237,-71.626,30.759,154.195
-434.743,1002.879,-121.916,-69.875,34.091,154.907
-421.689,995.584,-124.199,-66.648,37.186,155.965
-432.483,947.078,-96.379,-63.029,40.728,157.323
-403.344,959.703,-141.158,-60.103,43.993,158.563
-422.818,961.71,-109.584,-57.125,47.857,159.978
-404.334,941.736,-114.806,-53.329,51.162,161.239
-386.629,897.891,-134.131,-49.18,54.729,161.869
-389.642,868.315,-137.058,-43.735,58.07,161.566
-381.804,821.2,-109.25,-37.596,61.739,160.538
-382.939,761.63,-126.305,-28.931,64.838,160.037
-377.717,733.933,-142.314,-18.432,67.962,159.305
-369.832,723.616,-165.323,-7.213,71.715,158.327
-358.202,712.907,-154.35,5.016,75.496,157.77
-331.0,691.366,-197.58,16.978,79.184,157.861
-327.592,670.8,-208.747,28.869,83.507,158.72
-325.331,700.118,-231.162,39.967,88.321,158.038
-326.531,717.844,-245.979,50.038,93.33,156.621
-301.878,734.152,-281.501,59.613,97.724,154.989
-308.957,740.001,-282.616,68.0,103.09,153.19
-282.076,733.18,-289.933,75.497,107.772,150.497
-295.932,703.421,-304.743,82.339,113.065,146.761
-302.468,683.992,-302.719,89.305,117.139,141.882
-344.451,645.757,-306.086,97.236,120.55,135.889
-318.849,625.376,-292.959,105.053,123.316,129.094
-364.992,613.03,-303.113,111.876,125.848,122.405
-328.019,614.903,-334.273,116.912,127.719,116.219
-358.745,596.147,-357.572,120.652,129.898,110.546
-353.172,602.776,-342.901,123.525,131.64,105.294
-374.046,620.653,-360.132,125.262,133.774,100.271
-369.145,612.422,-372.127,126.818,136.481,95.548
-392.751,611.325,-359.657,128.034,139.564,90.758
-365.085,644.248,-367.556,126.613,142.083,86.208
-404.676,623.081,-360.053,122.8,144.856,80.803
-432.099,620.439,-351.336,117.939,146.185,74.562
-461.595,645.496,-304.276,113.691,146.832,68.678
-508.436,628.256,-279.657,110.491,145.511,63.69
-522.041,613.44,-260.114,107.752,144.378,59.533
-561.139,588.715,-232.26,105.511,142.14,55.06
-558.777,591.359,-247.452,102.801,139.172,50.831
-568.556,578.438,-222.064,100.7,135.946,47.432
-578.98,541.406,-217.71,100.454,132.872,44.437
-573.661,518.996,-210.543,102.535,129.223,41.674
-571.882,497.28,-193.267,105.725,125.429,38.229
-595.792,475.648,-175.819,108.447,121.205,34.182
-597.011,458.189,-183.912,110.564,117.007,30.577
-601.472,429.017,-169.251,113.359,113.39,27.456
-618.208,410.131,-156.724,116.78,109.593,24.211
-620.416,421.018,-141.506,119.899,105.584,20.35
-640.752,454.557,-152.287,122.116,101.039,16.102
-655.066,487.575,-176.772,122.621,96.372,13.219
-659.304,515.815,-160.433,122.759,91.189,11.974
-689.088,552.264,-177.373,123.456,85.474,10.759
-716.369,549.304,-174.812,122.807,79.222,8.623
-731.293,553.256,-183.665,120.983,72.274,6.107
-701.637,539.978,-206.372,119.631,65.944,4.706
-715.531,568.883,-226.824,118.806,60.355,3.856
-695.202,585.235,-241.806,117.275,55.631,2.899
-704.19,608.792,-261.09,115.114,50.028,0.882
-709.065,648.167,-276.869,111.455,44.864,-1.202
-693.029,683.188,-281.565,106.728,40.035,-2.805
-688.681,789.053,-326.48,99.394,36.417,-3.647
-763.501,975.747,-293.771,87.208,34.845,-4.494
-893.185,978.779,-203.789,77.134,27.113,-6.338
-954.992,880.634,-125.096,68.21,14.34,-10.064
-1009.255,720.619,-62.721,53.473,1.371,-16.121
-996.554,678.088,-54.184,36.376,-11.413,-24.293
-1001.081,697.732,-18.879,21.818,-23.548,-31.434
-950.917,761.373,-1.01,8.294,-35.641,-34.676
-911.116,752.251,-15.744,-6.156,-43.492,-36.297
-902.465,664.843,0.256,-18.304,-51.02,-39.585
-857.303,540.534,5.938,-28.883,-59.708,-43.418
-798.572,424.215,-38.764,-39.181,-64.321,-47.161
-810.13,308.758,-26.885,-46.461,-68.486,-49.605
-784.02,255.397,-9.951,-47.478,-73.963,-50.603
-713.347,204.412,-25.901,-39.959,-73.976,-49.382
-641.636,220.469,-119.652,-28.126,-67.549,-45.265
-620.78,211.879,-192.372,-15.291,-60.597,-39.638
-633.28,247.609,-257.768,-0.028,-58.656,-34.676
-655.179,263.039,-244.192,15.975,-60.458,-31.108
-691.151,272.984,-242.174,31.942,-67.436,-30.577
-624.64,255.846,-193.516,46.837,-72.242,-32.416
-487.264,263.134,-265.62,61.966,-68.768,-33.525
-467.955,311.497,-300.692,79.276,-60.308,-33.58
-540.158,364.703,-257.73,99.85,-59.233,-33.828
-585.372,440.524,-215.134,119.225,-59.865,-35.293
-612.456,549.904,-210.297,128.612,-60.527,-37.288
-654.6,654.794,-193.002,126.604,-63.821,-40.014
-640.066,748.265,-217.904,119.083,-69.075,-43.768
-611.611,777.757,-232.567,112.288,-71.988,-45.59
-564.12,854.091,-294.656,105.936,-74.027,-46.184
-586.707,893.123,-292.372,92.584,-73.731,-46.42
-624.049,975.93,-247.857,72.933,-75.562,-47.432
-622.502,1048.237,-308.487,50.171,-79.568,-49.881
-585.195,1151.397,-395.239,31.438,-83.292,-51.815
-570.737,1264.494,-397.1,14.2,-86.469,-51.465
-556.109,1298.563,-433.916,-2.616,-90.741,-50.296
-523.356,1309.14,-435.209,-18.37,-93.098,-49.459
-540.37,1342.412,-440.109,-34.709,-95.389,-48.748
-551.117,1336.434,-432.388,-52.261,-97.859,-47.441
-564.456,1299.541,-418.556,-70.548,-101.269,-45.769
-581.906,1234.09,-422.043,-88.093,-104.157,-44.654
-584.158,1152.141,-429.969,-103.792,-106.084,-44.936
-592.655,1042.122,-371.839,-117.322,-106.761,-46.148
-614.317,960.008,-378.999,-128.168,-107.293,-47.688
-601.01,850.337,-352.623,-136.791,-107.074,-48.816
-593.938,792.239,-337.955,-142.004,-106.835,-49.995
-593.053,730.685,-322.726,-143.244,-105.542,-51.117
-568.791,692.696,-311.116,-140.669,-103.901,-51.668
-562.478,687.227,-281.304,-134.631,-101.896,-51.434
-538.834,699.539,-298.399,-126.999,-99.905,-50.587
-558.556,723.317,-242.724,-118.735,-97.863,-49.455
-547.696,765.413,-244.759,-111.234,-96.733,-48.532
-570.726,792.111,-272.935,-105.494,-94.735,-48.271
-556.666,864.727,-256.553,-101.059,-93.383,-48.462
-546.848,888.045,-270.381,-96.084,-92.054,-48.501
-550.682,874.771,-287.409,-91.439,-90.545,-48.777
-536.402,855.885,-268.495,-87.926,-88.311,-49.782
-534.707,829.415,-274.121,-84.525,-86.158,-51.791
-555.15,763.017,-235.455,-81.202,-83.648,-54.89
-531.805,749.852,-234.871,-76.31,-81.828,-58.427
-541.837,732.381,-235.067,-67.975,-79.651,-61.828
-560.882,724.086,-249.644,-56.151,-76.388,-64.532
-606.077,712.894,-216.373,-43.334,-73.538,-65.719
-610.247,760.814,-268.855,-33.577,-71.514,-65.651
-621.012,789.106,-308.947,-29.313,-68.499,-65.169
-611.344,878.094,-334.348,-28.536,-65.597,-65.11
-631.005,939.5,-325.989,-29.076,-62.48,-64.602
-625.44,1014.429,-318.136,-29.547,-59.763,-63.607
-623.448,1028.017,-280.938,-30.137,-56.925,-62.365
-605.562,1044.808,-260.027,-31.496,-54.674,-61.91
-585.576,1021.883,-261.856,-33.731,-50.67,-62.163
-573.809,1014.227,-271.839,-36.242,-46.429,-63.442
-580.402,978.504,-297.991,-38.093,-41.737,-65.034
-590.172,926.081,-287.513,-38.327,-38.319,-66.37
-612.044,865.86,-265.034,-36.78,-36.055,-67.331
-610.955,794.448,-283.063,-35.459,-34.949,-69.031
-609.161,748.522,-245.536,-34.1,-34.568,-70.55
-602.47,705.188,-212.069,-30.849,-34.569,-72.35
-606.265,695.129,-188.487,-25.455,-34.202,-73.816
-588.517,662.004,-189.68,-17.739,-33.938,-75.029
-598.922,658.978,-144.527,-9.316,-32.838,-75.743
-614.336,668.61,-132.375,-1.136,-32.671,-76.162
-606.392,653.352,-97.441,6.589,-32.127,-75.99
-630.938,673.717,-83.064,14.716,-31.822,-75.68
-645.063,700.524,-50.084,22.173,-30.976,-75.189
-620.698,718.504,-68.061,28.26,-30.412,-74.146
-642.249,756.322,-95.378,32.146,-29.474,-73.104
-621.526,785.879,-124.893,34.07,-28.781,-72.482
-662.829,798.289,-124.419,35.555,-27.651,-71.919
-673.92,807.281,-108.461,37.339,-27.491,-71.372
-679.458,819.039,-91.933,39.114,-27.747,-70.584
-665.606,794.355,-99.518,40.289,-28.232,-69.945
-696.69,783.066,-91.141,40.52,-27.694,-69.319
-671.732,783.702,-116.774,39.665,-27.654,-68.669
-670.986,776.169,-116.128,38.815,-27.046,-67.977
-643.154,764.333,-138.038,38.977,-26.875,-67.411
-654.038,730.99,-133.396,40.789,-26.307,-66.769
-636.587,714.971,-158.425,44.178,-26.032,-66.051
-630.218,688.287,-159.412,48.46,-25.462,-65.234
-613.597,678.139,-173.155,53.292,-25.19,-64.599
-624.723,676.864,-167.917,58.229,-24.777,-63.796
-624.046,647.809,-185.361,63.394,-24.593,-62.784
-632.827,648.25,-166.471,69.022,-23.548,-61.504
-616.574,636.831,-162.557,75.055,-22.927,-60.159
-623.106,653.793,-163.48,80.902,-21.838,-58.709
-619.322,685.605,-180.497,86.174,-21.047,-57.457
-607.863,683.866,-173.465,90.674,-19.459,-56.058
-621.43,703.607,-206.496,94.471,-18.53,-54.884
-644.29,707.293,-209.485,98.113,-17.975,-53.864
-629.872,720.88,-211.494,101.611,-18.042,-53.032
-651.388,752.782,-182.406,104.719,-17.985,-51.88
-646.873,771.193,-195.191,106.64,-18.024,-50.878
-645.971,806.783,-185.391,106.527,-17.778,-49.891
-669.17,831.729,-212.208,105.356,-18.083,-48.988
-667.555,826.083,-196.911,103.622,-17.448,-48.12
-663.467,838.62,-226.93,101.778,-17.261,-47.614
-679.083,814.288,-239.355,99.948,-16.943,-47.428
-684.858,810.437,-246.733,98.565,-17.582,-46.958
-691.221,788.878,-233.343,97.662,-17.959,-46.24
-687.64,801.21,-243.118,97.177,-18.511,-45.43
-706.814,774.523,-223.049,97.944,-18.378,-44.152
-702.29,774.169,-230.831,99.273,-17.94,-42.7
-693.918,775.194,-260.836,99.302,-16.879,-41.069
-687.97,771.112,-267.456,98.277,-16.497,-39.038
-695.345,759.642,-263.351,97.299,-15.786,-36.854
-740.21,753.821,-271.535,97.261,-15.883,-34.729
-729.729,742.031,-272.104,98.137,-15.513,-33.108
-733.829,731.02,-291.613,99.336,-15.586,-31.922
-766.517,718.226,-299.179,100.393,-15.57,-30.717
-749.177,721.328,-298.545,102.148,-16.263,-28.972
-773.734,710.13,-269.082,104.06,-16.773,-26.524
-783.223,683.854,-278.999,105.386,-17.629,-24.226
-757.973,709.008,-262.336,106.083,-17.107,-22.342
-752.082,705.156,-250.128,106.703,-16.661,-20.364
-784.092,705.977,-242.97,107.496,-15.744,-17.391
-776.172,731.461,-250.222,108.062,-15.783,-14.205
-795.164,711.82,-260.69,108.42,-15.148,-11.691
-804.116,712.738,-265.896,109.045,-15.193,-9.915
-815.378,710.406,-245.24,109.816,-15.434,-7.764
-805.339,715.293,-247.751,110.742,-15.809,-5.522
-820.588,695.176,-251.069,111.298,-15.598,-2.342
-824.053,715.474,-249.185,112.261,-16.438,1.438
-826.764,708.897,-261.701,113.091,-16.932,4.929
-812.213,704.583,-273.351,113.78,-17.358,7.952
-812.48,709.029,-272.984,113.761,-18.029,9.985
-809.554,738.11,-264.301,113.387,-18.983,11.123
-804.227,746.063,-256.452,112.712,-18.87,12.011
-768.61,758.966,-281.58,111.237,-18.721,12.278
-784.797,747.143,-266.041,108.48,-17.804,14.033
-753.289,749.147,-280.482,105.377,-18.172,17.027
-759.907,742.975,-275.472,102.68,-17.525,19.063
-760.428,742.83,-281.116,99.912,-17.691,20.087
-737.799,753.374,-313.354,96.938,-16.441,20.986
-718.705,737.772,-351.85,93.431,-13.801,22.756
-779.98,750.573,-270.089,89.599,-12.636,26.105
-789.922,745.877,-240.495,85.348,-15.622,30.652
-831.194,753.143,-219.582,81.356,-18.104,35.992
-831.783,741.911,-207.143,79.499,-21.369,39.39
-794.332,717.319,-235.002,79.255,-23.632,39.458
-807.443,738.286,-248.892,79.281,-25.749,37.042
-820.582,730.438,-226.539,77.108,-27.072,33.522
-804.518,722.303,-210.487,71.232,-30.537,30.042
-766.68,714.28,-201.428,64.057,-31.786,27.237
-733.735,713.585,-215.279,58.113,-31.191,25.409
-723.671,706.626,-202.456,53.421,-28.676,25.893
-722.933,701.445,-204.109,49.876,-26.845,28.425
-739.756,673.693,-184.104,48.002,-24.709,31.286
-718.241,662.655,-203.734,48.271,-22.984,32.762
-735.958,660.097,-216.395,50.936,-20.369,33.077
-745.34,620.109,-194.913,54.301,-19.098,33.175
-753.596,600.02,-146.128,56.738,-18.801,33.585
-740.741,588.54,-155.082,57.765,-18.541,33.664
-770.709,607.775,-151.472,58.48,-16.18,33.728
-758.297,640.615,-174.115,59.434,-14.402,33.77
-781.566,653.996,-213.423,61.776,-11.689,33.375
-833.327,688.521,-227.103,66.296,-10.733,31.981
-859.266,703.273,-186.063,70.32,-10.902,30.608
-882.099,739.979,-205.915,73.496,-12.225,29.034
-935.074,761.371,-240.411,76.425,-14.133,28.181
-952.656,786.219,-253.484,78.169,-16.959,27.786
-948.992,794.18,-286.808,78.326,-19.041,27.123
-932.518,765.388,-295.731,78.752,-22.206,26.198
-917.188,732.848,-310.548,79.58,-25.583,25.752
-917.119,714.259,-308.199,81.418,-29.559,26.177
-871.808,627.085,-326.62,85.054,-31.372,26.845
-820.229,579.83,-357.136,89.804,-30.851,28.043
-814.509,510.036,-322.884,96.211,-30.08,29.409
-765.512,451.306,-355.087,103.713,-29.617,29.592
-763.942,407.463,-367.833,110.624,-28.001,28.593
-757.063,401.272,-367.013,115.9,-28.604,26.539
-740.431,358.218,-351.303,119.594,-29.555,23.668
-728.011,357.917,-343.212,121.041,-30.729,19.095
-703.35,344.11,-333.836,118.77,-30.541,14.279
-666.794,378.731,-383.986,112.928,-30.075,9.295
-665.721,439.174,-415.981,104.383,-28.184,4.814
-643.121,484.578,-423.527,94.694,-26.525,0.504
-620.731,579.033,-468.552,83.505,-23.971,-2.929
-604.45,605.597,-515.339,70.247,-21.098,-6.141
-593.314,612.739,-557.494,56.553,-16.65,-9.551
-592.647,559.242,-626.575,43.289,-12.366,-12.818
-621.755,541.122,-643.406,29.247,-8.522,-14.943
-657.861,570.524,-665.499,14.796,-6.224,-16.687
-731.03,603.739,-682.621,1.418,-4.997,-18.762
-786.266,645.901,-725.184,-9.957,-6.755,-21.201
-834.426,594.04,-713.4,-19.354,-9.579,-22.851
-884.015,548.275,-708.869,-26.612,-14.826,-22.864
-926.053,515.517,-658.417,-32.357,-20.851,-20.408
-1004.461,509.945,-618.524,-35.847,-28.696,-16.287
-1018.183,527.367,-561.291,-37.344,-37.64,-12.52
-1034.189,554.297,-480.137,-37.853,-47.652,-10.763
-1016.638,590.661,-383.032,-37.825,-57.684,-10.815
-963.261,629.654,-305.052,-37.702,-64.255,-10.387
-964.843,657.995,-216.102,-37.684,-66.299,-8.735
-940.195,670.173,-159.547,-38.232,-67.244,-5.603
-928.973,705.617,-1.887,-37.909,-64.939,-3.516
-917.682,773.595,112.515,-38.506,-61.309,-4.057
-824.054,854.462,129.745,-40.473,-53.949,-4.025
-717.652,885.369,66.967,-45.833,-44.084,-3.335
-598.904,833.161,-55.304,-55.321,-34.825,-2.13
-495.045,695.343,-188.761,-66.003,-26.77,-1.976
-523.425,437.845,-258.705,-76.969,-21.067,-2.314
-608.699,236.859,-277.125,-85.778,-21.657,-5.663
-669.422,60.974,-284.547,-90.051,-25.721,-11.544
-701.725,-8.498,-299.979,-88.706,-31.43,-18.289
-761.952,-69.064,-279.168,-81.967,-34.946,-23.529
-788.523,-40.938,-196.393,-70.226,-40.924,-27.409
-767.361,85.333,-166.233,-49.408,-38.524,-29.533
-768.173,209.62,-210.132,-19.655,-29.599,-28.168
-754.88,266.878,-226.219,3.439,-24.498,-25.587
-749.235,269.931,-273.733,11.265,-22.409,-23.92
-731.856,259.887,-275.143,9.027,-21.072,-24.723
-749.272,295.405,-280.241,6.753,-20.593,-26.645
-792.043,336.742,-271.508,8.36,-19.914,-26.914
-855.71,389.607,-251.32,11.505,-21.48,-25.571
-852.793,405.585,-247.986,14.362,-23.037,-23.961
-853.239,428.036,-252.786,17.1,-24.969,-22.925
-863.41,463.997,-244.232,19.533,-25.63,-22.002
-873.173,478.334,-243.565,20.882,-25.995,-21.059
-868.174,502.244,-242.944,20.532,-25.643,-20.008
-863.629,513.621,-235.429,19.308,-25.725,-18.794
-872.011,490.517,-236.203,18.356,-25.535,-17.127
-871.916,495.389,-225.091,17.347,-25.327,-15.373
-888.107,495.192,-204.813,16.433,-24.65,-13.366
-861.932,479.408,-194.67,16.103,-24.536,-11.727
-854.691,456.499,-175.361,16.118,-23.51,-10.699
-834.472,461.535,-189.36,16.699,-23.172,-10.075
-846.212,455.29,-172.585,17.908,-22.312,-9.689
-816.98,442.987,-169.948,19.339,-21.776,-9.61
-819.821,430.987,-159.168,20.761,-20.275,-9.573
-805.243,417.557,-160.921,22.768,-19.583,-9.482
-804.259,416.273,-148.78,24.427,-18.192,-9.211
-794.59,422.866,-141.302,25.928,-17.175,-9.014
-795.306,442.694,-128.636,26.857,-15.887,-8.981
-813.883,463.008,-157.672,27.283,-15.396,-8.656
-838.044,511.481,-123.204,28.226,-14.891,-8.27
-809.281,530.552,-132.703,29.138,-14.359,-8.113
-842.463,534.523,-134.485,29.27,-13.724,-8.134
-848.214,562.383,-140.452,28.334,-13.784,-8.241
-873.761,567.308,-122.87,26.924,-13.917,-8.106
-884.464,590.585,-131.362,26.326,-14.499,-7.704
-915.822,600.055,-117.067,26.017,-14.442,-7.171
-891.294,613.226,-132.313,26.113,-15.307,-6.29
-904.084,603.716,-127.338,26.1,-14.847,-5.33
-922.97,590.55,-168.459,26.613,-15.372,-4.629
-921.747,558.477,-158.04,27.758,-15.845,-3.737
-896.526,557.129,-148.64,30.275,-16.552,-2.472
-918.748,550.063,-162.456,32.673,-16.495,-0.812
-893.153,568.023,-157.161,34.63,-16.98,0.775
-873.715,564.227,-172.71,36.196,-16.548,2.709
-854.002,595.527,-185.265,37.573,-16.126,4.712
-841.787,582.467,-197.876,37.95,-14.433,6.218
-832.471,596.003,-199.238,37.62,-13.146,6.655
-833.433,575.471,-197.545,37.384,-11.507,7.276
-828.023,582.267,-212.174,37.962,-10.614,8.13
-826.53,562.475,-219.107,39.316,-9.306,9.354
-794.378,550.16,-230.371,41.473,-8.579,10.172
-819.395,534.818,-245.256,43.823,-7.077,11.394
-808.08,530.744,-272.333,45.398,-5.963,12.116
-787.405,519.444,-259.22,46.815,-4.54,12.608
-757.035,537.655,-261.05,47.587,-3.416,13.002
-750.356,539.364,-262.604,47.722,-1.74,13.549
-768.311,541.005,-261.555,48.115,-1.039,14.394
-783.802,497.987,-245.8,49.257,-0.321,15.732
-807.022,530.381,-231.165,51.661,-1.196,16.854
-778.331,500.209,-191.227,54.074,-2.188,17.969
-769.368,500.692,-210.904,56.882,-3.562,19.297
-786.971,481.18,-203.776,59.485,-4.283,20.517
-775.832,484.792,-204.09,60.432,-5.763,21.352
-759.143,475.895,-181.486,58.82,-6.489,22.092
-731.299,518.615,-202.459,54.812,-7.543,23.099
-710.491,522.94,-227.031,48.564,-6.95,24.169
-688.969,494.119,-271.183,43.625,-6.391,25.058
-731.185,470.497,-265.144,41.613,-6.108,25.786
-740.148,401.627,-259.123,41.48,-7.28,25.542
-709.2,353.648,-284.798,42.04,-8.257,24.331
-704.401,318.45,-291.643,43.255,-10.014,23.097
-721.331,334.979,-298.738,44.658,-10.78,23.085
-698.47,364.609,-300.965,45.749,-11.942,23.698
-716.58,382.053,-293.347,46.857,-12.558,24.881
-696.53,392.617,-302.266,47.998,-13.275,25.309
-706.403,382.173,-293.554,48.264,-13.367,25.601
-737.4,438.628,-285.043,47.225,-15.102,25.49
-741.685,430.243,-303.172,44.784,-16.41,24.96
-745.969,442.305,-305.223,42.62,-18.223,23.572
-756.728,456.236,-309.0,40.795,-20.082,22.092
-735.734,481.271,-360.353,37.899,-19.959,20.763
-718.379,486.92,-346.298,33.932,-18.316,19.7
-722.894,479.885,-370.52,28.751,-17.423,18.509
-710.786,498.124,-355.84,22.455,-16.906,17.672
-760.8,484.127,-348.337,16.262,-18.624,16.295
-781.351,488.575,-312.62,12.177,-20.693,14.848
-756.308,503.748,-291.222,11.188,-23.247,13.989
-760.675,448.825,-276.538,11.454,-23.62,13.243
-742.696,438.804,-269.67,12.426,-24.326,11.654
-736.507,427.911,-266.075,13.838,-24.165,10.044
-718.587,428.472,-282.33,14.982,-23.942,8.684
-704.795,417.936,-270.677,17.261,-22.758,7.694
-719.411,432.794,-273.43,20.555,-21.961,7.193
-712.641,456.717,-247.302,24.0,-21.252,7.63
-715.101,488.851,-226.407,26.766,-20.114,7.985
-749.133,539.565,-186.503,29.525,-17.251,7.531
-739.262,637.94,-170.143,30.399,-15.098,5.809
-733.257,682.037,-212.646,29.958,-13.391,5.695
-690.881,744.06,-284.051,31.626,-9.599,7.505
-695.118,795.677,-324.8,35.693,-2.301,10.729
-711.168,821.658,-388.26,41.162,3.516,14.426
-757.416,767.189,-406.716,49.099,8.767,16.963
-823.495,748.055,-407.345,58.254,12.183,18.158
-872.605,709.403,-377.062,64.949,13.938,19.017
-899.385,653.337,-384.986,68.202,10.881,19.966
-925.39,605.887,-399.613,72.333,7.409,20.099
-883.051,634.262,-396.685,78.422,4.94,18.974
-875.747,667.124,-378.331,83.984,4.047,17.582
-862.001,716.522,-370.869,87.627,3.015,16.601
-819.55,725.7,-341.345,88.82,3.706,17.043
-786.348,709.356,-328.312,87.781,4.234,17.816
-761.57,637.028,-325.943,85.103,5.977,18.622
-728.464,577.896,-358.611,82.483,7.461,18.746
-725.194,524.484,-388.507,81.341,10.888,18.136
-719.273,504.115,-422.128,81.349,13.91,17.285
-767.327,521.898,-385.826,81.006,15.698,17.163
-798.76,588.347,-365.549,78.121,15.074,17.321
-814.734,661.631,-410.956,73.639,14.412,17.47
-829.972,727.303,-444.744,67.216,11.978,18.27
-824.589,731.845,-434.791,60.121,8.514,19.853
-809.934,738.473,-474.386,53.524,5.042,21.968
-815.803,667.272,-508.345,48.127,3.46,24.78
-833.741,631.509,-542.866,45.135,1.063,27.524
-855.343,574.594,-557.165,44.167,-1.658,30.987
-865.562,561.487,-619.077,44.363,-6.806,34.571
-892.869,548.526,-630.941,44.039,-12.536,37.18
-928.614,564.746,-573.868,42.078,-20.952,38.511
-986.311,601.684,-418.173,40.111,-29.879,40.34
-975.319,704.768,-318.571,38.391,-38.367,42.523
-934.881,825.329,-275.449,33.895,-41.83,43.564
-860.978,887.337,-264.303,26.43,-41.877,42.376
-777.443,946.634,-225.525,17.338,-37.79,40.45
-684.852,951.205,-245.716,7.919,-30.144,38.126
-624.313,889.754,-184.41,-0.243,-16.798,35.305
-589.999,793.165,-117.3,-9.432,-6.911,31.907
-581.028,639.993,-150.211,-21.706,-1.356,29.267
-462.329,444.826,-301.22,-34.104,1.02,25.098
-444.299,252.373,-356.194,-44.247,4.862,17.436
-434.125,142.653,-414.818,-47.669,6.145,9.053
-489.907,105.049,-460.998,-43.388,8.721,2.146
-577.885,152.002,-473.529,-33.908,9.152,-3.876
-668.907,179.911,-474.973,-24.168,8.221,-8.845
-733.617,225.409,-454.672,-16.61,5.326,-13.19
-749.75,272.22,-418.795,-11.993,4.522,-16.623
-762.389,385.166,-436.423,-9.319,5.453,-18.426
-764.68,442.749,-449.647,-8.383,8.215,-17.38
-776.507,497.282,-473.068,-7.499,10.454,-13.776
-814.984,549.299,-478.886,-7.053,12.576,-9.406
-839.649,543.446,-482.357,-6.538,12.45,-5.865
-847.28,577.145,-463.945,-6.279,11.757,-2.854
-831.594,564.148,-454.724,-5.873,9.549,-0.552
-839.73,568.801,-435.851,-4.919,8.935,1.997
-800.837,538.218,-408.559,-3.282,8.689,5.026
-803.216,524.237,-418.615,-1.137,9.47,8.562
-775.599,494.494,-415.56,1.445,9.746,11.684
-780.091,496.571,-416.961,4.915,10.004,14.551
-787.287,493.316,-387.514,9.28,9.105,16.714
-797.366,521.045,-382.554,13.984,8.347,18.958
-763.804,533.475,-381.666,18.277,7.59,21.09
-752.025,534.088,-374.201,21.669,7.418,22.847
-743.837,561.669,-381.164,23.233,6.732,23.829
-755.762,582.428,-348.701,25.275,7.376,23.752
-725.516,604.55,-353.696,26.925,6.769,23.654
-720.617,638.323,-330.37,27.973,7.019,24.615
-731.681,654.527,-357.004,29.659,7.496,26.323
-753.498,669.966,-343.266,30.993,8.338,28.417
-754.221,695.561,-349.194,31.702,7.83,29.999
-781.172,705.059,-321.772,32.13,7.765,31.131
-722.236,740.832,-354.022,32.413,7.414,32.258
-744.138,722.862,-375.961,32.812,9.422,33.551
-765.914,735.643,-376.631,32.861,9.467,34.684
-769.784,754.522,-366.09,31.081,9.68,36.638
-794.022,778.487,-385.344,30.117,9.074,38.549
-797.064,777.567,-343.245,29.514,9.108,40.506
-741.783,803.935,-360.476,28.59,8.543,42.396
-768.307,796.684,-351.851,27.29,9.411,43.984
-739.719,777.366,-347.924,25.983,9.382,45.336
-744.201,758.671,-337.496,24.037,10.35,46.455
-736.98,744.998,-325.696,22.105,9.977,47.24
-734.229,744.122,-320.356,20.501,9.973,48.101
-718.386,740.318,-291.912,19.711,9.276,48.294
-709.401,735.804,-297.279,18.035,9.728,48.251
-698.996,712.454,-282.769,16.163,9.518,48.124
-702.46,719.545,-267.576,14.631,9.111,48.131
-694.903,709.055,-258.269,12.73,7.57,47.931
-690.657,674.416,-255.996,11.188,7.363,47.615
-693.244,677.151,-249.131,10.302,6.448,46.987
-681.5,654.992,-244.447,9.665,5.907,46.716
-701.888,653.091,-247.803,8.699,4.529,46.623
-706.046,654.432,-227.291,7.406,3.699,46.564
-702.135,691.78,-278.743,6.214,2.322,46.325
-702.565,675.288,-263.813,4.762,2.29,46.364
-710.516,696.943,-295.224,2.799,0.525,45.935
-726.514,682.721,-302.233,0.366,-0.501,46.078
-705.62,685.018,-326.514,-1.258,-2.026,45.956
-716.484,695.693,-317.223,-3.412,-2.49,45.808
-694.174,703.43,-351.047,-5.902,-3.829,45.456
-711.376,693.557,-371.671,-8.403,-4.031,45.235
-703.369,725.788,-399.202,-10.886,-5.1,44.958
-681.116,713.571,-375.051,-13.73,-5.563,44.635
-657.558,746.352,-381.014,-17.203,-6.616,43.957
-662.435,738.153,-397.049,-20.81,-6.542,43.434
-614.192,734.118,-407.538,-23.822,-7.172,42.887
-624.557,707.596,-405.809,-26.653,-6.571,42.678
-601.112,706.386,-401.362,-28.823,-6.93,42.644
-584.066,700.361,-386.254,-30.507,-6.523,42.957
-605.377,680.453,-399.684,-31.438,-6.942,43.038
-591.54,653.571,-394.752,-31.981,-6.311,43.358
-591.307,661.123,-377.237,-31.755,-6.392,43.778
-602.912,662.286,-369.027,-31.481,-5.317,44.327
-563.317,632.258,-383.885,-30.963,-4.945,44.85
-567.502,638.902,-403.474,-29.769,-3.817,45.392
-570.757,642.65,-409.596,-27.977,-3.312,45.673
-590.444,650.839,-419.04,-25.863,-2.461,46.112
-618.31,650.515,-434.294,-23.415,-2.415,46.74
-596.508,676.126,-408.731,-21.066,-1.345,47.866
-604.852,702.194,-426.745,-18.961,-0.635,49.296
-614.667,710.414,-430.184,-18.207,1.383,51.14
-601.691,735.123,-436.101,-18.401,2.665,52.841
-613.959,754.556,-466.949,-19.121,5.036,54.628
-636.877,754.459,-473.08,-19.873,6.534,56.047
-650.563,787.352,-437.868,-20.258,8.228,57.836
-635.218,772.823,-451.6,-20.46,9.257,59.617
-623.552,751.008,-452.592,-19.501,11.718,61.246
-639.488,736.331,-444.469,-17.872,13.637,63.139
-644.434,709.969,-438.053,-16.614,15.992,64.802
-640.399,691.035,-414.228,-14.319,17.446,66.27
-650.243,643.173,-395.935,-10.67,18.774,67.704
-593.899,600.459,-399.516,-6.471,19.751,67.918
-606.222,604.397,-378.689,-2.19,21.78,68.122
-610.718,609.278,-356.43,2.428,22.101,68.535
-583.085,592.196,-337.393,7.856,23.65,68.998
-549.099,569.749,-327.259,13.42,24.766,68.308
-506.108,555.45,-326.681,15.518,27.317,66.298
-505.891,558.42,-383.091,14.848,28.881,63.487
-532.161,586.244,-395.07,13.92,30.283,61.29
-527.839,591.719,-400.663,13.378,29.64,59.857
-528.937,599.47,-393.503,13.416,29.877,58.37
-498.347,602.626,-398.325,14.266,29.528,55.961
-511.221,583.486,-384.504,14.96,30.229,52.989
-487.65,610.599,-398.122,14.562,29.957,49.517
-486.041,612.39,-400.569,13.394,31.122,46.13
-475.4,632.731,-430.13,12.071,31.608,42.859
-481.758,655.371,-440.908,9.254,32.445,39.978
-485.797,658.75,-467.164,6.381,32.024,37.823
-505.596,667.766,-475.562,4.647,32.221,36.05
-485.516,694.113,-489.399,3.996,31.406,34.407
-480.353,714.346,-493.871,3.803,30.986,32.476
-468.051,724.411,-494.224,3.647,29.82,29.943
-486.363,750.261,-490.244,2.608,29.404,27.648
-443.538,789.643,-459.19,1.628,28.298,24.826
-435.266,800.099,-468.928,-0.041,28.253,23.036
-429.348,826.18,-468.446,-2.817,27.807,22.461
-422.459,820.108,-483.896,-5.276,27.63,22.748
-408.147,818.224,-475.673,-6.044,26.3,22.665
-405.565,818.472,-476.637,-4.487,26.302,22.326
-404.958,821.054,-465.102,-2.864,25.011,21.801
-417.21,838.51,-453.402,-3.195,25.474,21.852
-379.766,848.566,-463.799,-4.034,24.996,21.892
-363.338,852.134,-444.43,-3.37,25.577,22.541
-358.796,875.423,-440.938,-2.891,25.041,23.189
-358.109,860.093,-413.957,-3.656,25.444,23.64
-345.407,856.608,-410.874,-4.46,24.545,23.802
-355.119,838.928,-387.968,-5.103,24.718,23.983
-335.571,877.28,-392.999,-4.734,24.466,24.002
-354.074,846.068,-370.688,-4.69,24.832,24.151
-332.276,838.463,-349.655,-4.932,24.474,24.071
-359.155,865.127,-354.472,-4.735,25.293,24.256
-349.099,856.988,-329.079,-4.564,24.57,24.512
-356.583,849.679,-301.203,-5.609,24.567,25.48
-364.547,844.361,-296.648,-6.902,23.373,26.569
-378.492,853.193,-307.294,-7.135,23.384,27.971
-364.987,830.3,-305.626,-5.914,22.794,28.666
-367.001,853.463,-283.256,-4.969,22.624,28.994
-373.928,865.186,-314.873,-5.007,21.227,29.593
-385.269,861.964,-317.508,-4.984,20.432,31.135
-385.598,873.335,-357.54,-5.65,19.062,32.776
-384.148,886.163,-337.663,-6.813,18.97,33.981
-365.753,880.553,-346.113,-7.213,17.831,35.002
-376.733,880.766,-368.086,-8.026,17.602,35.971
-397.896,889.333,-386.899,-8.922,16.237,36.313
-396.837,868.531,-391.583,-9.39,15.02,36.469
-390.513,884.372,-395.096,-10.187,13.654,36.378
-390.276,870.876,-388.052,-11.958,13.499,36.568
-389.037,875.878,-389.118,-13.125,13.031,37.375
-379.294,852.508,-349.897,-13.916,13.951,38.685
-358.302,804.536,-361.068,-14.508,13.747,39.34
-381.739,797.59,-334.815,-15.312,15.031,39.677
-371.809,795.222,-351.365,-15.53,14.316,39.721
-391.113,753.671,-343.286,-14.028,15.332,39.445
-363.539,788.63,-355.432,-12.245,14.535,38.856
-381.698,778.441,-337.128,-11.295,16.247,38.531
-374.118,802.858,-330.958,-10.484,15.91,37.903
-381.873,804.372,-330.616,-9.762,17.094,36.962
-393.84,824.389,-353.519,-9.018,16.546,36.127
-382.153,819.257,-344.03,-8.15,16.67,35.786
-415.5,824.15,-331.247,-7.199,15.809,35.054
-425.906,813.288,-370.277,-6.869,15.617,34.107
-458.699,843.756,-390.249,-6.727,12.869,33.18
-462.985,865.668,-366.985,-7.246,12.385,32.409
-469.373,916.221,-357.207,-7.99,10.242,31.766
-478.721,934.83,-381.867,-8.318,9.635,31.002
-508.028,960.367,-376.11,-9.924,7.041,30.341
-517.803,959.98,-394.205,-13.393,4.644,30.124
-494.643,1006.195,-390.502,-16.556,2.894,30.503
-506.902,999.965,-376.453,-19.622,1.666,31.59
-489.547,1004.188,-372.146,-21.663,-0.789,31.354
-496.742,972.187,-369.757,-22.542,-1.424,30.853
-483.627,983.875,-375.025,-23.423,-4.141,30.255
-480.929,952.248,-360.403,-24.497,-5.124,29.918
-447.802,946.505,-351.144,-24.301,-7.268,29.318
-538.978,934.077,-263.547,-22.413,-8.339,29.268
-875.778,806.402,66.324,-18.534,-21.111,27.688
-951.701,848.45,262.347,-14.82,-37.478,23.413
-565.858,975.156,305.439,-14.048,-39.325,20.955
-223.68,924.115,312.096,-14.594,-30.534,20.72
-235.936,902.153,76.771,-19.285,-25.226,26.155
-428.827,914.653,-185.106,-28.198,-26.122,34.399
-519.628,984.394,-289.164,-30.352,-30.966,35.543
-473.166,1032.075,-252.744,-27.213,-34.214,31.462
-400.105,1056.394,-171.152,-25.972,-37.511,28.881
-283.576,1027.168,-151.924,-30.754,-39.961,29.337
-258.636,1068.05,-286.303,-34.305,-38.986,30.105
-406.495,1105.026,-380.473,-32.122,-37.003,33.732
-436.04,1108.263,-428.195,-30.184,-38.583,34.875
-397.966,1070.446,-424.357,-31.211,-37.748,32.72
-356.495,1056.415,-452.887,-32.174,-36.154,31.834
-359.184,1051.293,-504.477,-32.437,-33.893,34.154
-398.456,1030.265,-538.002,-30.136,-33.044,36.408
-440.94,1024.86,-572.386,-26.297,-31.221,38.323
-421.008,1017.741,-576.053,-21.827,-29.894,38.895
-389.762,1006.568,-586.264,-17.987,-26.269,40.683
-373.295,1044.89,-606.617,-14.834,-23.942,43.805
-411.507,1038.208,-610.473,-11.926,-21.704,47.758
-381.242,1077.345,-574.625,-8.754,-20.801,50.551
-360.752,1087.547,-543.361,-6.815,-18.917,53.038
-330.787,1098.624,-528.297,-6.016,-18.605,55.284
-340.401,1094.074,-500.468,-5.613,-17.731,58.018
-304.167,1083.745,-462.159,-4.534,-17.837,60.915
-297.32,1062.972,-426.713,-4.04,-17.697,64.157
-304.075,1075.304,-411.085,-4.626,-18.942,66.975
-293.727,1079.095,-375.273,-6.154,-19.617,69.982
-289.651,1080.204,-334.638,-7.153,-21.643,72.737
-276.321,1079.077,-268.37,-7.412,-22.561,75.702
-250.59,1088.11,-243.39,-7.23,-25.002,78.63
-266.569,1058.777,-170.568,-7.722,-26.344,81.781
-256.492,1066.084,-171.147,-8.452,-29.206,84.664
-294.195,1075.032,-149.33,-8.427,-30.895,87.858
-265.622,1080.767,-131.818,-8.101,-34.102,90.936
-294.587,1082.44,-98.438,-8.565,-35.924,94.109
-294.051,1107.169,-103.596,-10.102,-38.824,96.88
-291.148,1111.911,-106.742,-12.194,-40.512,99.924
-305.916,1167.951,-97.057,-13.683,-43.479,102.455
-342.573,1202.299,-112.206,-14.431,-45.074,105.061
-341.597,1217.787,-127.567,-14.896,-47.633,107.413
-345.255,1240.713,-108.084,-15.671,-48.481,110.335
-342.187,1289.508,-114.972,-16.969,-50.186,113.33
-372.415,1335.609,-101.729,-19.067,-50.824,116.615
-367.025,1364.482,-95.094,-21.266,-52.865,119.904
-397.249,1391.71,-98.498,-23.763,-53.852,123.256
-419.19,1447.763,-87.526,-26.915,-56.414,126.205
-465.495,1484.959,-77.657,-31.744,-57.702,129.526
-485.43,1557.857,-52.712,-38.12,-60.073,132.249
-508.74,1590.654,-58.631,-44.553,-61.142,135.033
-542.558,1617.647,-63.144,-49.269,-63.512,137.456
-562.588,1622.886,-40.377,-53.397,-64.543,140.158
-558.116,1633.461,-28.625,-57.24,-66.856,142.804
-586.828,1612.407,-27.376,-60.464,-67.862,145.312
-558.071,1641.785,-3.569,-62.554,-69.857,147.405
-530.249,1637.299,9.082,-63.529,-70.454,149.586
-497.245,1654.113,29.102,-64.103,-72.341,151.149
-493.84,1645.632,47.161,-65.023,-72.7,152.874
-449.293,1658.092,32.271,-65.391,-74.427,154.387
-432.309,1658.767,69.544,-66.154,-74.762,156.349
-407.521,1679.492,75.254,-67.583,-75.803,158.037
-368.652,1718.834,106.286,-69.93,-75.252,159.846
-346.839,1727.5,86.13,-72.435,-76.713,161.357
-347.76,1732.987,125.352,-74.321,-76.595,163.34
-307.85,1747.776,122.252,-75.691,-78.007,164.918
-272.402,1720.882,144.298,-77.957,-78.01,166.585
-266.175,1730.79,135.202,-80.937,-80.038,167.918
-237.546,1751.023,106.162,-84.573,-80.821,169.315
-202.836,1741.763,95.755,-88.127,-83.471,169.943
-205.503,1730.371,94.189,-90.96,-84.396,170.512
-167.42,1702.309,64.653,-93.146,-86.993,170.156
-137.917,1659.728,92.198,-95.313,-87.95,169.737
-123.872,1626.107,63.671,-97.29,-90.278,169.024
-126.85,1610.118,61.062,-99.101,-91.481,169.072
-98.487,1581.494,38.657,-100.323,-93.99,168.954
-109.535,1559.704,30.757,-101.486,-95.122,169.139
-75.828,1549.529,22.665,-102.313,-97.686,169.08
-60.726,1547.541,6.984,-103.666,-98.399,168.799
-60.506,1532.538,12.97,-105.267,-100.65,167.897
-22.26,1483.536,33.505,-106.65,-100.888,166.748
-9.222,1484.261,25.418,-107.957,-103.042,165.69
-0.31,1443.73,46.214,-109.011,-103.888,165.215
8.846,1427.12,25.951,-109.891,-106.367,164.145
27.12,1403.297,32.429,-110.756,-107.158,163.45
35.207,1370.478,27.176,-111.57,-109.629,162.542
46.217,1336.073,19.582,-113.051,-110.098,161.725
74.568,1309.078,25.911,-113.705,-111.892,160.863
91.687,1252.721,40.741,-114.375,-112.078,159.971
102.258,1213.229,44.18,-115.331,-113.817,158.974
108.708,1142.459,70.267,-116.333,-113.803,158.476
141.017,1114.589,66.912,-116.922,-115.562,157.787
162.139,1054.173,78.245,-116.938,-115.21,157.436
171.384,1039.316,77.691,-116.877,-116.623,156.483
181.744,977.706,99.392,-117.206,-116.099,156.361
195.428,950.492,97.849,-117.329,-117.79,156.004
240.015,908.407,78.825,-117.834,-117.532,156.443
234.964,880.564,94.79,-119.189,-118.802,156.604
233.546,855.008,127.151,-120.022,-118.413,157.072
305.1,841.367,142.365,-122.498,-120.377,158.273
293.871,776.938,141.248,-125.334,-121.528,160.138
306.817,739.061,120.026,-126.782,-123.015,162.609
281.265,698.39,120.252,-127.105,-122.766,164.823
296.646,690.038,100.658,-126.476,-124.253,166.336
289.66,659.439,107.298,-126.264,-123.779,168.733
297.874,649.839,99.968,-125.28,-125.164,171.361
287.218,612.262,87.086,-124.02,-124.264,174.399
291.051,624.686,52.226,-122.739,-125.198,177.025
259.325,587.154,63.457,-121.564,-123.821,180.687
253.977,589.1,32.966,-118.835,-123.914,184.136
242.216,561.02,16.407,-115.779,-122.394,187.063
216.523,569.613,-20.381,-112.361,-122.979,188.873
152.774,577.239,-41.439,-110.325,-121.915,191.099
149.52,634.774,-58.648,-110.076,-122.668,192.793
91.987,629.018,-80.807,-109.827,-120.969,194.632
71.117,657.464,-123.929,-109.028,-121.306,195.784
65.736,642.95,-121.863,-109.07,-118.515,196.894
38.756,681.668,-128.756,-110.399,-117.952,197.366
7.457,695.015,-122.472,-113.626,-115.623,197.957
5.391,690.583,-131.344,-116.509,-115.716,197.503
-24.885,681.626,-143.604,-117.864,-113.38,196.993
-8.928,646.486,-143.853,-117.331,-113.256,196.088
-22.55,632.244,-129.858,-116.092,-111.298,195.41
-35.387,635.961,-114.495,-114.013,-111.583,194.941
-48.642,630.165,-102.628,-112.226,-109.818,194.834
-20.943,637.853,-84.755,-110.559,-110.151,193.89
-12.082,617.345,-61.315,-109.114,-108.377,193.28
12.448,621.914,-60.208,-107.171,-109.2,192.565
1.704,579.702,-59.072,-105.153,-107.992,191.528
12.463,583.631,-64.396,-101.998,-108.885,188.447
-3.917,544.32,-75.76,-98.573,-107.795,184.39
10.805,554.459,-82.734,-95.251,-108.971,178.883
-1.511,569.067,-79.402,-92.765,-108.162,173.064
17.491,636.011,-92.164,-92.202,-109.616,166.458
-10.37,654.369,-118.946,-94.352,-108.976,161.209
-27.802,672.888,-122.158,-96.682,-110.683,156.355
-40.308,641.152,-139.572,-97.489,-109.939,151.9
-30.599,617.805,-138.687,-95.647,-111.532,147.017
-43.352,601.534,-155.854,-93.361,-111.422,143.35
-36.469,654.226,-181.705,-90.958,-113.856,139.701
-39.063,688.847,-180.664,-88.749,-113.776,136.685
-5.177,771.304,-146.071,-87.533,-116.142,133.284
47.87,753.516,-144.46,-87.638,-115.903,130.141
73.18,763.908,-148.007,-87.94,-118.482,126.116
91.572,716.105,-151.191,-88.61,-118.941,122.566
138.154,715.801,-147.961,-89.058,-121.721,118.212
122.374,684.341,-168.286,-90.097,-122.735,113.975
188.782,663.716,-192.193,-90.837,-126.359,109.508
194.588,620.389,-192.871,-90.698,-126.971,105.74
251.596,582.811,-197.44,-88.732,-130.191,101.422
307.337,531.771,-208.53,-85.158,-130.705,97.806
353.413,514.416,-269.613,-80.985,-133.31,93.509
346.286,484.147,-245.51,-77.423,-133.006,90.041
387.088,493.637,-277.933,-73.719,-135.003,86.354
400.114,467.677,-259.701,-70.891,-133.982,83.693
425.29,485.53,-300.894,-67.796,-136.363,80.779
448.332,435.822,-285.217,-64.936,-135.563,78.253
468.454,460.964,-342.209,-62.267,-137.663,75.201
486.034,449.725,-334.15,-61.134,-136.083,72.772
532.23,449.721,-359.352,-59.114,-138.11,69.97
565.908,429.504,-398.676,-56.481,-137.24,67.086
588.266,440.378,-429.841,-54.072,-139.188,64.14
605.266,401.43,-424.881,-52.264,-137.057,61.519
602.247,384.788,-454.888,-49.886,-137.474,58.317
629.537,359.594,-446.206,-47.609,-136.245,56.931
660.439,341.905,-479.643,-44.654,-137.085,54.293
646.918,306.817,-490.614,-39.968,-135.33,51.88
662.202,315.6,-534.256,-33.872,-136.895,48.852
673.398,283.884,-507.541,-29.086,-134.086,46.422
648.287,326.497,-544.757,-24.771,-133.735,43.539
624.532,263.228,-546.053,-19.977,-130.979,41.773
600.733,296.423,-592.918,-15.173,-130.361,38.965
582.331,289.229,-577.193,-11.33,-126.423,36.828
581.538,317.081,-609.61,-7.839,-126.469,33.853
545.665,298.524,-596.427,-5.424,-122.184,31.209
535.726,287.757,-629.042,-1.665,-122.775,27.863
476.745,242.835,-640.041,2.158,-120.224,25.263
450.708,266.709,-668.743,5.99,-120.164,21.658
424.593,236.196,-659.784,9.354,-116.946,18.789
394.654,251.749,-693.151,13.477,-117.694,15.497
383.369,196.178,-702.442,17.864,-114.665,12.261
385.936,194.278,-745.803,23.726,-115.145,7.847
346.928,167.678,-727.744,28.602,-111.283,3.632
338.537,180.086,-767.278,33.905,-111.655,-1.081
327.069,141.251,-776.384,38.479,-108.31,-4.559
305.948,140.005,-796.172,43.295,-108.973,-8.875
297.432,92.682,-820.593,48.765,-105.494,-12.844
289.004,92.562,-852.253,55.616,-106.698,-16.987
280.931,49.393,-872.121,61.575,-103.45,-20.246
257.586,47.004,-892.919,67.551,-104.896,-23.948
291.598,7.93,-909.114,72.708,-101.635,-27.2
271.585,51.118,-943.17,75.429,-101.708,-31.151
263.058,33.987,-971.396,76.415,-98.08,-33.783
215.573,24.476,-998.982,76.196,-98.547,-38.002
214.473,-25.227,-1025.816,76.85,-96.302,-41.894
204.342,-32.519,-1048.313,79.246,-97.611,-46.609
169.618,-98.907,-1077.981,82.615,-97.01,-50.718
160.721,-101.121,-1132.321,86.275,-100.302,-56.218
134.623,-146.67,-1162.482,88.274,-99.884,-60.461
183.013,-104.52,-1188.793,89.593,-101.91,-65.354
87.571,-139.379,-1213.63,89.581,-98.523,-69.508
60.105,-146.095,-1282.693,92.314,-103.822,-74.542
-1.179,-196.685,-1314.07,94.913,-103.379,-79.749
-22.533,-222.868,-1386.337,98.755,-109.155,-85.852
-40.707,-257.899,-1417.347,101.221,-109.055,-90.125
-60.574,-231.194,-1481.231,103.885,-114.505,-95.475
-83.888,-260.65,-1545.108,106.558,-113.817,-100.257
-91.146,-299.552,-1622.429,110.57,-119.52,-106.173
-164.86,-332.147,-1664.732,113.998,-119.463,-111.465
-149.777,-329.388,-1755.612,117.703,-125.524,-117.654
-179.27,-383.689,-1781.379,120.853,-124.691,-122.935
-199.019,-360.817,-1879.953,125.298,-129.063,-129.42
-234.0,-447.225,-1945.338,130.314,-126.476,-135.378
-238.417,-442.275,-2053.907,136.644,-129.636,-143.155
-316.532,-536.065,-2129.936,142.79,-125.795,-150.194
-362.582,-532.634,-2233.999,149.361,-129.259,-159.362
-427.642,-585.508,-2320.95,155.325,-124.97,-168.314
-471.38,-579.137,-2437.496,161.059,-127.252,-179.252
-579.652,-612.888,-2541.538,165.031,-121.124,-189.505
-645.393,-628.099,-2666.944,169.982,-122.856,-201.233
-761.358,-678.738,-2789.308,173.755,-116.097,-213.343
-887.412,-639.81,-2929.679,177.782,-116.291,-228.427
-1027.617,-680.61,-3072.115,179.968,-108.851,-243.295
-1126.806,-676.774,-3232.215,182.371,-108.428,-261.193
-1278.871,-718.932,-3349.371,185.377,-98.322,-279.722
-1403.026,-697.096,-3532.969,191.225,-96.996,-301.852
-1525.615,-821.368,-3650.496,198.935,-85.017,-324.465
-1743.101,-831.818,-3784.51,209.41,-83.103,-350.443
-1916.463,-943.08,-3879.334,220.752,-70.114,-376.621
-2053.864,-936.106,-4000.562,235.528,-64.014,-406.416
-2187.929,-1020.168,-4022.663,249.731,-45.261,-437.053
-2320.134,-958.245,-4096.156,266.002,-34.804,-471.164
-2536.442,-1020.023,-4087.089,281.802,-11.406,-504.47
-2711.029,-940.686,-4091.467,297.686,1.721,-541.071
-2906.874,-905.558,-3992.567,308.845,30.116,-576.122
-3082.704,-704.334,-3913.934,317.438,47.795,-612.879
-3316.705,-583.51,-3798.758,320.526,79.971,-647.111
-3671.32,-317.115,-3674.937,324.335,98.284,-684.287
-4017.183,-182.166,-3572.917,327.811,127.152,-720.741
-4365.625,162.172,-3360.852,332.826,137.487,-759.754
-4589.11,455.908,-3111.268,331.493,163.071,-794.142
-4842.41,966.108,-2861.969,324.343,173.759,-828.35
-5139.064,1299.867,-2645.804,312.919,200.241,-858.097
-5463.974,1803.443,-2308.071,303.005,205.062,-890.165
-5731.277,2096.41,-1959.831,288.57,224.318,-919.334
-5867.754,2545.214,-1581.317,273.133,219.422,-948.941
-5952.874,2781.784,-1204.927,259.895,230.853,-965.706
-5868.21,3154.742,-825.593,257.964,216.271,-978.087
-5907.521,3244.872,-441.924,258.686,228.717,-982.922
-5959.859,3412.736,-112.073,261.9,201.325,-990.908
-5911.598,3230.596,-45.885,264.904,206.423,-993.512
-5986.606,3306.677,116.277,286.474,185.47,-994.236
-5701.122,3189.413,-86.4,305.257,211.47,-988.082
-5667.678,3544.346,-363.103,298.722,218.293,-993.904
-5541.48,3548.556,-1297.244,258.479,294.773,-1001.0
-6101.857,3967.236,-1451.443,230.417,311.46,-1000.545
-4939.464,3250.523,-3391.64,218.135,407.267,-992.331
-5722.522,2837.671,-4685.824,255.804,438.158,-994.359
-5847.861,1107.33,-5753.439,282.442,421.735,-952.062
-10838.268,-319.223,-1452.784,246.893,236.72,-967.452
-7335.194,-1396.55,-2201.812,100.56,20.384,-979.506
-6819.707,-1379.429,-737.978,120.383,106.114,-903.111
-4351.704,-47.241,-2074.416,237.77,158.895,-822.429
-5360.363,341.63,-871.816,316.235,267.813,-760.693
-5508.511,1110.7,-1343.933,264.07,225.357,-708.628
-5668.585,555.603,-1225.592,182.666,211.634,-665.133
-4842.576,666.256,-1761.335,124.648,155.676,-663.822
-4323.724,335.627,-1799.369,44.665,146.611,-673.065
-3547.648,538.174,-2163.885,-38.415,114.778,-692.289
-3248.394,287.402,-2294.916,-132.135,108.039,-713.045
-2788.293,435.739,-2751.952,-226.149,88.047,-751.109
-2878.765,180.724,-2881.015,-317.426,108.833,-778.079
-2708.124,277.797,-3097.338,-399.69,101.198,-789.202
-2795.269,66.013,-3044.759,-489.12,124.787,-775.746
-2640.943,60.803,-3095.868,-562.078,120.47,-749.497
-2612.529,-194.699,-2974.503,-630.801,148.058,-712.851
-2557.694,-260.524,-2907.208,-679.222,159.866,-677.825
-2730.432,-462.904,-2503.095,-715.652,187.485,-637.925
-2609.356,-544.087,-2493.289,-739.828,191.777,-595.528
-2616.864,-712.53,-2205.289,-754.001,220.217,-549.129
-2690.987,-541.13,-1944.211,-751.973,230.836,-506.101
-2921.842,-464.599,-1693.538,-732.287,259.21,-464.131
-3113.926,-191.734,-1520.314,-706.791,264.765,-433.634
-3291.088,-128.777,-1407.236,-673.704,283.565,-400.148
-3458.037,40.129,-1296.586,-631.718,285.581,-370.039
-3541.854,81.45,-1197.222,-585.393,302.461,-333.678
-3672.719,278.534,-1010.72,-530.337,305.879,-298.738
-3708.903,394.151,-915.287,-475.43,319.248,-264.941
-3720.828,639.569,-788.349,-419.3,324.833,-236.954
-3714.082,779.863,-670.045,-366.774,337.381,-209.488
-3686.076,954.208,-523.233,-316.197,338.946,-183.657
-3629.155,917.09,-308.321,-270.42,347.828,-156.432
-3495.785,936.478,-98.962,-226.144,347.952,-132.654
-3397.45,823.565,161.476,-184.211,355.677,-110.236
-3361.63,849.611,477.104,-137.34,351.704,-91.663
-3313.108,868.556,642.499,-94.26,350.493,-73.073
-3136.656,941.278,766.838,-56.85,343.539,-57.24
-3026.764,855.855,997.271,-24.072,342.7,-42.7
-2856.41,853.705,1120.327,5.6,328.787,-32.751
-2663.115,803.363,1202.417,30.103,321.569,-24.168
-2459.667,850.168,1264.245,51.576,306.12,-18.879
-2328.02,867.583,1352.706,67.083,295.488,-13.654
-2156.269,1020.57,1421.709,76.745,274.9,-13.641
-2003.321,1033.744,1470.364,79.068,262.312,-15.514
-1787.185,1161.901,1542.205,77.435,246.129,-19.615
-1689.5,1219.566,1661.62,71.718,235.604,-22.699
-1563.786,1339.388,1600.138,59.805,212.57,-27.63
-1455.291,1365.539,1540.642,40.324,199.853,-31.417
-1464.434,1479.802,1542.337,21.249,178.234,-36.15
-1404.391,1507.28,1508.569,-0.72,163.413,-39.271
-1369.506,1525.398,1478.02,-24.348,141.828,-41.916
-1321.764,1427.018,1435.593,-46.973,126.274,-42.218
-1239.231,1385.732,1388.771,-66.193,106.119,-42.455
-1139.152,1262.834,1322.626,-83.342,93.658,-40.615
-1084.774,1187.246,1279.456,-95.344,76.211,-38.516
-1075.294,1112.817,1267.798,-105.355,64.773,-34.649
-1041.451,1079.793,1238.526,-112.994,47.677,-31.214
-991.339,1004.155,1183.647,-118.871,37.345,-26.466
-987.819,943.957,1148.377,-121.765,20.979,-22.477
-952.991,886.877,1101.205,-123.456,10.045,-17.528
-912.04,789.929,1053.602,-121.187,-5.921,-13.928
-836.175,644.234,970.477,-116.171,-16.724,-10.827
-722.077,593.071,905.165,-108.464,-31.372,-9.291
-642.647,508.785,813.604,-99.73,-38.705,-6.684
-620.705,528.408,779.397,-89.132,-50.035,-5.663
-606.604,507.718,716.151,-79.243,-56.172,-4.248
-614.102,542.421,635.771,-68.788,-67.23,-3.922
-585.409,525.23,503.146,-59.441,-73.068,-2.932
-545.931,527.818,296.983,-50.422,-80.342,-3.866
-564.531,552.527,188.571,-42.481,-82.319,-3.907
-591.495,633.036,59.613,-32.398,-90.079,-3.634
-601.577,668.89,-122.153,-25.003,-93.754,-2.998
-603.99,758.941,-235.085,-20.539,-102.818,-3.399
-623.47,790.911,-317.758,-16.279,-108.103,-2.096
-632.557,859.676,-406.35,-13.232,-117.811,-1.297
-619.054,856.913,-490.354,-13.401,-122.244,-0.779
-627.021,924.379,-593.688,-13.364,-129.673,-1.249
-651.571,918.18,-633.051,-13.498,-134.189,-0.514
-671.407,983.705,-653.794,-15.03,-143.956,-1.041
-694.796,981.649,-680.917,-19.319,-149.455,-1.763
-696.875,991.553,-699.638,-23.653,-159.503,-2.857
-686.46,907.731,-695.348,-26.843,-164.978,-3.226
-666.155,843.751,-656.604,-27.928,-174.035,-3.621
-630.886,747.348,-649.495,-28.496,-178.221,-3.551
-642.667,667.918,-614.715,-26.113,-184.894,-4.293
-642.703,559.579,-595.289,-20.565,-187.085,-5.222
-654.107,503.215,-561.836,-10.908,-192.76,-7.711
-668.712,417.64,-571.231,0.726,-194.979,-8.999
-693.84,373.322,-539.197,14.478,-200.701,-10.058
-750.106,307.425,-516.914,29.652,-203.049,-9.23
-759.558,328.084,-511.101,46.22,-207.676,-8.994
-789.577,296.879,-525.304,63.4,-208.023,-7.61
-821.239,313.574,-542.318,81.684,-211.983,-4.94
-822.6,301.341,-597.558,97.869,-211.989,-0.928
-851.67,346.524,-661.52,112.957,-214.634,2.819
-899.955,396.128,-679.274,127.22,-214.395,7.047
-913.78,461.753,-689.464,139.566,-217.526,8.99
-931.164,491.938,-721.907,148.283,-217.531,11.519
-974.964,518.82,-739.499,156.313,-222.12,14.069
-978.207,484.608,-813.327,162.763,-223.092,17.518
-984.811,506.933,-855.798,165.844,-225.903,19.289
-995.539,517.822,-915.537,165.786,-225.637,20.874
-1038.012,535.968,-952.454,165.348,-229.942,22.437
-1054.215,573.12,-969.504,163.071,-231.011,23.675
-1070.694,583.243,-985.752,159.38,-234.831,22.914
-1081.193,584.143,-984.536,154.093,-234.733,21.161
-1102.021,599.691,-1009.323,149.248,-237.48,19.248
-1091.73,579.886,-1007.269,144.049,-236.385,19.558
-1090.344,574.811,-1011.04,138.89,-237.591,20.262
-1118.996,521.108,-1004.876,134.45,-235.878,21.428
-1111.94,532.704,-993.12,130.394,-235.979,21.853
-1142.419,528.747,-939.085,125.396,-233.437,22.9
-1137.622,527.192,-910.668,120.635,-234.289,24.202
-1115.869,470.626,-914.154,116.886,-231.35,26.239
-1153.673,458.103,-883.546,113.458,-230.693,27.317
-1122.568,409.285,-875.113,109.148,-228.414,29.013
-1155.994,369.712,-849.828,105.321,-228.951,29.465
-1128.044,319.072,-846.635,102.321,-226.5,29.637
-1132.354,288.839,-860.232,100.285,-226.122,29.114
-1146.337,246.572,-878.676,98.561,-222.471,29.255
-1140.666,254.12,-898.219,98.257,-221.622,29.375
-1138.962,231.178,-930.197,98.897,-218.759,30.864
-1134.244,235.33,-964.204,101.044,-217.907,31.755
-1121.23,217.916,-1008.693,103.066,-214.17,33.751
-1088.076,214.082,-1055.436,103.925,-212.376,36.188
-1037.65,217.958,-1098.614,104.362,-207.161,39.936
-1025.916,234.498,-1107.874,104.413,-204.537,43.927
-992.65,261.099,-1117.891,104.314,-199.376,47.596
-967.439,274.4,-1078.315,104.977,-197.224,50.556
-953.179,318.487,-1086.128,104.38,-192.491,52.424
-929.089,334.462,-1098.895,102.169,-190.355,52.694
-909.196,352.926,-1107.814,97.698,-185.778,52.438
-921.323,368.01,-1084.98,91.626,-185.147,51.647
-952.453,385.168,-1089.207,84.263,-182.331,51.375
-968.271,439.816,-1121.562,76.717,-182.36,50.231
-989.074,456.794,-1129.083,67.837,-180.348,48.379
-997.702,466.702,-1105.611,58.343,-181.315,45.815
-979.454,467.0,-1141.273,49.37,-179.238,44.557
-963.232,468.081,-1115.923,41.871,-179.376,43.389
-970.927,425.901,-1090.579,35.282,-176.796,42.605
-929.95,390.076,-1074.055,30.629,-175.894,41.89
-891.126,324.714,-1099.697,27.728,-171.721,41.771
-832.726,283.578,-1097.362,26.371,-169.564,41.391
-775.547,251.704,-1087.85,25.398,-164.774,42.201
-707.223,253.133,-1038.526,26.055,-162.434,42.897
-677.647,243.823,-1010.61,28.019,-158.004,44.106
-663.297,253.396,-975.15,30.944,-155.855,44.373
-618.811,242.399,-947.47,33.88,-150.774,44.656
-617.301,246.262,-963.023,38.03,-148.287,44.999
-651.577,272.857,-965.331,41.345,-143.921,46.109
-696.266,341.498,-992.855,42.896,-142.573,46.614
-717.214,366.226,-1011.036,42.736,-139.714,47.105
-758.151,422.704,-1040.529,41.95,-139.314,46.702
-795.148,437.491,-1066.021,40.637,-136.821,46.038
-818.645,499.182,-1104.445,39.736,-137.032,45.088
-787.0,505.072,-1144.131,38.616,-135.196,44.481
-762.268,513.77,-1152.314,37.131,-135.36,43.412
-729.064,493.845,-1143.719,34.717,-132.406,43.019
-683.083,470.289,-1146.354,32.512,-130.635,42.22
-641.049,441.336,-1123.181,30.912,-125.864,42.128
-599.784,433.643,-1086.073,31.029,-123.153,41.978
-561.388,399.719,-1066.037,31.219,-118.335,41.648
-536.981,426.965,-1015.448,31.533,-115.467,40.649
-529.803,390.005,-996.39,31.745,-110.554,39.547
-551.809,397.813,-942.193,32.075,-108.067,37.757
-571.559,406.916,-935.809,31.665,-104.637,35.897
-615.783,457.066,-892.987,30.28,-103.787,33.317
-660.508,464.812,-871.378,27.99,-102.083,30.827
-711.315,505.427,-860.948,25.949,-103.119,27.968
-716.375,514.279,-846.777,23.504,-102.465,25.701
-727.828,570.768,-829.98,21.254,-103.99,23.645
-729.542,573.519,-827.007,19.51,-103.143,22.55
-714.806,566.504,-838.378,18.453,-104.079,21.888
-670.672,549.748,-840.039,17.632,-102.818,21.507
-662.052,535.77,-834.407,17.251,-103.17,21.014
-619.898,532.773,-841.516,17.051,-100.524,21.16
-605.188,511.65,-859.481,17.815,-99.284,20.709
-561.313,484.561,-867.085,18.647,-95.803,20.239
-556.132,477.088,-864.886,20.411,-94.132,19.66
-525.732,452.639,-869.547,22.958,-89.969,19.429
-494.898,448.764,-856.656,26.192,-87.446,18.621
-451.181,459.803,-856.447,28.933,-83.562,18.097
-436.992,453.898,-824.845,31.25,-81.765,17.282
-416.996,467.598,-823.068,32.497,-78.424,16.328
-420.236,496.39,-793.716,32.903,-77.493,15.116
-434.041,522.73,-789.453,31.946,-74.66,13.684
-458.64,570.52,-780.379,29.722,-74.323,11.636
-472.419,586.102,-808.356,26.174,-72.966,9.345
-521.066,630.322,-814.289,22.469,-74.171,6.482
-544.884,649.464,-818.596,18.186,-74.187,3.915
-570.478,670.342,-784.903,13.829,-76.669,0.806
-601.98,644.288,-795.324,8.968,-77.863,-2.207
-611.787,644.502,-802.13,4.365,-80.705,-5.337
-576.518,628.617,-812.308,0.282,-80.909,-7.531
-569.629,604.405,-835.943,-3.092,-82.177,-9.721
-490.765,587.517,-844.293,-6.879,-81.292,-11.21
-517.883,556.91,-822.632,-9.187,-81.718,-12.176
-477.64,517.175,-850.327,-9.785,-79.519,-12.456
-494.463,488.445,-827.806,-8.558,-78.86,-13.077
-444.676,463.421,-826.512,-6.552,-75.95,-13.984
-433.926,453.248,-810.082,-4.344,-74.627,-15.606
-416.84,448.112,-820.117,-2.164,-71.306,-17.15
-418.591,455.257,-782.442,0.036,-69.45,-18.529
-411.018,448.281,-761.432,2.174,-65.594,-19.584
-464.977,478.181,-706.984,4.44,-64.229,-20.641
-457.349,456.036,-704.909,6.194,-61.22,-21.575
-504.607,483.548,-673.742,7.773,-60.42,-23.374
-530.092,505.31,-654.032,8.377,-58.516,-25.507
-582.73,529.895,-644.048,8.867,-58.901,-28.058
-596.84,527.249,-628.159,8.816,-57.736,-30.112
-639.051,549.387,-610.207,8.96,-58.729,-32.108
-623.029,536.109,-612.111,8.747,-58.238,-33.538
-667.742,533.689,-591.15,8.899,-59.12,-34.878
-670.998,528.682,-604.233,9.011,-58.426,-35.587
-659.339,535.138,-615.74,9.456,-59.547,-36.156
-663.617,540.353,-591.627,10.303,-59.172,-36.004
-669.213,559.475,-609.099,11.819,-60.463,-35.997
-641.675,555.064,-635.747,13.233,-59.707,-35.372
-632.014,557.028,-627.404,14.722,-60.598,-35.009
-620.322,578.667,-633.14,15.917,-59.662,-34.244
-639.43,557.171,-628.225,16.951,-60.346,-33.744
-633.441,531.4,-664.523,17.949,-59.161,-32.814
-629.28,528.15,-640.647,19.465,-59.182,-32.094
-638.126,552.976,-652.735,20.975,-57.419,-31.218
-613.405,552.429,-646.415,22.382,-57.18,-30.36
-586.09,548.707,-619.874,22.926,-55.241,-29.573
-597.662,551.627,-596.905,23.227,-54.95,-29.396
-580.419,520.671,-619.792,23.346,-52.806,-29.068
-585.888,564.076,-583.135,23.522,-52.295,-29.264
-583.513,535.535,-567.078,22.836,-50.374,-29.518
-572.217,538.112,-547.92,21.753,-50.173,-30.49
-597.089,551.213,-570.274,19.701,-48.522,-31.532
-589.086,545.702,-538.034,17.312,-48.992,-33.453
-602.398,526.973,-527.598,13.959,-48.339,-35.66
-609.118,534.912,-506.917,9.945,-49.21,-38.406
-633.324,561.135,-490.266,6.04,-48.313,-40.795
-646.457,535.89,-499.385,3.158,-49.053,-42.701
-641.436,546.411,-499.867,0.589,-48.149,-43.6
-638.797,559.297,-481.268,-1.401,-48.812,-44.159
-639.156,544.676,-492.456,-3.112,-48.105,-44.044
-644.719,528.238,-463.1,-4.038,-48.86,-43.866
-637.081,481.376,-465.17,-4.483,-47.88,-43.32
-648.885,485.543,-456.242,-4.478,-48.484,-42.75
-651.713,474.704,-436.434,-4.32,-47.415,-41.744
-654.192,465.534,-458.467,-3.328,-47.705,-41.082
-649.449,488.457,-471.277,-1.86,-46.388,-40.234
-646.758,492.363,-483.789,-0.169,-46.454,-39.499
-680.358,477.181,-452.956,0.759,-45.371,-38.641
-661.126,479.231,-453.128,1.561,-45.845,-38.126
-663.962,491.744,-472.004,2.102,-44.719,-37.525
-663.84,484.788,-443.416,2.657,-45.053,-37.188
-638.721,506.443,-465.257,2.738,-43.857,-36.706
-652.513,511.168,-456.433,2.663,-43.718,-36.649
-651.149,527.811,-457.629,2.368,-42.031,-36.365
-641.374,535.602,-440.924,1.577,-41.952,-36.215
-663.328,542.455,-457.555,0.175,-40.507,-36.088
-671.829,530.934,-432.422,-1.132,-41.032,-36.323
-650.018,532.301,-453.907,-2.0,-39.709,-36.056
-690.334,530.802,-405.696,-2.144,-40.038,-35.594
-689.335,542.511,-419.77,-1.738,-39.172,-34.359
-686.599,516.746,-391.954,-0.693,-39.646,-33.011
-701.805,498.938,-398.355,0.587,-38.538,-31.339
-696.022,499.03,-381.892,2.214,-38.633,-29.955
-692.114,495.564,-407.914,3.722,-37.237,-28.483
-705.583,487.912,-392.394,5.955,-37.645,-27.507
-729.772,505.192,-392.855,7.928,-36.619,-26.054
-759.171,526.94,-379.092,9.851,-37.184,-24.631
-731.46,510.499,-378.289,11.223,-36.696,-23.267
-752.62,534.013,-384.199,12.55,-37.14,-22.184
-724.394,520.49,-381.721,13.751,-36.372,-20.807
-745.329,527.074,-377.489,14.791,-36.765,-19.556
-727.486,510.669,-384.959,16.388,-35.825,-17.957
-717.696,525.438,-380.912,18.356,-36.183,-16.699
-711.628,522.326,-403.522,19.647,-34.821,-15.66
-700.93,517.523,-409.73,20.586,-35.118,-15.231
-684.935,519.939,-426.506,20.92,-34.268,-14.69
-676.907,536.586,-420.678,20.974,-35.05,-14.623
-696.951,537.186,-447.843,20.43,-34.091,-14.441
-727.199,549.32,-445.701,19.863,-34.617,-14.672
-705.178,575.934,-458.607,18.834,-33.71,-14.752
-710.966,593.549,-461.014,17.747,-34.011,-14.835
-703.879,598.508,-473.459,16.571,-32.81,-14.749
-705.86,581.107,-465.561,15.719,-32.995,-14.703
-734.95,589.813,-470.248,14.496,-32.023,-14.443
-719.462,610.041,-463.923,13.529,-32.462,-14.16
-727.579,590.119,-464.574,12.39,-31.366,-13.638
-727.061,592.438,-460.058,11.55,-31.834,-13.099
-744.457,594.912,-451.26,11.028,-30.956,-12.296
-757.989,616.872,-424.832,10.79,-32.027,-11.608
-774.098,621.981,-432.389,9.88,-31.824,-10.703
-793.935,648.219,-423.978,8.944,-32.985,-9.922
-782.253,650.782,-423.885,7.962,-32.865,-8.964
-807.41,646.316,-395.806,7.302,-33.93,-8.073
-785.695,652.95,-409.021,6.381,-33.569,-6.999
-785.095,637.151,-388.27,5.245,-34.23,-6.228
-788.066,637.417,-386.805,3.542,-33.848,-5.187
-753.052,636.283,-392.865,2.044,-34.777,-4.249
-763.943,623.238,-381.176,0.764,-33.981,-3.202
-760.966,600.777,-377.503,0.415,-34.471,-2.358
-738.336,582.493,-383.439,0.613,-33.319,-1.285
-748.685,549.54,-376.8,1.322,-33.369,-0.429
-719.411,530.736,-371.365,2.078,-31.978,0.638
-694.539,512.716,-376.35,3.543,-31.747,1.333
-707.455,496.227,-376.012,5.268,-30.084,1.88
-714.923,487.152,-365.874,7.639,-29.454,1.957
-701.276,459.561,-400.828,10.013,-27.475,2.101
-702.966,458.609,-382.578,12.588,-26.769,2.12
-685.785,452.291,-376.051,14.821,-24.365,2.57
-693.432,470.252,-377.66,17.579,-23.496,3.028
-686.73,494.535,-379.225,20.022,-21.052,3.588
-681.675,503.091,-370.871,21.88,-19.923,3.811
-660.065,521.423,-372.122,23.018,-17.686,4.138
-675.355,541.865,-331.789,23.666,-16.6,4.339
-679.164,561.083,-352.639,23.79,-14.191,4.917
-678.0,575.329,-336.021,23.836,-13.477,5.279
-657.6,588.351,-339.488,23.689,-11.421,6.226
-684.637,554.966,-343.079,23.947,-10.963,7.03
-661.408,537.685,-328.277,24.108,-9.237,8.048
-684.282,559.597,-282.139,24.805,-8.96,8.987
-676.019,534.99,-300.4,25.565,-7.531,10.013
-690.986,555.935,-276.795,26.424,-7.291,10.749
-670.414,536.39,-300.461,26.894,-5.952,11.577
-696.603,558.476,-319.627,26.834,-5.913,11.805
-686.64,541.707,-322.153,25.875,-4.683,11.612
-715.26,561.256,-321.733,24.517,-5.167,10.895
-747.217,587.188,-322.601,22.826,-4.931,10.313
-755.571,616.638,-315.582,21.152,-6.26,9.676
-743.197,614.466,-320.82,18.753,-6.461,9.128
-757.544,619.134,-317.23,15.869,-7.743,8.119
-751.368,616.61,-325.435,12.537,-7.488,7.052
-767.847,605.507,-321.039,9.345,-8.481,5.991
-753.753,581.072,-347.796,6.664,-8.243,5.333
-769.366,593.251,-329.631,4.439,-9.207,4.445
-763.363,581.755,-337.719,2.467,-8.857,3.481
-781.657,606.505,-338.094,1.057,-9.815,2.239
-776.68,606.215,-358.316,-0.538,-9.406,1.271
-801.656,603.649,-329.49,-2.087,-10.367,0.375
-801.929,618.533,-356.422,-3.624,-10.054,-0.042
-812.497,609.703,-328.493,-4.796,-10.806,-0.366
-823.943,598.669,-314.887,-6.048,-10.251,-0.384
-831.694,603.747,-324.781,-6.985,-10.991,-0.417
-824.964,593.654,-327.032,-7.653,-10.121,-0.089
-839.749,577.174,-313.239,-7.936,-10.518,0.25
-834.801,574.8,-307.637,-8.374,-10.079,0.44
-826.321,600.131,-309.286,-8.22,-10.651,0.485
-821.313,610.623,-306.917,-8.339,-9.548,0.992
-812.197,591.334,-293.654,-8.341,-9.837,1.489
-789.661,617.885,-295.46,-8.365,-8.924,2.432
-799.38,621.939,-283.963,-8.139,-8.784,3.106
-762.748,621.72,-294.118,-8.031,-7.054,3.614
-782.233,598.255,-281.395,-7.757,-6.364,3.905
-759.825,595.601,-277.695,-7.435,-4.613,4.344
-778.197,587.81,-258.819,-6.393,-4.205,4.551
-780.913,575.537,-251.412,-5.216,-2.734,4.956
-802.764,553.274,-238.868,-3.104,-2.742,5.067
-793.37,561.567,-249.029,-0.633,-1.709,5.178
-810.456,567.131,-229.093,1.477,-1.721,5.319
-789.531,552.591,-215.513,3.439,-0.756,5.63
-814.677,571.232,-211.575,6.201,-0.79,5.787
-803.616,588.004,-220.732,9.142,0.522,6.105
-846.214,614.466,-228.88,11.566,0.436,6.494
-835.671,586.419,-221.01,12.936,1.009,7.242
-877.289,614.932,-221.787,14.291,0.287,7.754
-868.572,620.686,-229.912,15.072,0.598,8.306
-860.858,657.826,-202.435,15.447,-0.19,8.19
-853.341,663.961,-221.834,15.095,0.379,8.483
-875.249,667.489,-216.264,15.03,-0.212,8.75
-868.557,671.942,-246.624,14.913,0.796,8.959
-856.301,646.495,-233.004,14.277,0.526,8.477
-858.345,635.553,-251.928,13.216,1.376,7.984
-851.863,619.547,-247.124,12.784,0.844,7.179
-850.972,616.32,-238.622,13.633,1.776,6.635
-894.796,614.534,-245.81,15.618,1.146,6.114
-888.108,628.549,-253.273,17.493,1.25,6.232
-889.957,645.225,-250.949,19.05,-0.018,6.278
-890.684,640.679,-253.117,20.11,0.203,6.834
-912.857,676.197,-254.022,21.147,-0.35,7.417
-874.444,652.373,-241.201,21.67,0.672,7.986
-851.627,702.503,-235.983,22.373,1.05,8.279
-849.185,687.476,-243.743,22.912,2.432,9.199
-856.401,726.411,-206.783,23.662,2.157,10.417
-840.508,744.289,-220.111,24.006,2.805,12.32
-824.827,739.793,-220.248,23.717,3.123,14.148
-748.658,757.584,-227.783,21.675,6.945,15.046
-787.414,730.921,-134.41,18.649,9.31,14.138
-804.62,732.161,-106.359,18.415,9.121,13.797
-828.601,723.372,-90.377,22.064,6.268,15.802
-809.716,734.868,-121.962,26.34,3.73,19.989
-831.268,705.897,-81.86,29.976,0.993,24.262
-785.664,669.35,-60.364,32.525,1.088,27.29
-789.721,672.721,-52.357,34.531,-0.241,29.182
-740.325,659.246,-71.988,36.133,1.029,30.524
-754.558,647.964,-56.508,37.735,0.413,31.414
-685.392,641.695,-70.374,37.801,0.772,31.935
-687.322,654.544,-42.046,36.533,0.686,31.534
-678.669,692.153,-18.153,35.123,0.739,30.612
-693.223,709.322,-4.817,34.419,0.169,29.293
-656.274,742.373,-21.104,33.25,1.126,28.158
-667.192,734.964,-5.061,31.638,0.816,27.341
-672.833,739.346,19.291,30.039,1.381,27.193
-670.056,781.908,6.256,27.588,1.368,27.044
-616.288,773.424,-78.709,22.889,4.329,25.752
-654.437,769.646,-73.938,19.733,4.722,23.623
-658.565,769.552,-18.452,19.157,2.296,22.969
-664.175,747.513,77.873,18.389,-0.225,21.979
-649.644,728.037,100.169,18.29,-2.297,20.492
-649.178,744.776,65.333,18.905,-2.678,18.229
-648.322,755.56,43.409,21.884,-1.076,16.158
-611.48,780.173,15.609,26.284,0.636,14.732
-598.648,804.682,-37.375,29.366,4.607,14.229
-653.627,817.663,-47.613,33.261,6.612,13.838
-658.381,797.241,-85.649,37.254,8.831,12.788
-664.836,790.968,-77.646,40.62,8.53,11.407
-652.091,746.098,-117.706,43.915,9.224,10.766
-668.353,734.938,-153.894,48.633,9.783,9.307
-682.026,735.185,-158.538,54.809,11.549,7.484
-683.366,729.396,-176.508,59.742,10.547,5.857
-688.824,735.888,-196.59,60.244,9.804,4.567
-687.504,751.63,-199.307,57.309,7.758,3.377
-654.977,769.327,-226.882,52.107,6.603,2.633
-664.35,810.253,-223.45,46.264,4.291,2.51
-656.362,831.254,-265.778,40.308,3.961,2.88
-659.497,838.876,-259.527,34.275,3.25,3.211
-670.073,829.536,-307.765,26.981,3.79,3.221
-716.844,849.317,-293.082,19.222,2.729,2.616
-756.566,853.246,-293.216,12.891,1.724,2.687
-781.756,849.703,-267.407,7.579,-0.568,3.555
-763.002,809.526,-306.343,3.02,-1.482,5.691
-766.211,799.796,-343.521,-1.934,-3.178,8.786
-765.545,763.521,-358.595,-6.971,-5.068,12.772
-798.116,709.091,-297.216,-8.095,-8.563,16.076
-839.206,701.433,-284.056,-5.17,-10.698,18.59
-854.667,716.57,-241.908,-1.024,-13.896,20.617
-874.489,740.439,-247.9,2.222,-16.49,23.049
-913.494,772.088,-208.946,4.557,-21.534,26.263
-898.889,826.654,-244.155,6.114,-26.093,30.046
-887.816,918.212,-216.949,6.032,-30.624,33.295
-870.632,988.25,-202.965,3.036,-33.565,36.449
-876.159,1030.473,-137.513,-1.01,-35.614,39.285
-798.344,1065.881,-156.516,-5.08,-32.491,40.477
-802.747,1052.488,-68.579,-9.629,-26.112,38.732
-741.249,925.561,-79.663,-17.025,-20.322,34.456
-699.527,809.554,-150.216,-29.695,-15.847,28.526
-640.431,680.515,-203.166,-44.845,-13.351,23.303
-634.456,535.694,-231.034,-56.363,-14.371,18.183
-585.992,404.909,-275.787,-59.234,-13.492,13.665
-577.371,326.161,-279.089,-54.557,-12.62,9.609
-556.303,246.967,-262.054,-46.349,-10.633,5.876
-573.515,210.607,-256.127,-37.497,-9.758,1.63
-562.477,232.406,-256.147,-29.514,-7.178,-3.056
-588.801,265.764,-250.019,-22.525,-5.766,-7.795
-598.769,317.664,-242.383,-15.89,-3.399,-11.187
-620.956,413.808,-231.119,-9.714,-2.136,-12.524
-642.737,532.505,-239.29,-5.877,-0.028,-11.379
-702.525,593.922,-216.603,-4.144,0.423,-8.885
-688.849,637.114,-223.191,-4.155,1.487,-6.064
-717.207,676.641,-214.165,-4.263,1.068,-3.726
-725.822,660.895,-220.163,-4.39,1.758,-1.408
-766.596,686.77,-220.699,-3.605,0.917,0.972
-763.114,632.683,-234.074,-2.209,0.993,3.99
-792.36,638.702,-240.715,0.251,0.027,7.172
-760.035,638.903,-241.838,3.331,0.559,10.393
-781.513,627.127,-249.451,7.243,-0.185,13.289
-797.399,651.368,-253.396,11.271,0.334,15.897
-822.263,651.804,-238.732,14.877,-0.269,18.052
-788.285,642.169,-253.697,16.984,0.098,19.776
-803.471,688.751,-254.338,18.822,-0.289,21.075
-771.076,719.47,-285.187,20.709,0.737,22.389
-761.371,720.321,-291.903,22.53,0.902,23.87
-732.947,711.79,-300.099,23.449,2.445,25.627
-726.782,732.749,-279.45,23.802,2.945,27.52
-697.608,722.316,-295.986,23.982,4.578,29.346
-688.287,712.669,-262.228,24.549,5.357,30.911
-654.407,716.566,-294.904,25.453,7.48,32.74
-663.86,688.386,-273.003,26.906,8.681,34.525
-633.432,709.02,-269.266,28.259,10.445,36.245
-661.871,685.814,-258.85,29.958,11.053,37.516
-656.192,688.906,-254.719,31.558,12.292,38.546
-679.192,676.298,-238.875,33.144,12.263,39.343
-640.12,695.572,-239.096,34.348,13.295,39.943
-669.847,700.775,-243.678,35.381,13.527,40.562
-652.552,721.775,-246.357,35.842,14.685,41.341
-653.376,708.336,-234.098,36.26,14.425,42.186
-656.545,733.84,-257.233,36.253,15.283,43.037
-675.53,726.32,-226.671,36.229,14.872,43.578
-662.876,735.42,-250.879,36.006,15.275,44.134
-701.604,732.591,-247.434,35.704,14.394,44.555
-688.905,743.346,-248.306,34.756,14.488,44.959
-707.349,738.391,-246.751,33.501,13.179,45.111
-700.759,755.224,-279.885,31.981,12.975,45.314
-690.471,737.008,-258.389,30.958,11.614,45.601
-680.002,749.303,-278.217,29.638,11.175,45.969
-678.557,740.492,-263.585,27.574,9.708,45.921
-657.751,726.826,-289.701,25.28,9.474,45.643
-671.792,723.446,-264.507,23.329,8.359,44.941
-657.271,707.379,-278.138,21.224,8.232,44.037
-675.923,708.753,-278.488,18.823,6.97,42.835
-663.012,702.774,-292.853,16.16,6.695,41.634
-661.629,708.437,-278.822,13.745,5.083,40.261
-645.718,694.162,-292.542,11.344,4.425,38.912
-662.652,724.254,-289.285,8.714,2.954,37.364
-647.346,705.301,-311.667,5.492,2.799,35.577
-639.599,705.379,-305.532,2.683,1.789,33.772
-607.378,685.658,-306.789,0.541,1.909,32.618
-615.523,683.65,-288.04,-0.911,1.042,31.688
-588.729,671.211,-328.863,-2.037,1.475,31.059
-600.888,690.027,-310.414,-3.178,0.863,30.378
-575.561,650.925,-321.256,-3.938,1.35,29.806
-586.821,666.744,-302.886,-3.448,0.801,29.07
-562.7,677.779,-320.033,-3.53,1.393,28.748
-577.148,680.499,-307.775,-3.877,0.434,28.43
-548.8,699.397,-342.643,-4.581,0.608,28.084
-576.115,712.244,-321.535,-4.544,-0.007,27.426
-583.673,724.719,-359.167,-4.669,0.3,26.962
-584.124,739.933,-339.06,-5.116,-0.686,26.556
-584.393,758.126,-361.61,-5.885,-0.508,26.787
-607.925,789.12,-366.891,-7.045,-1.494,27.055
-616.863,804.912,-374.431,-9.319,-1.254,27.431
-608.108,800.361,-373.241,-11.187,-2.106,27.918
-625.554,819.66,-399.133,-13.258,-1.148,28.771
-614.166,819.186,-391.727,-14.998,-1.294,30.055
-618.237,808.374,-403.678,-16.544,-0.133,31.364
-617.879,806.725,-396.557,-17.141,0.387,32.745
-612.99,800.429,-387.807,-16.914,2.021,34.223
-636.19,774.675,-388.657,-16.014,2.579,35.66
-632.58,772.416,-407.002,-14.623,4.307,37.368
-643.263,745.602,-397.826,-12.907,4.729,39.072
-607.586,761.85,-393.744,-10.412,6.237,40.873
-637.753,747.32,-399.419,-8.228,7.08,42.518
-598.861,760.0,-393.323,-6.969,9.311,44.199
-637.361,761.907,-396.438,-5.429,10.552,46.035
-623.521,752.786,-410.618,-3.073,13.44,48.262
-615.382,755.108,-395.981,0.146,15.426,50.241
-623.986,704.367,-392.128,3.009,18.679,52.194
-649.126,700.569,-378.364,5.709,20.378,53.921
-598.73,716.508,-405.954,7.471,22.487,55.115
-613.136,697.553,-414.642,8.585,24.023,55.95
-615.209,695.941,-399.882,9.688,26.835,57.152
-617.306,705.051,-404.599,11.289,28.092,58.05
-584.744,683.541,-439.448,12.802,30.751,58.162
-578.517,688.352,-417.169,13.872,31.983,57.646
-566.262,688.41,-449.694,13.88,33.663,57.025
-564.041,667.642,-437.356,13.705,34.17,56.606
-561.932,681.315,-475.214,13.685,35.585,56.647
-548.068,662.247,-446.724,14.269,35.895,56.383
-529.917,680.262,-478.939,14.951,37.592,56.032
-541.476,694.766,-468.171,15.579,37.877,55.765
-521.57,681.944,-495.668,15.323,39.273,55.779
-519.227,701.023,-472.993,15.24,38.73,55.812
-505.267,727.228,-492.937,14.074,39.49,55.584
-537.257,733.471,-457.46,12.895,38.882,55.331
-526.377,744.333,-478.436,11.917,39.423,55.357
-520.186,762.017,-439.83,10.758,38.352,54.969
-515.864,765.106,-468.381,9.252,39.028,54.51
-563.832,788.395,-443.481,7.336,38.593,53.695
-531.286,798.479,-455.816,5.427,38.853,53.079
-539.902,821.242,-462.276,3.634,37.616,52.462
-520.032,820.78,-445.678,1.515,37.541,51.883
-533.414,818.328,-437.46,0.786,36.973,50.616
-509.82,823.626,-458.943,0.204,37.453,49.467
-535.24,810.262,-426.392,-0.424,37.22,48.299
-494.227,815.814,-432.413,-0.985,37.135,47.916
-520.31,823.158,-433.991,-0.477,36.503,47.754
-493.514,805.991,-452.649,0.319,37.124,47.949
-519.027,812.247,-429.899,1.439,37.081,48.072
-503.699,812.372,-452.925,2.532,38.01,48.646
-501.411,806.462,-425.03,4.177,37.318,49.21
-477.226,817.022,-458.816,5.446,38.424,49.47
-490.955,814.701,-419.293,6.405,38.132,49.754
-484.403,826.711,-414.096,7.408,38.631,50.02
-499.106,820.053,-405.135,8.616,38.294,49.803
-453.818,815.215,-417.301,8.66,39.254,49.458
-484.563,831.491,-362.233,8.059,39.061,48.892
-470.311,839.015,-392.936,6.954,39.823,48.216
-468.653,822.036,-364.717,6.095,39.405,47.506
-481.825,840.689,-372.474,4.646,40.517,46.932
-470.838,815.986,-359.748,3.172,39.924,46.231
-482.338,824.79,-368.492,1.672,41.405,45.759
-514.915,819.335,-356.767,0.12,40.607,45.005
-459.942,832.047,-354.312,-0.632,40.996,44.691
-479.17,828.026,-352.158,-0.421,40.147,44.297
-469.487,808.947,-365.536,-0.551,40.267,44.14
-463.116,809.442,-333.051,-0.568,39.244,43.429
-439.362,788.001,-354.753,-0.363,39.645,42.994
-442.755,795.915,-333.891,0.012,39.352,42.475
-400.296,801.559,-342.641,0.035,39.949,42.158
-387.994,806.846,-316.234,0.518,39.638,41.495
-392.583,818.148,-335.706,1.11,40.609,40.726
-411.731,810.939,-294.97,1.264,39.837,39.558
-406.154,815.905,-307.846,1.302,39.74,38.74
-377.146,820.685,-294.779,0.933,38.432,38.68
-351.861,827.072,-298.24,-0.056,38.791,38.972
-363.788,836.86,-255.246,-0.79,37.9,39.0
-343.821,834.721,-275.392,-2.309,38.475,39.363
-323.47,826.28,-259.576,-3.475,37.823,39.441
-340.543,830.679,-270.531,-4.498,38.279,39.581
-331.144,829.099,-240.291,-5.339,36.643,39.289
-336.28,826.289,-269.959,-6.55,36.797,38.863
-335.235,813.238,-249.991,-7.479,34.859,38.151
-295.23,828.474,-263.28,-8.635,34.308,37.121
-350.014,829.124,-222.421,-9.418,32.553,35.83
-320.336,816.621,-252.622,-9.451,32.252,34.863
-325.029,826.675,-234.142,-8.65,30.713,33.9
-319.83,819.11,-253.664,-8.02,30.261,32.695
-346.324,806.803,-249.509,-7.772,28.02,31.564
-320.873,805.612,-305.844,-7.461,26.822,30.949
-359.323,827.861,-283.049,-7.223,24.961,30.164
-329.599,835.364,-313.969,-6.977,24.557,29.665
-351.588,862.461,-290.676,-6.417,23.225,29.185
-334.205,880.938,-318.922,-6.67,23.206,28.815
-347.252,894.922,-315.086,-7.792,21.98,28.249
-338.859,890.883,-343.231,-9.17,21.875,27.709
-371.684,867.098,-317.805,-9.353,19.931,26.885
-330.985,889.414,-347.382,-8.897,19.564,25.922
-342.265,892.155,-300.18,-8.407,18.284,24.731
-321.303,896.165,-323.029,-8.266,18.539,23.818
-356.325,919.358,-300.069,-8.338,16.816,23.005
-497.511,938.815,-178.711,-8.823,14.636,22.229
-836.185,985.607,108.95,-10.175,2.348,20.005
-769.297,946.75,319.11,-12.274,-11.7,15.449
-479.533,924.478,463.828,-8.455,-14.879,9.579
-154.903,935.367,403.544,-5.585,-7.636,8.972
-44.265,868.394,157.606,-13.081,-2.449,14.733
-187.009,836.776,-75.922,-22.785,-3.303,22.386
-356.351,904.095,-167.956,-27.014,-8.966,25.35
-410.7,959.242,-208.617,-24.968,-13.567,22.487
-384.317,1021.746,-143.71,-20.742,-18.322,16.625
-282.55,1076.799,-109.876,-20.021,-21.318,11.884
-238.863,1085.224,-134.874,-23.386,-23.725,10.293
-241.707,1044.291,-195.532,-26.437,-23.722,10.923
-319.102,1058.159,-236.272,-26.201,-24.932,12.489
-300.163,1084.732,-304.584,-23.528,-24.809,13.573
-341.143,1100.204,-330.549,-19.772,-25.051,13.884
-316.314,1101.805,-382.243,-17.069,-23.798,14.053
-329.137,1113.008,-371.118,-14.845,-23.277,14.828
-301.207,1081.998,-352.77,-13.156,-21.4,15.606
-306.51,1030.958,-378.44,-10.447,-20.814,15.394
-270.985,1028.356,-407.307,-8.749,-19.097,15.78
-307.471,1020.009,-361.754,-7.541,-19.1,17.231
-284.251,1052.22,-374.341,-7.053,-18.052,19.245
-294.356,1063.495,-331.55,-6.913,-17.628,21.28
-293.341,1112.648,-349.976,-6.534,-17.276,23.993
-315.615,1120.817,-336.83,-5.623,-18.942,26.5
-294.287,1147.416,-344.512,-4.8,-18.815,28.513
-321.937,1174.576,-317.577,-3.386,-20.826,30.52
-287.317,1201.602,-300.323,-2.075,-21.647,32.975
-315.889,1224.847,-248.692,-0.338,-24.259,35.982
-247.37,1230.066,-259.035,0.208,-25.475,39.105
-280.72,1230.843,-200.448,0.388,-28.348,41.814
-263.389,1243.579,-207.08,0.373,-30.234,44.72
-286.773,1224.513,-199.358,0.508,-33.861,47.097
-290.224,1216.403,-215.75,0.195,-36.258,49.236
-249.283,1220.244,-214.832,-0.572,-40.075,51.519
-238.749,1242.536,-245.988,-2.607,-41.859,54.083
-246.299,1212.055,-243.571,-4.774,-45.358,56.972
-235.157,1214.439,-261.477,-7.496,-47.051,59.677
-290.362,1198.947,-208.977,-7.346,-50.321,62.917
-236.367,1162.061,-253.395,-6.232,-52.312,65.307
-263.452,1131.261,-222.564,-5.125,-54.937,66.032
-246.461,1162.584,-282.494,-5.11,-56.846,67.983
-299.337,1187.428,-274.353,-6.918,-59.796,70.651
-291.222,1233.823,-294.365,-8.372,-61.461,73.575
-305.45,1275.448,-249.098,-8.602,-64.546,76.315
-268.688,1301.0,-241.194,-8.881,-66.09,78.319
-305.119,1319.51,-227.682,-10.529,-69.456,80.583
-282.791,1317.199,-258.801,-13.96,-70.925,83.169
-321.42,1299.788,-246.821,-14.945,-73.487,86.201
-319.77,1302.895,-291.715,-13.195,-74.444,89.63
-336.766,1308.395,-258.25,-11.975,-76.349,92.99
-333.895,1354.579,-311.953,-11.515,-76.602,97.307
-364.339,1352.274,-277.374,-10.891,-77.624,101.479
-337.408,1390.864,-318.344,-11.303,-77.306,105.894
-343.738,1393.451,-295.974,-12.143,-78.572,110.152
-320.249,1400.459,-294.206,-13.153,-78.303,114.243
-367.602,1382.381,-280.29,-13.738,-79.636,117.781
-354.31,1386.879,-287.328,-15.105,-79.539,121.891
-384.677,1381.966,-242.909,-15.928,-81.007,125.806
-358.799,1360.239,-256.965,-15.716,-81.205,129.61
-383.486,1336.928,-215.419,-15.243,-82.391,133.217
-363.724,1360.063,-258.297,-15.091,-82.809,137.146
-405.158,1365.669,-233.161,-14.556,-84.482,140.859
-406.782,1385.735,-268.0,-14.058,-85.585,144.08
-436.299,1390.136,-236.11,-14.115,-87.985,146.737
-372.127,1409.222,-255.955,-15.487,-88.55,149.901
-405.057,1431.685,-197.815,-16.496,-90.037,153.132
-341.594,1441.755,-208.606,-17.882,-90.93,156.09
-341.235,1457.39,-189.978,-19.987,-91.23,158.11
-359.262,1464.897,-188.886,-22.143,-91.071,161.524
-363.101,1492.525,-180.697,-23.824,-93.065,165.595
-336.009,1490.269,-153.353,-25.324,-92.924,169.337
-364.613,1510.491,-94.568,-26.455,-94.661,172.556
-305.121,1502.393,-94.702,-28.686,-94.805,175.927
-332.24,1513.631,-17.245,-31.13,-96.792,179.344
-292.352,1481.436,-23.843,-34.298,-97.286,182.659
-308.086,1463.091,68.513,-36.317,-99.649,185.751
-247.693,1434.829,84.072,-37.946,-100.586,188.565
-287.885,1412.385,144.397,-39.666,-103.375,191.161
-264.47,1383.269,149.411,-41.824,-105.201,193.906
-300.262,1336.66,178.662,-42.27,-108.958,196.416
-269.883,1333.133,179.362,-42.095,-110.889,197.923
-320.911,1362.829,204.054,-41.307,-114.176,197.512
-296.549,1381.372,154.503,-41.797,-116.203,196.957
-347.881,1408.47,163.053,-43.394,-119.841,196.858
-327.384,1445.761,98.737,-45.403,-121.066,197.112
-379.34,1441.31,108.593,-47.023,-123.25,196.803
-360.575,1481.052,15.25,-49.575,-123.592,196.255
-424.679,1514.321,4.869,-52.594,-125.844,195.616
-417.594,1538.515,-88.494,-54.619,-126.667,195.022
-458.045,1525.697,-87.7,-54.824,-128.881,193.83
-419.661,1534.025,-154.405,-56.257,-129.051,192.39
-436.866,1590.928,-98.637,-58.813,-129.836,191.272
-389.438,1597.759,-137.705,-62.339,-128.998,190.737
-380.961,1585.045,-127.53,-65.146,-129.755,189.847
-341.13,1519.876,-108.257,-66.9,-129.369,188.893
-346.781,1467.261,-84.757,-67.655,-130.612,188.149
-311.3,1446.54,-117.071,-68.062,-130.914,188.375
-322.803,1412.837,-77.322,-68.212,-131.941,189.273
-291.266,1396.001,-80.903,-69.051,-131.361,190.252
-276.876,1378.376,-47.318,-69.642,-132.877,190.204
-264.616,1348.214,-58.983,-69.779,-132.242,189.686
-255.475,1330.207,-26.871,-70.924,-133.982,188.438
-228.423,1302.959,-100.524,-72.985,-133.27,187.575
-227.628,1243.843,-72.753,-74.12,-135.002,187.604
-167.479,1192.947,-96.545,-74.343,-133.542,188.326
-155.001,1146.507,-43.616,-74.167,-133.738,189.135
-74.583,1123.74,-77.542,-75.062,-131.56,190.368
-93.94,1090.211,-27.611,-75.968,-131.002,191.358
-55.841,1034.719,-91.014,-76.546,-128.749,192.148
-52.709,992.509,-54.085,-76.316,-128.729,192.732
-4.53,987.527,-87.282,-77.247,-126.915,193.76
-10.28,936.433,-47.499,-78.718,-126.565,194.902
39.603,900.564,-106.464,-81.105,-124.389,196.423
16.289,907.738,-54.668,-83.179,-123.703,197.832
70.895,855.674,-97.353,-85.078,-121.553,199.116
34.292,819.852,-63.083,-86.472,-121.679,200.516
62.91,769.087,-116.109,-87.078,-119.651,202.152
37.664,707.521,-79.838,-87.409,-120.339,203.322
96.271,685.464,-138.089,-88.048,-119.558,204.552
70.244,679.162,-86.637,-88.13,-120.33,205.964
134.446,649.852,-156.323,-88.581,-118.969,207.633
78.224,621.192,-127.494,-88.295,-119.862,208.604
127.35,594.343,-145.836,-88.811,-118.709,209.554
78.901,574.41,-82.212,-90.483,-119.481,210.743
116.933,535.81,-95.458,-90.767,-118.808,211.532
91.842,499.166,-22.248,-89.034,-119.832,211.626
142.364,480.46,-71.417,-89.301,-119.692,210.811
94.994,462.098,-43.084,-91.309,-121.436,209.345
97.605,463.329,-88.203,-93.637,-121.147,208.684
53.863,497.447,-60.687,-96.006,-122.026,209.08
57.529,512.521,-124.267,-98.473,-120.443,209.851
-7.505,560.182,-109.309,-100.958,-120.72,210.771
12.038,559.762,-151.094,-105.956,-118.308,211.956
-6.598,586.68,-118.826,-111.144,-118.602,212.864
16.486,576.067,-189.916,-114.291,-117.02,213.102
-16.412,517.429,-153.306,-114.221,-117.308,212.448
25.855,481.109,-226.181,-113.034,-115.205,211.669
7.619,443.724,-188.037,-111.463,-114.706,210.824
34.816,451.293,-262.658,-108.636,-111.928,210.254
5.109,429.234,-219.141,-103.487,-111.399,210.043
27.589,430.813,-289.044,-99.767,-108.023,209.4
0.197,463.498,-223.17,-97.034,-106.841,208.089
50.332,460.484,-283.203,-93.765,-104.146,206.544
-12.203,458.092,-237.617,-90.181,-104.376,203.756
20.985,476.542,-284.206,-87.828,-102.885,199.773
-6.481,470.601,-251.221,-85.275,-104.506,194.66
10.756,473.189,-311.353,-83.525,-104.35,189.349
-15.44,477.406,-248.008,-84.181,-106.074,183.949
14.643,489.783,-309.953,-86.7,-105.6,178.366
-42.313,470.229,-301.473,-88.138,-108.209,171.78
3.902,478.859,-377.302,-88.797,-109.158,164.885
-63.331,468.933,-339.003,-89.25,-113.637,158.317
7.373,458.086,-417.021,-91.505,-115.664,153.04
-41.106,441.078,-375.025,-93.52,-118.449,148.056
26.538,429.266,-432.811,-94.893,-119.342,143.466
-7.715,375.877,-380.814,-94.932,-122.375,138.828
70.084,361.186,-451.628,-95.154,-122.853,134.556
19.249,328.471,-409.311,-94.832,-125.627,129.758
97.284,305.288,-478.853,-93.411,-126.921,124.837
69.525,281.1,-458.486,-92.31,-129.72,119.459
145.29,247.167,-515.046,-89.69,-130.732,114.943
125.074,216.034,-467.878,-84.216,-133.958,110.551
192.179,173.992,-531.484,-78.26,-134.298,106.282
174.118,133.879,-509.152,-72.953,-137.194,102.581
243.607,141.336,-604.409,-67.887,-137.463,99.541
194.393,155.2,-589.096,-63.472,-139.018,95.671
252.781,139.598,-685.429,-60.572,-139.368,92.608
216.218,136.664,-685.058,-57.02,-142.22,89.69
280.508,109.661,-769.451,-53.771,-142.932,86.518
237.216,80.769,-754.528,-50.243,-145.512,82.658
286.949,49.079,-871.441,-47.023,-145.329,78.692
227.722,16.919,-847.508,-43.289,-148.646,74.817
305.814,-6.858,-966.434,-40.168,-148.878,70.56
268.718,-54.087,-935.456,-36.875,-150.677,65.861
326.975,-82.548,-1057.273,-33.111,-149.734,60.989
256.401,-131.519,-1026.389,-29.117,-152.628,56.115
324.305,-191.21,-1137.832,-25.489,-152.006,51.639
243.162,-225.149,-1070.687,-21.68,-153.911,46.714
312.972,-235.339,-1184.985,-17.713,-152.936,41.342
239.426,-302.148,-1138.148,-13.693,-155.113,35.425
312.068,-299.154,-1189.605,-12.024,-154.679,29.679
215.39,-292.144,-1141.471,-9.862,-155.843,23.348
260.881,-305.505,-1232.889,-7.091,-154.966,16.358
180.433,-306.061,-1174.547,-4.203,-156.598,9.563
232.452,-309.381,-1284.769,-1.941,-154.052,3.077
126.091,-327.32,-1246.368,2.356,-154.325,-4.039
149.305,-351.366,-1348.869,6.123,-152.253,-10.185
77.032,-367.573,-1292.399,10.813,-152.731,-15.829
114.579,-385.197,-1405.874,16.512,-149.594,-21.815
39.038,-403.74,-1372.134,22.84,-149.172,-27.251
76.479,-379.438,-1504.854,28.79,-145.514,-32.246
-9.274,-382.465,-1471.653,33.653,-145.92,-38.14
19.091,-342.775,-1598.805,37.887,-140.957,-44.147
-61.156,-371.575,-1589.529,41.794,-140.549,-50.494
-3.262,-359.177,-1714.987,44.877,-135.477,-57.316
-139.075,-382.393,-1699.278,48.635,-134.657,-63.9
-89.475,-387.066,-1861.315,51.039,-130.269,-70.709
-201.725,-372.573,-1832.75,53.406,-128.602,-77.787
-162.214,-374.786,-1970.794,55.745,-123.297,-85.499
-283.925,-398.484,-1913.832,59.59,-123.114,-94.369
-234.968,-421.813,-2088.518,63.688,-118.573,-102.82
-336.397,-447.759,-2019.971,68.716,-117.712,-110.859
-252.659,-436.274,-2158.886,73.769,-112.008,-119.854
-386.989,-411.664,-2108.337,80.067,-110.372,-129.598
-384.066,-387.593,-2273.581,85.126,-104.835,-138.932
-544.816,-359.605,-2247.793,88.661,-104.018,-148.177
-520.558,-308.213,-2447.493,90.762,-99.368,-157.495
-727.781,-272.637,-2413.885,94.531,-99.442,-166.621
-710.556,-256.002,-2624.707,98.603,-94.388,-175.84
-916.635,-272.886,-2619.694,104.721,-93.241,-185.328
-925.358,-221.887,-2870.971,110.546,-87.554,-195.398
-1167.458,-171.539,-2861.854,117.397,-85.352,-206.613
-1197.748,-117.038,-3122.558,124.3,-77.458,-218.476
-1415.817,-88.922,-3102.677,133.25,-73.049,-231.776
-1409.079,-21.694,-3357.962,142.013,-62.261,-245.507
-1623.325,-2.126,-3336.82,150.7,-54.199,-259.622
-1614.067,66.771,-3594.617,159.104,-39.429,-273.526
-1829.904,73.468,-3514.597,169.112,-27.989,-288.084
-1856.769,70.284,-3711.309,180.273,-10.016,-303.508
-2140.462,43.742,-3583.746,193.402,2.777,-320.166
-2155.136,26.842,-3767.697,205.977,21.23,-337.379
-2417.384,-20.252,-3570.402,220.578,33.992,-355.106
-2428.528,8.564,-3723.788,231.196,53.101,-374.466
-2720.978,58.557,-3536.644,241.687,66.241,-395.784
-2731.609,26.136,-3705.243,251.257,84.902,-420.159
-3065.656,-57.362,-3474.382,260.292,96.785,-448.52
-3052.424,-96.629,-3601.982,267.204,114.3,-479.229
-3423.299,-128.403,-3373.435,276.233,125.254,-513.342
-3490.082,-64.014,-3575.396,282.009,144.426,-549.263
-3970.642,-14.839,-3265.83,286.981,157.847,-588.346
-4118.779,130.244,-3485.429,290.725,175.913,-629.627
-4661.109,220.975,-3207.676,298.431,184.86,-672.416
-4664.851,437.655,-3334.92,304.577,200.598,-714.91
-5090.333,695.367,-2886.423,309.203,211.399,-755.358
-4953.397,1018.288,-2994.876,309.295,232.956,-793.306
-5465.465,1275.046,-2492.791,310.418,247.033,-828.889
-5503.053,1616.01,-2590.909,307.498,265.793,-861.862
-6048.536,1900.424,-2028.288,303.881,274.102,-892.132
-5933.912,2293.598,-2085.688,296.382,288.487,-919.094
-6428.962,2643.984,-1411.555,287.262,293.24,-940.989
-6202.692,3013.966,-1538.826,277.902,305.462,-957.136
-6713.058,3195.18,-803.542,275.009,304.032,-971.321
-6380.681,3550.181,-1063.003,268.812,307.489,-984.724
-6885.535,3832.693,-478.3,255.112,303.53,-992.558
-6389.443,4133.14,-942.29,235.368,312.724,-996.616
-6926.178,4127.769,-125.313,224.07,310.889,-1001.51
-6197.888,4113.358,-814.456,217.653,316.652,-1009.942
-6864.056,3714.82,138.15,231.715,308.805,-1021.325
-5693.475,3533.059,-919.253,257.388,311.317,-1034.965
-6578.53,3018.052,258.774,278.108,322.886,-1047.573
-4566.353,2853.899,-1954.58,278.661,343.184,-1059.079
-5866.456,1570.077,-874.668,297.29,420.272,-1055.285
-4779.149,-195.069,-2593.632,406.075,342.893,-1015.661
-5790.275,-2638.822,-4380.369,431.589,368.706,-1050.152
-8437.77,-3036.726,-4193.685,402.883,329.724,-1116.451
-11616.451,-1085.267,-3993.506,407.037,248.436,-1002.859
-11575.172,1644.078,-3587.918,541.528,134.228,-759.218
-11070.249,2969.314,-1762.76,573.677,28.385,-677.701
-7245.244,4137.665,-1182.497,486.464,-80.605,-723.266
-5749.263,4311.254,-13.036,327.183,-35.374,-758.829
-4131.47,4538.925,-82.223,189.109,-68.02,-739.885
-3796.258,3816.553,-275.328,12.199,-22.016,-735.762
-3500.454,2149.872,-730.913,-159.247,-101.053,-774.775
-3031.875,423.006,-1436.867,-307.538,-99.427,-874.821
-2811.506,-844.42,-1605.739,-393.138,-140.485,-981.125
-2171.683,-1686.712,-2372.829,-434.067,-88.486,-994.051
-2489.1,-2569.637,-2448.124,-461.536,-41.308,-932.87
-2648.562,-3143.76,-3011.219,-465.593,41.257,-848.773
-3589.606,-3221.404,-2491.917,-449.699,78.994,-784.59
-3610.459,-2611.111,-2850.952,-412.344,139.324,-739.577
-3950.597,-2065.101,-2642.918,-371.132,168.8,-694.927
-3829.043,-1943.476,-2714.404,-352.339,203.746,-656.166
-3948.875,-1897.024,-2373.926,-332.708,214.144,-624.752
-3730.343,-1878.455,-2358.394,-313.146,241.943,-599.19
-3972.522,-1790.119,-1989.786,-285.501,250.374,-581.074
-3839.808,-1625.039,-2048.011,-260.494,272.939,-557.531
-4078.969,-1482.267,-1667.281,-235.02,277.264,-534.962
-3953.376,-1286.619,-1724.483,-210.332,294.052,-513.345
-4255.185,-1093.497,-1356.165,-183.13,292.844,-495.336
-4149.794,-772.994,-1445.675,-158.048,301.321,-477.151
-4468.713,-385.303,-1210.65,-134.552,298.184,-458.711
-4425.701,22.964,-1328.694,-116.505,302.654,-438.048
-4599.308,354.658,-1110.194,-101.614,294.534,-418.36
-4372.051,720.746,-1189.984,-93.017,296.626,-400.74
-4504.943,1070.731,-822.79,-87.342,290.145,-385.585
-4413.868,1364.892,-768.231,-84.592,290.377,-368.041
-4568.452,1514.296,-378.296,-79.503,280.774,-350.814
-4352.814,1662.167,-268.205,-73.373,277.087,-333.77
-4355.234,1722.281,123.002,-62.49,266.275,-316.854
-4020.425,1716.868,270.074,-50.514,264.639,-300.056
-3961.415,1749.612,667.45,-35.341,256.491,-284.862
-3691.086,1833.109,763.035,-20.206,253.664,-270.017
-3697.976,2037.362,1182.832,-4.8,241.6,-255.033
-3448.564,2312.131,1364.689,3.22,234.16,-239.456
-3376.178,2576.342,1613.074,3.888,222.011,-225.269
-3090.491,2784.957,1640.138,-0.383,216.823,-214.672
-3062.933,2902.352,1883.222,-5.516,198.828,-207.884
-2712.181,2961.226,1905.52,-11.909,182.882,-201.194
-2591.433,2987.569,2134.472,-13.991,164.293,-193.672
-2285.93,2933.899,2079.863,-15.988,152.081,-181.28
-2231.44,2793.445,2175.544,-17.028,133.804,-165.014
-2009.109,2656.187,2059.539,-17.626,117.617,-148.975
-1929.64,2555.201,2136.222,-20.038,93.89,-134.05
-1612.711,2433.79,1962.974,-25.225,76.091,-118.554
-1537.104,2285.372,1979.263,-29.86,53.096,-103.58
-1315.062,2114.237,1772.688,-36.553,33.425,-88.443
-1244.276,1922.238,1718.742,-44.097,10.742,-75.949
-1054.947,1728.147,1491.053,-53.298,-6.685,-65.553
-1011.822,1588.452,1399.962,-63.06,-26.375,-58.376
-820.497,1482.738,1088.052,-76.719,-38.191,-51.563
-825.396,1321.289,954.408,-88.503,-52.958,-44.197
-775.952,1207.144,819.105,-102.066,-66.533,-35.635
-774.274,975.005,736.939,-111.856,-83.565,-23.704
-652.286,822.938,494.811,-117.19,-92.552,-15.274
-682.437,781.305,417.598,-122.534,-105.075,-7.189
-573.875,746.457,179.06,-124.938,-108.714,5.366
-673.858,655.506,122.306,-128.438,-117.681,12.944
-592.742,643.004,-88.204,-132.948,-122.619,20.177
-686.777,603.209,-106.051,-134.825,-130.952,28.677
-616.634,578.919,-271.201,-134.74,-136.13,37.762
