acc_x[mg],acc_y[mg],acc_z[mg],gyro_x[dps],gyro_y[dps],gyro_z[dps]
-11.244,531.303,-566.598,36.728,-2.21,-2.817
403.728,721.924,-851.998,30.117,-2.107,3.896
253.18,666.633,-757.366,29.869,-1.717,1.284
348.214,716.804,-822.145,26.31,-1.436,2.194
287.079,700.246,-782.681,24.489,-1.219,1.141
320.692,719.583,-807.319,21.108,-1.252,1.655
295.224,681.143,-760.597,19.509,-1.253,0.833
306.684,708.534,-790.768,17.02,-1.346,0.982
313.13,716.268,-789.061,16.114,-1.151,0.809
324.656,697.407,-803.852,14.279,-1.391,1.273
294.575,638.232,-782.214,14.351,-1.334,1.344
300.313,635.586,-776.721,11.942,-1.078,2.03
239.394,604.241,-736.426,9.738,-0.597,1.44
200.523,619.018,-702.792,12.801,-1.016,0.895
148.287,629.798,-645.971,23.134,-2.521,3.075
165.007,702.229,-653.578,32.909,-5.337,7.143
194.243,718.122,-693.793,37.027,-8.206,8.275
236.034,739.989,-758.601,33.003,-10.373,7.775
284.535,745.697,-766.162,27.268,-11.839,5.76
339.121,767.032,-785.695,21.284,-12.157,4.669
341.244,742.506,-779.14,16.602,-11.124,5.068
352.58,695.592,-794.349,11.375,-9.473,6.358
320.731,664.344,-777.063,7.083,-7.691,6.816
304.124,632.912,-787.204,3.468,-5.983,6.283
244.631,611.188,-788.693,1.168,-5.52,4.929
243.414,587.2,-796.109,-0.652,-6.259,3.575
229.709,557.573,-793.863,-1.122,-7.222,2.096
236.316,592.106,-808.546,-1.888,-8.059,1.267
237.722,607.834,-800.337,-1.897,-8.644,0.773
268.949,598.412,-812.957,-2.118,-8.908,0.64
279.442,613.668,-814.89,-1.359,-8.718,0.482
300.921,603.907,-826.079,-0.109,-8.503,0.362
299.203,636.037,-834.862,2.66,-7.944,0.709
301.923,637.965,-826.28,5.537,-7.483,1.836
277.057,651.718,-794.781,8.427,-7.163,2.92
286.833,658.822,-767.839,10.029,-7.122,3.859
288.15,671.341,-776.204,11.343,-7.522,4.224
294.064,650.217,-791.333,11.753,-8.133,4.207
291.364,666.421,-782.366,12.355,-8.715,4.07
289.498,650.555,-810.152,12.363,-8.66,4.085
295.307,647.39,-802.99,12.708,-8.325,4.188
300.735,638.011,-792.195,12.488,-7.887,4.428
302.432,641.358,-783.348,12.675,-7.624,4.525
302.181,634.919,-795.489,11.902,-7.65,4.294
298.706,645.493,-796.034,11.135,-7.753,3.651
295.725,628.556,-799.305,9.442,-7.815,2.872
312.975,642.816,-822.556,8.067,-7.995,2.128
307.132,653.332,-831.743,6.212,-7.89,1.543
286.324,655.8,-823.614,4.734,-7.692,1.089
310.69,654.683,-827.217,2.974,-7.372,0.693
305.019,652.246,-812.847,1.643,-7.009,0.306
293.921,644.394,-811.956,-0.035,-6.839,0.137
283.669,656.272,-812.21,-1.154,-7.098,-0.042
264.715,659.2,-831.431,-3.303,-7.326,-0.943
307.122,631.533,-880.33,-3.71,-6.724,-1.727
318.49,608.386,-917.983,-1.804,-5.098,-1.031
316.722,586.077,-870.591,0.492,-3.441,0.744
321.941,565.046,-837.073,1.794,-2.723,1.134
293.734,586.177,-798.528,3.834,-2.595,-0.061
310.652,659.77,-801.405,5.16,-3.325,-1.134
301.174,679.576,-777.654,6.003,-3.856,-1.426
308.273,708.246,-785.479,5.642,-3.343,-0.565
299.876,728.779,-799.086,4.834,-2.649,1.228
316.249,717.072,-803.494,3.102,-2.0,2.925
284.113,687.523,-793.9,1.816,-1.784,3.838
253.994,643.317,-773.542,0.315,-2.05,4.069
266.992,632.953,-774.764,-0.34,-2.652,3.987
278.318,625.789,-780.824,-0.93,-3.147,3.532
289.708,638.714,-781.382,-0.839,-3.305,2.938
289.467,634.014,-792.892,-1.16,-3.508,2.245
305.24,643.942,-809.654,-1.358,-3.581,1.91
308.853,637.97,-806.748,-1.621,-3.54,1.947
305.777,639.827,-794.27,-1.577,-3.304,2.276
322.318,633.513,-802.369,-1.996,-3.01,2.548
301.192,626.696,-807.949,-1.73,-2.561,2.464
286.802,626.692,-801.493,-1.308,-2.085,2.273
303.886,646.977,-801.424,-0.292,-1.859,2.325
301.504,626.005,-802.237,0.66,-1.828,2.522
269.894,635.579,-810.79,2.093,-1.747,3.029
296.171,624.699,-832.096,2.975,-1.739,3.164
271.268,628.712,-828.248,4.104,-1.099,3.175
302.853,636.839,-805.185,4.576,-0.61,3.078
278.893,641.979,-787.701,4.672,-0.185,3.112
290.067,634.27,-790.763,3.883,-0.204,2.745
283.298,634.52,-806.964,3.441,-0.312,2.475
295.686,633.705,-805.497,3.063,-0.13,2.241
290.273,597.64,-803.661,3.725,0.413,2.085
290.7,626.77,-805.831,4.52,1.029,2.073
279.136,635.625,-803.209,5.199,1.255,2.372
269.459,645.44,-808.36,4.811,1.123,2.398
279.45,645.652,-815.391,4.733,1.045,2.172
281.308,665.676,-820.871,4.194,0.997,1.654
283.141,679.804,-809.529,3.681,1.042,1.533
269.855,681.921,-814.542,2.653,1.119,1.52
282.044,642.367,-809.961,2.193,1.004,2.015
288.576,676.908,-824.325,1.257,0.994,2.389
258.212,654.452,-816.918,0.953,0.898,2.749
290.762,640.919,-811.908,0.353,1.069,2.839
283.33,633.521,-793.844,0.106,1.072,2.626
276.98,619.801,-816.247,-0.318,1.023,2.396
280.899,628.116,-833.297,-0.204,0.984,2.218
301.253,614.424,-826.317,-0.479,1.234,1.956
273.579,618.692,-801.844,-0.372,1.421,1.679
282.094,655.95,-806.684,-0.855,1.693,1.299
276.657,625.213,-819.599,-1.188,1.611,1.203
279.121,641.36,-817.639,-1.7,1.321,1.321
266.212,641.355,-794.234,-1.498,0.897,1.443
291.564,625.433,-787.577,-1.589,0.663,1.608
286.735,624.634,-806.644,-0.907,0.451,1.678
300.882,639.528,-791.368,-0.553,0.277,1.695
287.499,611.54,-795.269,0.698,0.173,1.973
276.772,621.26,-795.188,1.637,-0.072,2.115
270.698,618.309,-775.661,3.045,-0.279,2.214
292.519,608.638,-795.249,3.706,-0.629,2.148
281.398,610.859,-774.5,4.252,-0.972,2.007
279.65,596.408,-782.097,4.061,-1.517,1.653
282.415,611.275,-783.829,4.08,-2.158,1.328
293.127,633.183,-774.256,3.543,-2.37,0.903
279.91,615.646,-777.814,3.301,-2.542,0.78
275.829,624.51,-787.632,2.844,-2.691,0.616
288.549,627.544,-783.616,2.998,-2.707,0.724
286.017,629.748,-781.344,2.676,-2.802,0.655
278.581,621.727,-796.428,2.542,-2.952,0.634
278.733,633.475,-779.65,2.079,-3.086,0.419
263.927,657.766,-788.01,1.97,-3.335,0.549
280.198,651.906,-796.595,1.435,-3.483,0.744
277.281,652.758,-799.071,1.455,-3.65,0.746
293.44,629.641,-819.185,1.099,-3.484,0.621
264.613,634.488,-837.768,1.13,-3.298,0.515
281.798,630.203,-825.12,0.776,-3.054,0.285
303.902,637.498,-862.477,1.025,-2.947,0.292
293.741,640.143,-846.204,1.143,-2.733,0.491
303.502,655.578,-829.07,1.473,-2.407,0.763
298.97,644.635,-842.996,1.022,-2.023,0.812
295.211,638.95,-826.934,0.707,-1.686,0.914
289.6,620.148,-817.875,0.195,-1.505,0.726
301.028,625.393,-815.011,0.205,-1.365,0.643
278.523,610.746,-814.908,0.067,-1.267,0.569
273.026,595.17,-789.433,0.512,-1.32,0.477
282.576,604.05,-811.677,0.604,-1.433,0.013
269.924,612.247,-801.459,1.089,-1.466,-0.201
268.363,615.996,-781.299,1.229,-1.7,-0.495
276.18,616.486,-795.703,1.294,-1.88,-0.426
274.364,627.733,-781.518,0.569,-1.828,-0.605
297.391,645.227,-783.24,0.259,-1.854,-0.582
286.135,627.313,-777.2,-0.253,-1.868,-0.709
283.805,636.884,-791.881,-0.367,-1.874,-0.532
273.556,615.249,-790.995,-0.878,-2.016,-0.605
279.905,620.781,-803.627,-0.614,-2.013,-0.753
298.001,634.399,-812.149,-0.409,-1.79,-0.86
274.845,611.632,-807.532,0.109,-1.726,-0.491
267.427,617.457,-806.463,0.072,-1.986,-0.271
275.099,606.496,-816.873,0.273,-1.964,-0.146
269.94,596.411,-823.901,0.099,-2.012,-0.378
278.766,611.196,-814.982,0.201,-2.065,-0.581
273.809,616.42,-825.735,0.211,-1.92,-0.878
275.136,621.111,-826.735,0.737,-1.572,-0.906
300.081,628.818,-827.849,0.694,-1.278,-0.787
294.346,627.056,-823.303,1.096,-0.925,-0.638
284.751,618.855,-818.743,1.149,-0.543,-0.623
287.959,614.024,-816.225,1.427,-0.352,-0.631
275.053,604.123,-811.39,1.764,-0.096,-0.731
281.078,606.893,-792.019,2.444,-0.177,-0.598
266.078,641.436,-813.554,2.352,-0.081,-0.478
276.28,614.752,-808.921,2.292,-0.094,-0.395
281.33,642.571,-805.283,1.775,0.02,-0.29
275.879,621.201,-804.871,1.319,0.225,-0.246
293.313,629.517,-811.37,0.519,0.454,-0.394
289.272,632.316,-804.353,0.089,0.38,-0.287
280.707,654.33,-801.845,-0.553,0.457,-0.173
273.042,653.474,-804.842,-0.662,0.471,0.048
277.853,646.132,-806.107,-1.058,0.357,0.136
282.577,654.143,-806.751,-1.141,0.219,0.267
284.452,625.235,-802.024,-1.686,0.106,0.304
266.083,630.069,-780.897,-1.93,-0.101,0.362
276.405,620.891,-790.262,-2.282,-0.368,0.394
247.009,642.095,-799.044,-2.119,-0.601,0.533
268.263,608.615,-786.394,-2.556,-0.753,0.327
259.348,632.333,-778.649,-2.593,-1.081,-0.005
278.982,617.403,-786.609,-2.706,-1.182,-0.061
278.709,631.093,-773.638,-2.212,-1.228,0.236
274.859,631.789,-798.454,-1.82,-1.275,0.55
270.53,638.718,-791.179,-1.221,-1.321,0.854
272.217,607.514,-786.06,-0.933,-1.401,0.765
251.16,618.739,-776.89,-0.523,-1.665,0.696
250.695,641.848,-777.195,-0.408,-2.109,0.536
253.918,629.176,-784.632,0.005,-2.502,0.686
268.944,639.571,-797.207,-0.186,-2.849,0.772
279.088,635.879,-815.951,-0.151,-2.954,0.79
276.729,619.699,-818.494,-0.365,-2.852,0.82
265.325,635.129,-811.239,-0.08,-2.77,1.092
278.513,627.197,-811.894,0.036,-2.701,1.059
254.857,642.298,-814.395,0.528,-2.707,1.146
287.047,633.229,-802.999,0.528,-2.799,1.105
282.262,624.153,-817.926,1.193,-2.93,1.193
263.391,642.902,-812.902,1.293,-2.968,1.151
257.539,641.921,-810.494,1.378,-2.767,1.277
275.251,648.946,-790.954,0.77,-2.881,1.254
287.047,640.682,-796.834,0.396,-3.082,1.199
261.776,642.829,-784.732,-0.328,-3.285,1.083
266.137,620.161,-803.064,-0.497,-3.467,1.207
272.156,619.038,-820.289,-0.884,-3.532,1.062
256.015,629.981,-790.548,-0.826,-3.486,0.809
262.623,618.199,-803.199,-1.243,-3.478,0.509
259.881,617.428,-807.17,-1.263,-3.747,0.369
265.94,637.491,-815.919,-1.581,-3.949,0.304
272.792,639.428,-835.744,-1.386,-4.019,0.507
276.074,646.405,-807.548,-1.726,-3.947,0.684
260.219,653.108,-816.02,-1.971,-3.907,0.989
275.377,625.07,-807.472,-2.745,-4.008,0.899
283.413,600.55,-812.914,-3.049,-4.125,0.715
263.168,619.215,-806.374,-3.233,-4.234,0.367
269.486,610.076,-786.783,-2.879,-4.386,0.387
269.803,599.4,-799.519,-2.957,-4.461,0.305
270.801,603.55,-807.167,-2.338,-4.519,0.503
266.59,608.959,-816.945,-1.788,-4.661,0.502
248.456,596.031,-807.355,-0.974,-4.824,0.383
258.062,606.314,-814.173,-0.493,-5.038,0.063
258.781,614.861,-805.387,0.18,-5.144,-0.226
256.711,639.367,-807.174,0.51,-5.374,-0.244
262.401,631.459,-776.128,0.699,-5.471,0.374
281.697,640.343,-773.12,0.233,-5.559,0.889
280.803,640.546,-769.733,-0.172,-5.763,1.273
255.84,634.171,-801.973,-0.768,-5.86,1.61
275.91,642.965,-795.817,-0.868,-6.084,2.084
266.682,644.746,-791.777,-1.281,-6.194,2.172
263.821,626.376,-771.318,-1.397,-6.346,2.083
261.791,630.592,-788.525,-1.809,-6.352,1.767
254.931,609.027,-801.796,-1.698,-6.355,1.637
273.433,626.144,-809.717,-1.601,-6.193,1.496
259.094,624.587,-810.628,-1.117,-6.025,1.638
288.501,635.079,-808.022,-1.076,-5.868,1.73
279.54,631.668,-808.687,-0.603,-5.792,2.016
293.857,642.121,-820.405,-0.531,-5.601,2.172
288.652,634.064,-820.934,-0.151,-5.383,2.381
274.314,611.426,-817.203,-0.061,-5.287,2.405
271.968,619.369,-810.309,0.141,-5.071,2.443
259.601,629.892,-796.031,0.006,-5.041,2.262
276.577,607.681,-812.442,0.163,-5.177,2.07
274.912,624.966,-824.058,-0.058,-5.175,1.75
270.753,613.179,-815.75,-0.128,-5.168,1.68
281.8,623.925,-824.304,-0.403,-4.898,1.625
277.212,606.342,-808.611,-0.427,-4.835,1.658
278.261,622.59,-804.588,-1.058,-4.726,1.605
262.116,614.452,-827.025,-1.266,-4.671,1.577
253.791,633.978,-795.914,-1.849,-4.598,1.305
255.245,615.171,-789.709,-1.981,-4.596,1.044
266.94,626.475,-807.427,-2.453,-4.632,0.782
271.67,639.119,-782.794,-2.167,-4.571,0.716
270.356,634.481,-804.93,-1.84,-4.698,0.835
262.827,641.293,-799.512,-1.276,-4.669,1.307
257.408,621.057,-793.84,-1.196,-4.59,1.342
240.624,643.104,-796.863,-0.938,-4.548,1.319
257.35,633.047,-805.353,-1.232,-4.648,1.144
254.837,624.908,-812.011,-0.756,-4.776,1.231
262.284,616.411,-815.585,-0.639,-4.748,1.198
266.87,626.44,-808.538,-0.206,-4.7,1.359
267.25,612.69,-823.613,-0.104,-4.671,1.508
280.127,618.017,-814.3,0.264,-4.636,1.721
255.62,624.114,-816.994,0.338,-4.524,1.617
261.339,626.429,-810.093,0.693,-4.561,1.559
254.533,633.995,-812.613,0.694,-4.646,1.439
254.018,598.476,-815.477,0.932,-4.635,1.385
262.986,612.25,-819.612,0.826,-4.751,1.307
268.729,620.285,-800.726,1.118,-4.694,1.433
265.332,605.52,-806.176,0.836,-4.623,1.48
255.507,618.013,-802.05,0.584,-4.733,1.314
259.43,622.604,-805.249,0.014,-4.758,0.904
251.344,597.256,-789.622,0.008,-5.02,0.722
267.524,618.073,-803.998,-0.25,-5.205,0.627
249.595,597.828,-807.3,-0.078,-5.506,0.735
241.348,614.608,-807.971,-0.129,-5.489,0.665
236.593,610.565,-797.118,0.155,-5.5,0.727
247.231,605.898,-799.342,0.167,-5.669,0.475
231.838,621.376,-809.019,0.67,-5.886,0.414
253.415,630.115,-805.0,0.973,-5.978,0.21
247.894,625.244,-815.562,1.492,-6.126,0.24
255.384,629.883,-807.231,1.616,-6.094,0.305
284.489,648.788,-814.3,1.899,-5.912,0.519
244.795,653.94,-801.173,1.818,-5.829,0.662
257.099,631.285,-834.619,2.241,-5.752,0.924
253.358,627.508,-819.706,2.395,-5.516,1.036
250.962,629.324,-861.447,2.901,-5.18,1.323
258.527,647.739,-833.883,2.822,-4.853,1.338
259.205,623.079,-831.377,3.059,-4.631,1.388
255.008,621.616,-832.885,2.908,-4.429,1.198
264.296,629.914,-837.06,2.924,-4.361,1.233
269.577,651.635,-815.376,2.651,-4.242,1.125
268.883,642.573,-833.602,2.558,-4.078,1.272
250.769,637.292,-830.317,2.057,-3.813,1.25
262.685,635.608,-832.494,1.707,-3.485,1.469
258.632,634.881,-812.848,0.78,-3.324,1.395
269.882,629.44,-818.028,0.377,-3.035,1.541
251.286,607.171,-820.055,-0.025,-2.914,1.521
256.954,644.468,-816.041,-0.002,-2.784,1.6
264.012,617.174,-821.682,-0.21,-2.842,1.502
253.285,627.292,-805.13,-0.093,-2.874,1.441
278.627,626.487,-796.282,-0.225,-2.754,1.323
254.133,638.988,-811.018,-0.042,-2.599,1.344
275.127,642.041,-810.179,-0.145,-2.487,1.426
262.086,644.626,-818.238,-0.003,-2.438,1.872
273.999,644.3,-826.221,-0.216,-2.178,2.064
262.254,651.258,-828.565,-0.293,-2.201,2.249
271.84,646.332,-822.488,-0.836,-2.169,2.107
256.01,650.728,-822.45,-0.983,-2.13,1.988
267.868,641.676,-821.862,-1.461,-2.1,1.843
255.617,639.745,-829.169,-1.447,-2.102,1.995
268.873,649.142,-810.676,-1.819,-2.097,2.04
244.492,639.612,-805.684,-1.816,-2.095,2.052
268.197,632.249,-820.759,-2.339,-1.953,1.884
272.916,660.287,-818.009,-2.321,-1.85,1.998
273.688,675.169,-805.719,-2.494,-1.892,2.241
258.247,646.718,-803.45,-2.218,-1.921,2.573
252.047,637.854,-822.746,-2.276,-1.97,2.614
248.297,641.57,-818.847,-1.738,-1.797,2.668
264.087,646.037,-825.014,-1.306,-1.521,2.768
252.946,637.401,-806.226,-0.602,-1.378,3.084
248.305,622.049,-811.123,-0.125,-1.257,3.154
236.314,612.465,-830.016,0.574,-1.274,3.261
267.371,636.795,-825.55,0.815,-1.19,3.194
250.952,628.171,-821.232,1.032,-1.042,3.304
258.026,634.93,-811.29,0.899,-0.811,3.236
257.295,634.619,-805.027,1.128,-0.688,3.453
254.169,649.783,-822.61,0.788,-0.77,3.463
254.915,638.551,-824.558,0.602,-0.804,3.442
256.434,638.764,-827.128,-0.025,-0.7,3.261
259.138,647.809,-809.366,-0.214,-0.53,3.194
261.729,637.302,-820.698,-0.753,-0.333,3.064
272.726,626.905,-812.696,-0.905,-0.457,3.13
259.689,646.831,-812.578,-1.396,-0.326,3.272
272.558,661.283,-811.364,-1.381,-0.331,3.437
260.781,635.987,-830.592,-1.758,-0.203,3.471
260.874,629.432,-828.785,-1.886,-0.092,3.578
254.866,649.55,-795.721,-2.504,-0.046,3.516
257.113,630.413,-827.869,-2.682,0.013,3.611
261.164,629.869,-813.499,-3.165,-0.01,3.596
251.455,635.083,-798.516,-3.507,-0.119,3.72
235.035,632.43,-787.481,-3.963,-0.145,3.734
248.898,630.768,-803.014,-4.137,-0.244,3.826
259.305,626.318,-814.718,-4.6,-0.387,3.798
261.447,629.249,-799.678,-4.748,-0.556,3.834
248.2,620.609,-800.434,-5.175,-0.59,3.531
272.958,635.741,-786.705,-4.961,-0.702,3.467
251.853,627.8,-799.974,-4.786,-0.782,3.252
267.376,603.716,-800.129,-4.284,-0.843,3.233
259.814,608.023,-823.814,-4.015,-0.773,3.111
259.675,617.186,-807.853,-3.215,-0.61,3.156
266.365,609.199,-807.217,-2.627,-0.639,3.052
248.345,613.24,-828.523,-1.845,-0.635,2.929
267.262,628.152,-821.461,-1.38,-0.728,2.62
250.009,614.294,-810.228,-0.654,-0.8,2.493
256.865,625.715,-810.217,-0.272,-0.825,2.282
252.014,613.515,-797.601,0.391,-0.839,2.331
247.807,639.827,-796.083,0.455,-0.903,2.193
251.282,638.083,-831.03,0.829,-0.961,2.157
272.521,644.226,-814.689,0.586,-1.004,2.105
280.047,646.861,-828.598,0.511,-0.97,2.079
251.383,641.32,-843.844,-0.093,-0.776,1.918
272.266,650.145,-829.778,-0.422,-0.699,1.914
261.536,643.441,-841.676,-1.144,-0.647,1.799
270.232,646.876,-808.887,-1.607,-0.55,1.882
270.522,632.357,-805.996,-2.265,-0.551,1.876
269.349,642.759,-803.922,-2.424,-0.512,1.915
254.404,615.487,-800.166,-2.933,-0.55,1.722
250.628,620.756,-798.872,-3.146,-0.468,1.575
232.192,629.202,-813.793,-3.499,-0.304,1.34
262.038,624.606,-802.332,-3.364,-0.346,1.492
242.47,620.251,-801.413,-3.686,-0.293,1.293
251.879,627.13,-799.084,-3.845,-0.362,1.434
266.126,624.424,-794.696,-4.448,-0.291,1.233
264.779,626.815,-817.086,-4.72,-0.247,1.127
258.496,646.106,-811.828,-5.006,-0.265,1.128
241.178,627.937,-805.888,-4.68,-0.156,1.381
258.132,629.074,-791.308,-4.465,-0.124,1.359
256.733,642.825,-795.927,-3.482,-0.055,1.583
256.291,623.286,-791.532,-2.673,-0.201,1.658
230.427,634.313,-806.036,-1.75,-0.348,1.756
259.484,619.103,-805.384,-1.257,-0.264,1.774
256.095,626.311,-801.809,-0.181,-0.215,1.836
261.691,613.463,-827.685,0.382,-0.234,1.895
249.523,625.622,-800.854,0.791,-0.237,1.971
264.986,636.831,-825.305,0.805,-0.26,1.847
245.598,622.168,-807.061,1.127,-0.265,1.745
243.434,629.305,-804.331,1.028,-0.443,1.593
249.246,638.047,-787.084,1.242,-0.62,1.578
256.446,648.805,-801.999,0.749,-0.756,1.406
250.822,626.269,-824.455,0.563,-0.868,1.449
256.496,661.811,-815.53,-0.062,-0.986,1.452
256.395,631.338,-800.024,-0.425,-1.033,1.597
245.816,648.355,-803.334,-1.035,-1.174,1.564
252.995,643.722,-809.122,-1.206,-1.239,1.522
260.107,623.749,-806.907,-1.823,-1.251,1.333
278.058,621.867,-799.978,-1.774,-1.38,1.315
265.384,622.188,-803.074,-1.918,-1.356,1.311
265.376,636.921,-825.273,-1.815,-1.299,1.283
248.892,618.524,-821.72,-1.953,-1.384,1.038
250.958,628.039,-812.112,-1.825,-1.551,1.015
252.27,639.181,-807.552,-2.092,-1.681,0.884
247.19,635.169,-805.105,-2.064,-1.987,0.885
265.932,632.162,-799.12,-2.295,-1.925,0.913
255.078,647.652,-809.913,-1.961,-1.643,1.441
255.317,636.263,-795.58,-2.053,-1.452,1.715
255.969,626.895,-792.461,-1.582,-1.344,1.857
230.805,609.577,-795.549,-1.336,-1.599,1.53
261.105,620.499,-796.333,-0.835,-1.779,1.373
265.155,630.593,-797.552,-0.595,-1.692,1.237
249.897,639.074,-819.882,-0.202,-1.52,1.222
259.849,639.448,-825.743,-0.134,-1.429,1.114
267.873,635.683,-809.89,0.079,-1.248,1.113
259.258,647.638,-804.013,-0.057,-1.286,0.952
254.529,639.265,-814.306,0.257,-1.304,1.031
258.76,638.975,-812.574,0.114,-1.119,1.029
255.026,633.192,-827.344,0.369,-0.963,1.226
271.278,635.317,-833.323,0.267,-0.822,1.27
263.911,634.817,-809.445,0.412,-0.817,1.281
244.008,637.594,-799.244,0.122,-0.829,1.042
268.594,628.46,-811.251,-0.056,-0.852,0.929
260.578,628.035,-811.387,-0.362,-0.737,0.807
269.873,624.695,-811.896,-0.368,-0.592,0.816
267.072,618.683,-801.138,-0.633,-0.514,0.574
253.913,624.1,-812.267,-0.576,-0.498,0.454
266.958,623.737,-794.986,-0.751,-0.55,0.204
263.21,626.39,-789.814,-0.587,-0.626,0.284
251.156,634.916,-803.474,-0.641,-0.73,0.273
241.453,649.731,-816.526,-0.5,-0.715,0.417
255.486,648.053,-806.538,-0.747,-0.714,0.401
246.701,638.153,-805.035,-0.593,-0.729,0.499
249.631,625.637,-805.405,-0.889,-0.715,0.373
245.198,632.145,-809.596,-0.735,-0.56,0.565
248.294,643.608,-810.35,-0.852,-0.539,0.516
255.866,639.384,-808.688,-0.33,-0.702,0.484
263.354,623.197,-815.434,0.033,-0.748,0.364
253.631,633.206,-817.453,0.6,-0.967,0.394
262.542,626.702,-826.39,0.871,-0.928,0.398
264.503,620.134,-823.202,1.342,-0.882,0.478
273.529,633.73,-823.875,1.288,-0.749,0.331
269.258,626.054,-816.106,1.405,-0.765,0.342
245.677,626.375,-801.254,1.123,-0.8,0.335
260.637,639.243,-806.231,1.042,-0.808,0.422
256.72,627.815,-794.241,0.791,-0.893,0.361
261.517,624.464,-788.174,1.002,-1.065,0.575
265.934,621.194,-805.184,0.844,-1.168,0.383
248.535,622.362,-781.413,0.875,-1.234,0.332
273.672,637.65,-792.214,0.844,-1.206,0.187
251.722,622.683,-786.383,1.075,-1.327,0.249
248.487,630.116,-790.942,0.931,-1.295,0.143
246.294,644.22,-787.157,1.078,-1.439,0.087
260.382,622.95,-804.488,0.906,-1.449,-0.152
250.049,637.674,-809.904,0.867,-1.443,-0.153
258.042,622.004,-794.141,0.739,-1.399,-0.066
252.875,630.046,-804.935,1.034,-1.27,0.304
260.076,635.832,-798.964,1.265,-1.058,0.321
254.042,627.945,-812.472,1.752,-1.007,0.223
270.604,634.115,-807.453,1.873,-0.993,-0.084
260.566,594.288,-810.541,2.366,-1.065,-0.178
254.473,611.234,-810.123,2.54,-1.064,-0.22
268.186,629.12,-820.698,3.024,-1.103,-0.076
267.619,611.098,-828.965,2.902,-1.072,-0.15
270.177,622.051,-800.842,3.109,-0.94,-0.149
273.781,623.005,-821.478,2.836,-1.117,-0.558
265.406,637.41,-820.394,2.742,-1.159,-0.747
261.299,612.453,-817.695,2.225,-1.306,-1.085
265.591,633.125,-814.922,1.984,-1.351,-1.024
264.887,638.202,-801.343,1.475,-1.337,-1.083
279.164,632.09,-806.834,1.158,-1.308,-1.041
284.407,650.086,-823.892,0.492,-1.32,-1.26
244.879,641.524,-806.34,0.213,-1.339,-1.349
277.884,632.14,-797.011,-0.329,-1.286,-1.532
253.717,635.972,-802.277,-0.444,-1.34,-1.764
251.771,626.761,-799.489,-0.52,-1.31,-1.862
235.916,629.423,-808.436,0.039,-1.199,-1.857
260.891,633.859,-789.499,0.496,-1.122,-1.996
264.323,627.038,-794.597,1.187,-0.971,-1.955
267.172,628.969,-796.817,1.472,-0.716,-2.18
249.677,624.017,-819.665,2.012,-0.7,-2.149
253.096,630.999,-820.432,2.189,-0.564,-2.412
262.782,637.241,-823.369,2.515,-0.391,-2.428
261.675,629.321,-812.698,2.272,-0.246,-2.673
263.987,640.514,-821.565,2.0,-0.036,-2.736
260.335,647.349,-826.406,1.34,0.082,-3.008
266.144,658.456,-826.164,0.8,0.302,-3.036
261.273,649.251,-833.194,-0.047,0.572,-3.118
252.949,639.773,-828.272,-0.434,0.731,-3.029
233.509,649.153,-832.322,-1.028,0.828,-3.048
251.64,635.206,-828.069,-1.16,0.983,-3.084
254.262,632.235,-819.053,-1.542,1.086,-3.357
241.519,638.929,-825.029,-1.355,0.954,-3.345
261.948,639.459,-819.923,-1.587,0.953,-3.352
244.308,629.414,-808.139,-1.383,1.033,-3.218
245.331,626.493,-815.253,-1.661,0.995,-3.207
248.286,629.772,-801.285,-1.65,1.039,-3.095
245.659,655.371,-807.104,-1.947,1.02,-3.103
253.788,648.622,-800.192,-1.906,1.031,-2.815
245.869,655.739,-802.303,-2.03,0.991,-2.653
249.215,631.69,-805.325,-1.732,1.006,-2.493
250.424,642.337,-816.071,-1.665,0.844,-2.438
258.817,653.983,-805.968,-1.312,0.933,-2.167
246.14,607.52,-796.759,-1.195,0.805,-2.156
267.328,634.112,-794.536,-0.85,0.634,-1.859
254.291,623.017,-820.462,-0.669,0.48,-1.918
234.077,623.1,-812.146,-0.081,0.468,-1.713
256.953,617.173,-790.141,0.243,0.406,-1.646
250.269,608.182,-810.715,0.774,0.288,-1.479
262.597,622.884,-801.531,1.036,0.177,-1.46
236.977,609.28,-775.879,1.475,-0.159,-1.339
247.153,610.029,-801.448,1.623,-0.534,-1.331
264.191,614.623,-802.377,1.758,-0.657,-1.302
259.24,629.331,-807.651,1.799,-0.787,-1.492
250.416,636.466,-797.012,1.875,-0.725,-1.279
258.043,636.041,-789.202,1.397,-0.817,-1.331
257.309,622.721,-791.696,1.153,-0.919,-1.3
268.092,629.507,-801.336,0.548,-0.88,-1.17
256.797,633.157,-802.835,0.237,-0.848,-1.006
231.966,624.738,-799.494,-0.314,-0.863,-0.997
247.461,623.883,-794.396,-0.537,-0.865,-0.984
241.053,616.061,-799.998,-0.888,-0.941,-1.137
245.387,626.979,-793.659,-0.747,-0.928,-1.179
260.396,635.174,-806.977,-0.733,-0.953,-1.283
237.077,629.348,-802.407,-0.445,-0.915,-1.144
255.163,623.427,-821.309,-0.585,-0.814,-1.287
232.068,615.807,-813.507,-0.503,-0.756,-1.396
261.986,622.079,-831.079,-0.612,-0.659,-1.689
267.969,615.976,-839.325,-0.131,-0.68,-1.614
253.073,620.275,-812.546,0.124,-0.56,-1.74
248.889,616.025,-829.414,0.834,-0.442,-1.616
246.475,606.635,-828.332,1.641,-0.293,-1.482
268.355,617.404,-823.643,2.42,-0.176,-1.431
241.817,600.491,-831.74,2.775,-0.124,-1.823
267.548,616.692,-819.089,3.357,0.108,-2.163
259.096,624.751,-815.726,3.55,0.077,-2.399
248.873,636.194,-814.844,3.892,0.093,-2.306
271.434,665.854,-839.808,3.741,0.053,-2.28
244.651,656.206,-816.52,3.808,0.145,-2.254
239.431,660.126,-828.227,3.29,0.226,-2.376
253.71,627.903,-829.885,2.899,0.254,-2.443
234.437,666.932,-811.579,2.257,0.292,-2.554
242.139,650.319,-793.547,1.82,0.479,-2.451
225.53,650.173,-832.048,1.045,0.525,-2.53
227.789,653.953,-817.617,0.676,0.554,-2.613
244.888,650.897,-818.42,-0.02,0.595,-2.707
234.982,652.419,-807.513,-0.356,0.763,-2.719
244.876,644.524,-813.525,-0.996,0.752,-2.837
247.394,645.203,-824.548,-1.261,0.984,-2.71
247.887,661.258,-823.574,-1.855,1.165,-2.642
249.782,641.752,-813.26,-1.921,1.317,-2.506
246.742,639.764,-815.262,-2.261,1.668,-2.564
241.317,652.714,-834.446,-2.056,1.949,-2.432
258.507,627.158,-825.695,-2.215,2.117,-2.581
258.568,643.042,-821.408,-2.18,2.305,-2.482
251.889,631.618,-815.406,-2.397,2.43,-2.569
247.601,630.006,-829.666,-2.223,2.565,-2.576
244.688,656.436,-807.162,-2.443,2.712,-2.653
255.797,624.461,-810.036,-2.275,2.74,-2.493
252.163,651.033,-793.017,-2.388,2.674,-2.514
248.81,633.83,-814.292,-2.246,2.648,-2.37
251.34,635.831,-807.912,-2.53,2.564,-2.314
253.788,655.659,-814.28,-2.386,2.561,-2.196
252.473,642.557,-797.824,-2.712,2.455,-2.101
256.627,649.198,-800.808,-2.608,2.301,-1.958
246.454,646.046,-792.223,-2.937,2.023,-1.904
257.693,639.176,-796.204,-2.778,1.898,-1.726
252.961,638.224,-798.285,-2.973,1.737,-1.649
245.087,638.496,-797.03,-2.685,1.686,-1.268
242.994,637.92,-809.346,-2.609,1.608,-1.079
254.175,627.32,-798.079,-2.03,1.581,-0.83
240.202,643.773,-801.107,-1.905,1.657,-0.714
266.681,623.779,-799.186,-1.457,1.556,-0.447
237.059,644.605,-805.509,-1.552,1.574,-0.486
247.522,632.351,-814.642,-1.423,1.71,-0.375
244.784,633.268,-815.469,-1.756,1.763,-0.284
259.33,639.174,-801.664,-1.674,1.777,-0.09
253.097,656.772,-813.094,-2.106,1.845,0.087
261.47,667.084,-806.884,-2.524,1.901,0.328
246.254,638.616,-802.526,-3.31,1.768,0.277
247.987,649.284,-793.149,-3.423,1.636,0.41
244.445,634.565,-807.998,-3.733,1.611,0.282
267.987,617.197,-805.74,-3.599,1.392,0.359
238.165,626.992,-820.262,-3.602,1.421,0.253
255.463,628.745,-807.535,-3.276,1.489,0.134
248.685,622.123,-803.63,-3.109,1.564,0.21
250.327,623.423,-789.495,-2.45,1.502,0.43
263.283,636.504,-798.909,-2.096,1.475,0.453
242.996,619.076,-792.977,-1.532,1.371,0.458
247.717,626.493,-800.395,-1.376,1.303,0.213
255.913,626.595,-797.719,-0.986,1.119,0.167
254.487,623.077,-808.456,-0.847,1.182,0.031
236.864,614.669,-791.814,-0.562,1.211,0.106
262.584,618.25,-810.599,-0.544,1.346,0.07
248.963,611.949,-795.87,-0.212,1.211,0.07
247.898,613.415,-794.241,-0.356,1.141,0.026
259.358,606.207,-821.188,-0.21,0.916,-0.035
261.685,630.775,-815.505,-0.547,1.022,-0.244
262.364,638.715,-817.888,-0.565,1.05,-0.308
241.493,635.902,-809.825,-1.046,0.976,-0.344
258.402,639.155,-805.462,-1.317,0.944,-0.415
261.86,642.287,-820.268,-1.846,0.972,-0.588
251.721,660.164,-813.322,-2.033,1.003,-0.514
240.916,644.857,-804.806,-2.436,1.063,-0.5
249.746,628.892,-811.058,-2.424,1.312,-0.433
241.353,643.025,-804.753,-2.696,1.482,-0.532
259.371,619.643,-797.544,-2.541,1.587,-0.501
252.345,605.836,-816.923,-2.621,1.629,-0.897
260.4,634.45,-807.679,-2.365,1.538,-1.072
260.216,623.088,-814.806,-2.591,1.63,-1.238
256.233,620.259,-805.55,-2.312,1.712,-1.28
268.708,627.979,-809.699,-2.489,1.71,-1.34
260.477,631.947,-788.356,-2.444,1.835,-1.292
245.763,649.062,-808.289,-2.682,1.841,-1.234
260.748,641.02,-803.646,-2.565,1.814,-1.063
247.746,643.087,-823.54,-2.748,1.822,-1.038
240.874,644.609,-798.888,-2.55,1.901,-0.828
247.441,643.943,-801.19,-2.453,1.832,-0.77
240.019,631.011,-797.491,-1.983,1.835,-0.594
242.114,622.097,-794.081,-1.714,1.84,-0.544
245.606,629.766,-809.414,-1.261,1.732,-0.561
225.611,629.515,-804.986,-1.21,1.65,-0.758
240.215,621.235,-803.302,-0.747,1.478,-0.73
240.641,640.46,-800.276,-0.73,1.423,-0.65
249.284,632.135,-815.489,-0.648,1.391,-0.381
264.279,637.442,-821.474,-1.064,1.249,-0.617
252.803,639.588,-815.5,-1.271,1.109,-0.76
259.963,650.672,-795.775,-1.568,0.946,-0.814
255.341,645.907,-786.823,-1.517,0.719,-0.532
243.165,639.188,-791.138,-1.691,0.515,-0.32
245.065,642.159,-810.018,-1.533,0.454,-0.108
239.367,649.242,-809.994,-1.675,0.463,-0.048
254.228,637.659,-799.244,-1.477,0.377,-0.118
265.045,651.281,-811.238,-1.525,0.463,-0.176
251.825,635.344,-806.161,-1.181,0.377,0.137
254.914,627.129,-801.723,-1.049,0.314,0.183
258.727,624.712,-787.486,-0.687,0.312,0.233
263.375,633.978,-795.227,-0.645,0.321,0.022
256.095,628.21,-799.924,-0.294,0.296,-0.061
251.1,634.962,-797.139,-0.066,0.283,0.02
261.808,645.326,-804.288,0.416,0.476,0.291
271.608,651.016,-804.705,0.371,0.494,0.414
250.987,657.856,-789.048,0.307,0.422,0.602
257.596,662.186,-805.922,-0.188,0.385,0.488
251.426,651.385,-801.145,-0.433,0.222,0.629
260.755,668.707,-807.637,-0.864,0.114,0.578
275.484,650.897,-796.305,-0.913,0.115,0.882
235.972,649.455,-795.229,-1.284,0.19,0.952
258.382,635.22,-807.388,-1.588,0.037,0.873
263.4,652.655,-780.039,-2.166,-0.152,0.782
239.256,638.492,-803.138,-2.241,-0.258,0.857
248.684,649.075,-813.885,-2.625,-0.356,0.85
252.954,639.329,-809.09,-2.501,-0.278,0.974
252.724,654.462,-803.612,-2.755,-0.048,1.017
258.332,653.313,-815.32,-2.435,-0.042,1.156
241.454,644.734,-800.669,-2.493,0.012,1.195
257.519,634.803,-807.747,-1.88,-0.028,1.44
240.182,638.431,-808.652,-1.805,-0.051,1.344
233.935,620.903,-807.367,-1.227,-0.077,1.353
255.118,624.031,-809.278,-1.222,-0.099,1.2
264.501,641.642,-813.985,-0.932,-0.075,1.272
253.696,638.277,-809.674,-0.949,-0.033,1.273
248.759,620.934,-820.174,-0.952,-0.092,1.181
258.853,652.927,-803.045,-1.325,-0.047,0.955
254.5,633.503,-784.307,-1.37,-0.153,0.78
257.657,626.073,-782.977,-1.65,-0.17,0.628
264.599,627.299,-810.308,-1.324,-0.233,0.852
257.205,636.867,-788.11,-1.404,-0.233,0.819
251.597,622.58,-805.11,-1.069,-0.111,0.768
256.982,609.135,-809.52,-1.096,0.0,0.646
257.153,638.179,-790.403,-0.895,-0.105,0.687
254.318,645.425,-799.925,-0.838,-0.15,0.705
261.097,627.243,-782.242,-0.592,-0.09,0.795
238.539,647.342,-807.251,-0.641,0.03,0.739
248.593,646.054,-801.215,-0.468,0.145,0.82
255.203,641.536,-804.955,-0.545,0.263,0.721
254.44,643.778,-829.289,-0.438,0.258,0.832
260.192,641.986,-805.991,-0.957,0.202,0.719
261.982,652.676,-840.806,-1.198,0.245,0.764
259.529,656.265,-838.533,-1.641,0.386,0.741
260.907,680.685,-834.844,-1.854,0.552,0.787
259.519,651.307,-818.382,-2.399,0.767,0.625
254.605,640.833,-817.604,-2.481,0.742,0.747
267.27,631.327,-803.885,-2.65,0.741,0.807
259.321,623.729,-802.585,-2.383,0.7,0.988
254.572,640.573,-790.388,-2.27,0.852,0.917
245.533,626.904,-804.222,-1.542,0.92,1.074
257.677,619.658,-786.978,-0.908,1.043,1.072
236.538,638.004,-791.772,-0.287,1.089,1.276
244.12,629.172,-792.807,-0.116,1.157,1.282
237.618,619.606,-776.584,0.329,1.074,1.276
222.899,643.595,-774.737,0.387,0.924,1.147
238.145,643.296,-763.905,0.6,0.742,1.321
252.561,650.523,-787.56,0.327,0.674,1.429
255.301,649.165,-782.083,0.188,0.283,1.736
247.745,648.454,-796.507,-0.179,0.102,1.742
261.933,652.867,-802.504,-0.194,-0.14,1.817
275.864,636.836,-798.977,-0.555,-0.257,1.951
256.722,639.857,-806.356,-0.506,-0.376,1.977
273.151,639.223,-820.106,-0.721,-0.296,1.644
245.553,630.968,-796.391,-0.681,-0.55,1.472
275.929,630.883,-812.925,-0.837,-0.645,1.132
259.479,644.968,-812.435,-0.639,-0.695,1.186
272.684,637.606,-802.466,-0.597,-0.779,1.247
262.287,639.371,-802.28,-0.256,-0.768,1.409
248.86,649.996,-805.299,-0.355,-0.769,1.263
266.703,655.762,-793.601,-0.307,-0.772,1.165
276.806,636.807,-780.077,-0.583,-0.742,1.126
268.314,652.536,-797.875,-0.364,-0.836,1.303
255.76,646.851,-779.991,-0.495,-0.857,1.332
261.672,640.221,-775.096,-0.175,-0.783,1.373
246.615,627.538,-798.03,-0.179,-0.611,1.179
247.322,651.734,-790.756,-0.02,-0.537,1.123
252.047,626.895,-783.45,-0.251,-0.523,1.007
250.087,654.885,-783.063,-0.257,-0.629,0.989
260.138,640.708,-777.56,-0.49,-0.741,0.875
264.95,646.197,-790.045,-0.544,-0.748,0.947
260.389,648.78,-794.404,-0.989,-0.731,0.86
241.944,629.461,-795.553,-0.973,-0.707,0.949
263.425,648.716,-792.412,-1.1,-0.6,0.896
239.172,619.701,-807.591,-0.801,-0.566,0.901
246.773,628.947,-813.887,-0.814,-0.539,0.771
237.543,635.059,-821.331,-0.584,-0.49,0.752
246.091,626.626,-815.875,-0.504,-0.442,0.671
243.436,617.912,-790.011,-0.219,-0.4,0.877
251.922,633.445,-811.66,-0.158,-0.311,0.855
244.265,626.131,-784.833,0.293,-0.306,0.871
273.742,641.214,-809.285,0.229,-0.307,0.809
252.128,629.754,-809.822,0.475,-0.446,0.937
265.651,641.154,-789.241,0.538,-0.444,0.838
271.814,646.372,-792.006,1.121,-0.429,0.922
251.374,636.331,-809.808,1.469,-0.573,1.015
254.437,630.545,-793.741,1.786,-0.589,1.24
252.456,648.828,-820.157,1.679,-0.866,0.982
265.202,638.204,-793.458,2.003,-0.871,0.98
242.858,640.888,-773.282,1.735,-1.17,0.699
249.493,642.396,-770.984,1.905,-1.385,0.717
263.74,641.316,-791.229,2.122,-1.508,0.745
258.195,643.1,-806.577,2.517,-1.715,0.778
259.305,633.13,-793.827,2.537,-1.85,0.673
246.949,638.8,-806.547,2.752,-1.994,0.842
260.951,650.78,-808.494,2.628,-2.15,0.779
251.501,641.373,-812.993,2.744,-2.121,0.838
246.422,637.057,-805.457,2.392,-2.047,0.647
266.36,629.036,-806.106,2.375,-2.073,0.595
239.882,631.796,-801.112,2.207,-2.182,0.62
240.02,655.517,-810.732,2.355,-2.318,0.792
261.99,652.351,-825.557,2.114,-2.149,0.967
278.938,627.295,-818.42,2.145,-1.987,1.221
256.115,640.902,-810.127,1.979,-1.854,1.008
262.992,631.191,-813.013,2.159,-1.829,0.605
279.764,629.72,-818.371,1.895,-1.721,0.204
266.142,645.67,-804.997,1.928,-1.639,-0.008
251.961,658.291,-817.429,1.707,-1.445,-0.195
241.63,643.207,-817.549,1.626,-1.229,0.153
250.644,660.883,-805.653,1.31,-1.248,0.254
259.659,653.971,-789.266,1.251,-1.299,0.548
256.989,652.824,-802.8,0.781,-1.238,0.579
233.601,642.742,-801.908,0.516,-1.36,0.611
267.174,654.94,-811.553,-0.041,-1.314,0.549
279.975,646.48,-817.834,-0.13,-1.247,0.588
266.224,645.941,-792.058,-0.371,-1.347,0.528
248.722,626.851,-803.538,-0.347,-1.437,0.551
260.003,639.306,-805.969,-0.565,-1.383,0.422
269.156,642.644,-802.191,-0.253,-1.33,0.57
271.587,632.891,-787.764,-0.036,-1.31,0.672
253.296,634.674,-793.144,0.485,-1.346,0.868
272.339,634.415,-786.137,0.649,-1.361,0.729
261.511,623.372,-784.813,1.375,-1.438,0.602
262.619,634.433,-799.914,1.591,-1.466,0.685
270.575,631.742,-797.07,2.229,-1.54,0.994
274.336,632.082,-801.52,2.326,-1.429,1.097
266.377,627.267,-797.411,2.699,-1.392,1.264
254.74,650.444,-800.864,2.465,-1.284,1.065
255.429,640.522,-799.501,2.441,-1.196,0.958
265.927,661.806,-804.913,1.97,-1.093,1.035
260.694,635.879,-802.831,1.885,-1.256,1.317
273.522,660.975,-817.165,1.403,-1.318,1.371
269.393,654.737,-814.068,1.101,-1.33,1.513
249.099,658.086,-799.596,0.42,-1.241,1.474
277.437,658.859,-810.192,0.245,-1.159,1.618
261.129,655.945,-809.063,-0.121,-1.154,1.64
271.763,641.179,-815.472,0.056,-1.094,1.684
262.243,645.265,-831.639,-0.076,-1.027,1.494
270.216,655.392,-823.388,0.084,-0.84,1.536
249.733,635.039,-823.56,-0.069,-0.851,1.373
260.309,636.841,-810.08,0.034,-0.815,1.356
272.604,648.302,-800.338,-0.247,-0.74,1.237
265.82,635.246,-802.294,-0.311,-0.716,1.233
275.708,654.447,-812.565,-0.48,-0.683,1.111
263.981,629.521,-809.891,-0.211,-0.433,1.301
281.584,627.453,-832.385,-0.156,-0.134,1.251
254.981,617.643,-795.95,0.298,0.027,1.42
252.852,634.474,-808.245,0.384,0.293,1.17
262.126,623.128,-824.942,0.846,0.383,0.956
261.37,620.034,-806.943,0.97,0.455,0.568
261.505,644.697,-787.368,1.34,0.368,0.59
258.695,634.893,-800.597,1.253,0.467,0.608
240.996,639.44,-804.642,1.254,0.458,0.818
251.64,631.311,-801.066,0.832,0.466,0.702
250.878,636.609,-793.187,0.81,0.327,0.769
259.684,631.35,-804.79,0.633,0.339,0.604
247.183,628.914,-804.91,0.744,0.343,0.749
253.953,622.054,-801.277,0.503,0.383,0.761
253.315,635.47,-794.748,0.657,0.55,0.686
249.608,641.785,-801.318,0.343,0.551,0.469
244.303,633.003,-816.216,0.346,0.465,0.59
260.141,639.701,-791.983,0.352,0.454,0.814
240.336,643.628,-807.813,0.402,0.425,1.138
244.95,646.535,-797.986,-0.091,0.311,1.197
273.322,651.853,-810.941,-0.333,0.116,1.342
263.709,646.823,-805.636,-0.79,-0.132,1.269
259.075,644.276,-809.622,-0.674,-0.324,1.348
270.263,623.101,-807.818,-0.78,-0.38,1.285
251.428,627.033,-797.252,-0.473,-0.464,1.303
257.308,624.446,-817.319,-0.267,-0.445,0.988
253.722,632.951,-787.957,0.232,-0.386,0.942
263.3,616.193,-809.104,0.477,-0.387,0.853
272.519,624.582,-805.662,1.065,-0.468,1.02
248.581,631.268,-802.539,1.223,-0.557,1.049
250.312,633.635,-794.733,1.642,-0.578,1.158
271.085,618.589,-785.025,1.627,-0.655,0.973
247.465,624.371,-796.741,1.833,-0.775,0.956
263.746,648.194,-806.212,1.654,-0.729,0.902
260.424,646.931,-784.464,1.831,-0.699,1.106
249.557,635.615,-803.958,1.793,-0.687,1.123
262.138,628.218,-792.327,2.073,-0.529,1.202
258.812,626.225,-805.843,1.888,-0.503,1.043
256.989,641.076,-805.702,1.809,-0.57,0.962
263.478,658.538,-814.207,1.35,-0.666,0.74
242.761,639.466,-817.045,1.183,-0.66,0.808
260.607,656.528,-817.986,0.867,-0.437,0.756
255.408,653.593,-832.008,0.725,-0.231,0.669
266.09,646.723,-820.994,0.23,-0.135,0.504
273.235,649.253,-824.8,0.166,-0.135,0.632
244.615,646.394,-821.286,-0.249,-0.073,0.472
243.227,626.604,-827.078,-0.309,0.101,0.409
268.859,636.112,-823.519,-0.769,0.218,0.386
264.2,641.333,-824.274,-0.757,0.293,0.496
264.845,626.833,-809.155,-1.083,0.343,0.36
258.315,633.788,-818.658,-0.962,0.412,0.409
250.023,631.641,-805.34,-0.925,0.478,0.315
264.315,632.219,-814.969,-0.58,0.53,0.336
260.25,629.96,-793.321,-0.459,0.678,0.432
251.612,635.352,-799.409,-0.076,0.649,0.556
260.329,625.259,-789.637,-0.117,0.585,0.685
246.46,622.667,-815.451,0.114,0.446,0.897
229.529,632.238,-796.548,0.159,0.424,0.874
243.684,626.694,-789.013,0.394,0.35,1.02
242.557,619.08,-790.901,0.288,0.266,1.078
264.526,638.756,-803.547,0.735,0.123,1.12
240.326,627.783,-797.212,0.657,-0.058,1.071
252.91,616.824,-801.677,0.967,-0.172,1.127
263.317,624.176,-814.708,0.941,-0.264,1.087
256.498,628.192,-799.139,1.223,-0.466,1.027
248.653,625.143,-801.63,1.155,-0.521,1.048
253.353,635.124,-801.088,1.258,-0.581,1.145
266.193,651.69,-804.677,0.965,-0.773,1.098
271.222,638.611,-813.144,1.064,-0.711,1.092
268.281,636.759,-818.425,1.076,-0.703,1.033
257.337,627.423,-820.803,1.298,-0.754,1.159
256.944,642.436,-822.381,1.094,-0.587,1.075
254.29,637.838,-800.38,1.259,-0.717,0.979
253.866,632.582,-810.507,0.99,-0.716,0.817
246.394,644.606,-821.419,0.882,-0.827,0.828
252.32,646.683,-814.816,0.574,-0.795,0.708
257.938,654.01,-806.233,0.504,-0.687,0.79
251.671,628.137,-810.32,0.096,-0.793,0.677
251.871,633.064,-819.75,0.178,-0.805,0.67
253.587,636.608,-800.578,-0.186,-0.834,0.489
248.58,632.017,-813.159,-0.254,-0.716,0.622
260.558,611.815,-799.764,-0.342,-0.613,0.684
254.491,615.116,-795.35,-0.107,-0.62,0.744
243.914,619.867,-800.754,-0.178,-0.654,0.552
271.955,624.856,-802.798,0.441,-0.545,0.522
265.693,634.324,-794.031,0.675,-0.634,0.405
243.342,637.695,-794.082,1.267,-0.668,0.611
243.937,635.808,-796.755,1.427,-0.758,0.611
270.493,652.36,-788.039,1.457,-0.917,0.691
265.232,638.735,-800.422,1.205,-1.0,0.562
250.154,638.046,-788.843,1.152,-1.06,0.726
253.625,639.785,-800.93,0.708,-1.244,0.786
245.919,651.112,-817.58,0.501,-1.377,0.843
254.481,646.063,-801.938,0.095,-1.305,0.81
258.172,638.477,-815.551,0.071,-1.36,0.823
258.756,640.664,-806.881,-0.107,-1.444,0.904
257.494,633.452,-803.942,0.18,-1.517,0.985
270.399,630.421,-816.532,0.236,-1.51,0.923
264.707,627.989,-807.478,0.816,-1.43,0.879
281.469,609.924,-819.961,0.947,-1.389,0.782
254.206,620.399,-801.709,1.659,-1.555,0.932
263.452,628.877,-825.083,2.163,-1.458,1.082
251.811,619.243,-820.133,2.542,-1.644,1.33
263.443,614.253,-813.004,2.624,-1.612,1.052
267.349,627.6,-792.553,2.888,-1.587,1.046
266.021,625.521,-808.75,2.889,-1.556,1.116
266.742,626.448,-797.993,2.94,-1.436,1.351
268.445,635.742,-805.403,2.652,-1.417,1.214
253.146,634.073,-785.502,2.542,-1.445,1.301
246.179,644.923,-805.306,1.975,-1.411,1.267
262.269,637.64,-798.999,1.77,-1.389,1.427
259.848,635.769,-802.326,1.309,-1.461,1.432
267.926,631.844,-809.3,1.16,-1.398,1.441
259.677,636.128,-811.223,0.884,-1.319,1.381
264.327,648.495,-826.927,0.724,-1.374,1.396
262.798,634.416,-828.01,0.318,-1.357,1.297
264.014,640.906,-840.685,0.196,-1.296,1.32
256.495,646.952,-832.491,-0.288,-1.243,1.159
277.531,641.905,-828.51,-0.45,-1.178,1.268
264.992,642.684,-820.566,-0.758,-1.049,1.363
240.836,640.042,-813.621,-0.671,-0.95,1.558
278.488,635.018,-823.474,-0.706,-0.723,1.619
255.645,623.903,-793.362,-0.419,-0.712,1.639
265.6,615.713,-804.257,-0.406,-0.742,1.493
262.096,632.036,-801.145,-0.066,-0.722,1.475
262.614,608.974,-819.816,-0.012,-0.665,1.423
268.168,631.926,-803.17,0.408,-0.582,1.419
255.927,628.012,-813.382,0.356,-0.584,1.33
250.294,630.434,-804.134,0.512,-0.581,1.418
260.725,632.24,-807.971,0.227,-0.554,1.33
261.136,620.451,-811.352,0.089,-0.481,1.301
238.126,640.947,-816.983,-0.139,-0.451,1.183
240.438,628.082,-799.181,0.007,-0.607,1.424
256.197,635.952,-796.433,-0.067,-0.763,1.505
255.796,645.474,-789.736,0.094,-1.121,1.707
241.752,625.356,-794.524,-0.189,-1.277,1.678
237.723,615.847,-796.988,-0.098,-1.495,1.753
260.817,610.859,-803.721,-0.271,-1.707,1.676
272.755,607.845,-812.502,-0.079,-1.902,1.72
266.573,608.557,-804.808,-0.058,-2.115,1.674
254.086,627.491,-803.675,0.385,-2.156,1.68
275.748,617.164,-824.199,0.453,-2.184,1.444
252.548,627.766,-813.974,0.912,-2.295,1.429
257.211,636.922,-786.814,1.092,-2.416,1.293
257.728,636.342,-801.154,1.614,-2.582,1.489
260.508,629.179,-816.231,1.877,-2.596,1.505
262.908,638.537,-794.455,2.261,-2.615,1.507
256.121,621.581,-794.782,2.12,-2.602,1.196
240.398,626.448,-803.69,2.143,-2.68,0.959
268.298,628.53,-810.587,1.847,-2.642,0.697
280.048,630.814,-804.016,1.865,-2.573,0.59
254.449,643.025,-807.752,1.552,-2.596,0.453
249.578,624.065,-793.062,1.497,-2.534,0.539
247.676,620.959,-804.752,1.071,-2.529,0.512
255.795,632.397,-810.443,0.849,-2.464,0.49
254.905,649.513,-817.258,0.292,-2.394,0.4
262.538,651.535,-812.296,-0.059,-2.256,0.464
261.618,632.368,-834.351,-0.53,-2.108,0.466
256.381,640.087,-834.336,-0.563,-1.864,0.693
276.539,633.537,-823.676,-0.655,-1.51,0.647
240.189,627.289,-823.427,-0.344,-1.435,0.833
255.911,643.808,-819.148,-0.253,-1.308,0.686
264.936,630.454,-814.543,0.367,-1.119,0.678
252.867,637.206,-830.452,0.589,-0.912,0.681
253.702,626.724,-815.653,1.071,-0.868,0.83
261.884,646.443,-809.573,1.148,-0.815,0.752
244.781,636.497,-815.564,1.371,-0.827,0.861
257.477,649.437,-804.61,1.05,-0.659,0.942
269.529,652.417,-813.475,0.88,-0.634,1.056
261.337,637.041,-813.977,0.515,-0.552,1.077
246.749,616.579,-822.362,0.463,-0.489,1.233
251.767,626.345,-802.886,0.192,-0.499,1.219
253.87,623.391,-796.022,0.054,-0.453,1.291
251.586,635.515,-813.359,-0.307,-0.421,1.195
261.939,641.983,-828.537,-0.407,-0.543,1.298
262.167,634.869,-806.867,-0.816,-0.649,1.374
265.277,629.014,-800.461,-0.961,-0.615,1.59
255.926,612.058,-825.57,-1.303,-0.6,1.44
260.33,625.19,-813.014,-1.292,-0.519,1.369
275.34,613.231,-824.618,-1.402,-0.544,1.223
265.593,629.18,-830.23,-0.997,-0.502,1.29
238.381,602.464,-813.077,-0.666,-0.52,1.237
246.208,610.146,-818.702,-0.012,-0.465,1.194
243.605,620.33,-801.182,0.444,-0.451,1.264
249.83,618.712,-814.545,1.168,-0.508,1.273
251.154,623.936,-785.14,1.428,-0.492,1.136
261.635,630.128,-815.072,1.957,-0.492,1.248
263.307,627.564,-807.096,2.052,-0.447,1.273
268.61,619.579,-823.913,2.294,-0.551,1.387
255.016,626.068,-792.729,2.172,-0.528,1.369
253.738,619.763,-814.849,2.069,-0.421,1.422
261.03,649.345,-807.839,1.458,-0.553,1.194
259.659,640.354,-812.932,1.24,-0.596,1.16
262.079,642.516,-812.276,0.6,-0.546,1.128
271.386,612.252,-811.356,0.302,-0.551,1.097
277.074,657.824,-838.629,-0.224,-0.473,0.977
278.823,623.463,-817.534,-0.559,-0.568,0.873
251.884,633.741,-812.681,-0.952,-0.54,0.674
269.27,626.968,-819.522,-0.864,-0.445,0.635
255.214,629.991,-830.426,-1.073,-0.379,0.434
260.698,615.479,-812.715,-0.834,-0.313,0.352
265.355,631.103,-809.231,-0.936,-0.231,0.239
259.582,614.212,-808.927,-0.753,-0.159,0.255
265.551,605.944,-814.063,-0.63,-0.186,0.064
259.721,617.377,-806.79,-0.02,0.037,0.314
255.218,610.255,-826.326,0.402,0.145,0.252
255.211,616.6,-810.025,1.119,0.291,0.348
249.264,624.564,-812.472,1.541,0.331,-0.019
248.3,612.985,-799.212,2.098,0.291,-0.096
258.822,637.447,-803.471,2.096,0.243,-0.358
241.041,643.774,-796.567,2.291,0.253,-0.198
247.738,641.664,-804.549,1.915,0.136,-0.23
273.144,647.326,-795.421,1.577,0.119,-0.123
257.907,641.493,-811.308,1.052,0.113,-0.186
264.708,659.541,-804.076,0.718,0.039,-0.148
250.975,646.651,-810.153,0.192,0.057,-0.23
250.133,641.05,-819.755,0.046,-0.07,-0.083
268.734,625.081,-814.075,-0.349,-0.14,-0.137
258.75,637.13,-823.776,-0.355,-0.05,-0.09
261.831,636.318,-824.308,-0.676,-0.09,-0.335
266.416,622.649,-815.777,-0.537,-0.07,-0.335
266.211,620.064,-829.085,-0.777,-0.098,-0.514
255.454,628.577,-816.05,-0.51,-0.011,-0.516
253.037,634.743,-814.707,-0.665,-0.055,-0.561
253.389,642.472,-812.631,-0.657,0.025,-0.34
268.589,638.451,-819.024,-0.728,0.052,-0.299
247.926,653.319,-809.99,-0.518,0.099,-0.229
259.811,610.765,-827.208,-0.56,0.313,-0.139
238.018,622.616,-818.203,-0.273,0.402,0.013
254.475,629.631,-805.964,-0.115,0.404,0.093
248.257,623.221,-816.895,0.452,0.805,0.225
260.117,613.832,-813.358,0.624,0.991,0.06
257.843,608.748,-817.562,1.017,1.292,0.112
246.359,636.924,-825.229,0.97,1.409,0.006
268.631,639.177,-818.168,0.997,1.459,-0.02
247.796,648.618,-819.049,0.735,1.64,-0.107
255.593,638.851,-818.245,0.512,1.61,-0.026
265.786,647.564,-825.165,-0.32,1.562,0.073
263.327,655.87,-817.271,-0.824,1.563,0.23
269.653,629.04,-820.481,-1.585,1.606,0.227
257.467,637.738,-817.086,-1.929,1.747,0.368
269.802,640.673,-818.116,-2.407,1.682,0.367
250.059,644.173,-816.593,-2.557,1.679,0.466
272.252,624.138,-813.981,-2.719,1.677,0.349
252.644,629.789,-800.849,-2.549,1.674,0.352
264.127,607.064,-807.498,-2.656,1.721,0.377
242.882,627.364,-802.624,-2.227,1.789,0.508
254.594,626.429,-787.125,-1.771,1.803,0.737
229.115,630.769,-785.379,-0.954,1.565,1.006
265.842,618.782,-790.882,-0.668,1.346,1.007
254.857,618.09,-784.451,-0.09,1.249,0.892
262.134,611.873,-805.936,-0.04,1.047,0.94
267.021,637.613,-803.508,0.232,0.814,1.118
252.052,616.873,-803.838,0.081,0.689,1.119
246.674,611.519,-814.567,0.261,0.696,1.233
271.665,615.175,-815.074,0.192,0.566,1.145
249.144,634.158,-817.535,0.244,0.492,1.035
233.811,614.066,-828.851,0.145,0.638,0.8
248.998,622.357,-816.991,0.438,0.606,0.779
271.214,621.031,-823.119,0.492,0.362,0.637
255.916,630.571,-807.643,0.807,0.105,0.664
249.98,629.339,-814.717,0.637,0.142,0.564
247.957,619.572,-817.436,0.569,0.149,0.645
251.705,631.357,-818.577,0.097,0.236,0.537
262.225,629.023,-802.719,0.051,0.243,0.592
258.144,630.84,-817.352,-0.284,0.252,0.496
242.129,619.21,-802.616,-0.359,0.257,0.452
249.273,628.275,-803.493,-0.567,0.271,0.18
272.976,611.963,-813.733,-0.38,0.332,0.191
247.132,628.623,-798.623,-0.565,0.339,0.016
263.114,628.719,-818.866,-0.337,0.279,0.065
260.186,630.675,-785.74,-0.463,0.324,-0.031
260.931,650.366,-791.984,-0.354,0.368,0.029
244.361,630.737,-812.551,-0.634,0.404,-0.008
249.512,633.25,-805.126,-0.549,0.527,0.297
266.628,629.611,-810.614,-0.721,0.704,0.385
260.488,621.907,-825.192,-0.682,0.646,0.433
268.516,623.466,-824.569,-0.836,0.69,0.32
264.482,610.874,-836.75,-0.605,0.743,0.317
244.957,626.832,-825.772,-0.669,0.819,0.129
247.755,608.748,-814.335,-0.23,0.991,0.223
249.533,622.888,-828.551,-0.178,1.053,0.292
261.397,643.893,-822.283,0.155,1.119,0.601
269.154,628.23,-822.469,0.239,1.163,0.676
246.436,635.421,-824.747,0.739,1.301,0.952
265.31,645.125,-823.214,0.796,1.298,1.067
235.509,625.785,-822.309,1.051,1.343,1.409
258.934,638.744,-817.175,0.734,1.443,1.382
248.742,623.959,-811.431,0.667,1.352,1.479
247.009,611.857,-802.508,0.186,1.249,1.451
259.188,622.999,-789.253,0.149,1.109,1.419
269.816,626.913,-807.53,-0.152,0.963,1.206
239.137,644.724,-799.89,-0.073,0.973,1.397
249.417,627.277,-793.658,-0.081,0.917,1.498
255.961,637.692,-801.947,0.097,0.745,1.751
252.308,637.618,-804.578,-0.157,0.634,1.508
246.601,639.645,-800.067,0.004,0.402,1.503
256.187,626.63,-800.546,0.054,0.317,1.422
256.215,615.645,-799.489,0.297,0.265,1.334
253.854,628.033,-789.99,0.161,0.26,1.195
249.231,619.107,-803.064,0.427,0.205,1.196
260.851,600.993,-812.572,0.385,0.217,1.109
275.712,623.822,-807.801,0.714,0.147,1.297
260.385,612.07,-816.033,0.739,0.035,1.26
270.636,622.808,-805.665,1.098,0.107,1.17
267.665,631.684,-829.596,1.092,0.054,0.954
261.211,631.512,-821.701,1.347,0.005,0.956
263.518,654.884,-839.412,1.075,0.044,0.805
259.763,641.221,-817.972,1.121,0.011,0.851
278.303,635.014,-812.011,0.778,-0.179,0.755
245.807,629.151,-800.755,0.775,-0.158,0.872
258.85,636.782,-801.994,0.539,-0.169,0.71
261.443,638.694,-794.911,0.643,-0.33,0.851
264.549,620.973,-791.438,0.457,-0.419,0.648
269.838,631.052,-815.125,0.595,-0.326,0.546
268.255,627.146,-807.236,0.616,-0.476,0.541
256.223,628.436,-800.778,0.773,-0.26,0.732
254.22,636.134,-794.825,0.686,-0.431,0.807
263.295,623.389,-812.793,0.9,-0.333,0.927
271.921,621.085,-800.75,0.739,-0.329,0.799
234.982,641.36,-797.886,0.669,-0.206,0.758
251.057,635.705,-817.349,0.144,-0.295,0.552
251.889,630.422,-803.074,0.123,-0.319,0.563
265.132,634.251,-823.057,-0.056,-0.374,0.42
249.287,645.274,-829.989,0.085,-0.349,0.459
267.76,629.141,-817.508,0.094,-0.321,0.442
271.317,622.449,-824.663,0.329,-0.141,0.616
282.115,631.974,-836.749,0.366,-0.159,0.546
250.112,629.624,-812.672,0.702,-0.27,0.639
249.44,629.001,-817.936,0.554,-0.431,0.559
235.258,623.794,-826.15,0.865,-0.45,0.53
264.887,619.889,-828.11,0.704,-0.315,0.424
266.943,625.896,-798.987,0.907,-0.469,0.521
245.095,623.161,-807.03,0.691,-0.582,0.425
260.891,617.57,-799.11,0.834,-0.702,0.51
241.35,619.961,-812.952,0.779,-0.732,0.338
264.948,640.504,-818.74,0.868,-0.891,0.483
270.394,643.144,-787.929,0.606,-0.948,0.388
267.269,650.888,-819.951,0.662,-1.035,0.411
262.285,620.477,-813.128,0.337,-0.958,0.279
254.826,623.761,-798.803,0.202,-0.804,0.417
274.895,636.309,-800.641,0.005,-0.967,0.445
264.164,615.4,-815.137,0.035,-0.804,0.333
245.745,627.624,-815.958,-0.087,-0.873,0.128
263.581,625.31,-803.186,0.387,-0.785,0.139
249.462,611.208,-806.74,0.486,-0.823,0.174
267.802,615.584,-806.79,0.865,-0.768,0.313
272.261,616.412,-825.021,0.776,-0.604,0.481
261.58,632.333,-822.87,0.958,-0.578,0.686
233.297,625.779,-832.609,0.847,-0.615,0.56
262.529,600.504,-849.208,0.942,-0.644,0.51
274.074,621.822,-824.401,0.788,-0.574,0.472
250.826,633.068,-820.416,0.696,-0.498,0.524
266.35,641.57,-803.824,0.334,-0.398,0.473
264.926,618.057,-806.467,0.219,-0.493,0.586
263.241,627.54,-818.197,-0.042,-0.63,0.478
257.815,631.271,-818.163,0.095,-0.699,0.58
260.743,641.054,-821.462,-0.123,-0.657,0.575
254.726,621.225,-817.672,-0.071,-0.741,0.642
243.31,636.325,-806.163,-0.239,-0.718,0.569
261.389,623.822,-815.93,-0.072,-0.79,0.614
267.945,614.828,-806.804,-0.285,-0.702,0.537
258.291,620.49,-835.01,0.041,-0.669,0.467
250.956,604.312,-797.817,0.064,-0.572,0.497
246.482,615.311,-812.97,0.612,-0.553,0.646
250.087,610.433,-819.58,0.562,-0.534,0.678
249.882,624.532,-810.251,0.719,-0.51,0.627
263.068,638.992,-815.99,0.287,-0.565,0.526
253.201,645.055,-813.054,0.15,-0.714,0.708
256.457,627.254,-809.175,-0.329,-0.802,0.74
252.597,632.383,-778.703,-0.405,-1.041,0.839
258.794,639.03,-801.435,-0.876,-1.235,0.724
263.366,636.39,-803.568,-0.692,-1.333,0.675
255.424,632.966,-810.345,-0.596,-1.434,0.641
271.658,607.192,-802.823,0.053,-1.524,0.714
250.508,626.187,-800.126,0.277,-1.692,0.565
267.111,624.748,-802.45,0.771,-1.731,0.7
269.785,611.257,-818.318,1.075,-1.828,0.729
254.558,612.844,-822.716,1.588,-1.85,0.73
256.729,604.209,-810.358,1.597,-1.824,0.553
270.466,617.127,-815.218,1.648,-1.861,0.258
260.047,624.727,-813.515,1.518,-1.932,0.03
261.249,614.131,-818.769,1.607,-1.991,-0.128
260.123,637.151,-818.08,1.304,-1.963,-0.234
248.86,613.011,-824.511,1.309,-1.922,-0.199
255.521,634.565,-816.898,0.896,-1.998,-0.366
268.078,629.633,-810.859,0.91,-1.921,-0.446
263.034,629.101,-805.286,0.725,-1.966,-0.564
237.934,618.697,-808.187,0.621,-1.897,-0.529
269.108,625.034,-817.695,0.183,-1.711,-0.671
260.461,628.612,-834.616,0.165,-1.614,-0.808
261.631,628.035,-818.393,-0.073,-1.499,-1.037
257.773,630.601,-829.414,-0.094,-1.316,-1.098
261.364,644.566,-836.069,-0.23,-1.135,-1.338
257.14,623.551,-815.878,-0.073,-0.975,-1.074
256.349,620.371,-839.953,-0.015,-0.767,-1.112
243.793,611.837,-845.578,0.302,-0.614,-1.081
265.09,621.974,-865.87,0.549,-0.462,-1.247
262.597,605.547,-845.719,0.971,-0.32,-1.246
284.717,623.661,-833.781,0.965,-0.054,-1.307
259.887,629.814,-847.055,0.919,0.125,-1.17
246.431,635.346,-826.682,0.489,0.197,-1.278
244.744,640.183,-830.973,0.216,0.207,-1.046
258.223,619.613,-825.051,-0.474,0.238,-1.055
267.945,638.522,-815.22,-0.668,0.342,-0.807
260.849,633.781,-819.44,-1.182,0.396,-0.852
255.314,621.551,-803.218,-1.524,0.497,-0.765
277.671,629.266,-796.351,-1.739,0.316,-0.698
267.986,614.267,-806.075,-1.605,0.27,-0.605
255.516,631.135,-811.381,-1.585,0.33,-0.519
246.978,630.98,-829.947,-1.104,0.34,-0.363
259.839,605.774,-810.226,-0.837,0.332,-0.351
263.825,617.981,-829.014,-0.14,0.407,-0.219
265.757,610.856,-811.473,0.103,0.513,-0.25
252.487,621.244,-799.714,0.557,0.449,-0.107
253.236,626.903,-816.159,0.704,0.33,-0.227
261.759,610.156,-805.955,0.916,0.208,-0.345
255.46,638.399,-814.503,0.779,0.187,-0.534
252.498,626.82,-827.406,0.762,0.195,-0.395
252.871,637.19,-813.183,0.502,0.347,-0.302
255.464,628.753,-824.941,0.41,0.175,-0.141
251.147,637.445,-820.923,-0.127,0.133,-0.273
267.443,645.385,-798.568,-0.348,0.097,-0.259
263.353,643.888,-805.172,-0.494,0.008,-0.193
265.779,620.275,-798.882,-0.365,0.004,0.094
238.639,628.123,-813.22,-0.59,-0.082,0.056
265.484,625.704,-807.849,-0.284,0.052,0.127
254.49,615.197,-826.14,-0.17,0.17,0.075
256.808,629.863,-820.987,0.238,-0.059,0.201
264.782,614.934,-817.966,0.184,-0.059,0.142
255.555,630.075,-812.019,0.56,-0.096,0.23
263.442,628.427,-794.949,0.315,-0.136,0.098
249.698,631.587,-806.987,0.28,-0.184,0.178
267.477,634.226,-809.594,-0.092,-0.084,0.113
258.9,625.613,-813.541,-0.087,0.01,0.316
258.031,634.293,-801.886,-0.374,0.064,0.41
259.095,608.44,-824.082,-0.474,0.094,0.453
245.074,615.539,-812.558,-0.745,0.179,0.394
246.54,608.743,-805.589,-0.65,0.176,0.339
261.726,616.739,-817.744,-0.637,0.273,0.152
254.243,628.725,-819.867,-0.218,0.411,0.24
263.874,628.718,-809.127,-0.208,0.434,0.16
262.412,628.39,-808.534,0.049,0.499,0.225
258.81,633.321,-821.683,-0.209,0.518,0.101
256.887,652.157,-815.653,-0.166,0.567,0.175
267.456,641.707,-823.791,-0.311,0.515,0.117
248.464,630.903,-814.159,-0.248,0.593,0.299
258.731,632.451,-822.706,-0.615,0.69,0.302
252.65,632.474,-817.062,-0.562,0.624,0.292
254.991,640.743,-819.181,-0.832,0.587,0.179
260.873,624.899,-800.386,-0.842,0.534,0.132
261.086,629.73,-813.885,-1.011,0.571,0.018
253.192,637.403,-814.694,-0.945,0.506,0.212
247.991,617.511,-817.578,-1.074,0.552,0.235
247.726,633.207,-823.53,-1.119,0.581,0.293
270.126,626.637,-816.168,-1.322,0.557,0.036
247.959,621.339,-815.19,-1.088,0.619,0.076
258.4,606.906,-831.449,-1.089,0.528,0.075
253.034,615.947,-819.615,-0.921,0.543,0.195
241.234,621.553,-806.287,-0.977,0.639,0.074
252.211,615.254,-825.339,-0.758,0.536,0.079
256.809,620.411,-805.471,-0.708,0.602,0.057
251.186,618.086,-810.843,-0.29,0.541,0.132
262.659,619.905,-817.91,-0.298,0.688,0.143
253.984,616.783,-808.803,0.064,0.533,0.328
247.647,642.856,-828.072,-0.07,0.528,0.381
258.708,624.541,-823.938,0.102,0.511,0.361
233.46,618.931,-814.225,-0.06,0.482,0.252
242.548,623.799,-815.172,-0.083,0.416,0.36
251.481,623.303,-824.304,-0.343,0.32,0.225
245.113,613.259,-799.793,-0.26,0.238,0.403
220.935,616.635,-812.548,-0.345,0.238,0.275
250.941,626.269,-816.278,-0.141,0.35,0.379
268.01,599.214,-816.484,-0.159,0.254,0.31
243.187,613.952,-816.47,0.176,0.242,0.378
240.618,607.108,-809.111,0.229,0.218,0.268
249.038,613.188,-805.031,0.466,0.15,0.268
261.088,599.315,-811.825,0.44,0.15,0.006
247.565,618.175,-812.512,0.698,0.025,-0.07
257.617,630.575,-815.161,0.559,0.067,-0.221
252.796,641.165,-820.093,0.676,0.086,-0.094
257.215,624.161,-805.878,0.384,-0.009,0.032
242.273,630.551,-817.908,0.32,0.116,0.151
262.377,619.227,-809.773,0.013,0.232,0.071
252.601,612.901,-812.515,0.129,0.214,0.106
240.323,631.61,-816.345,-0.129,-0.032,0.054
246.134,621.4,-806.515,0.261,-0.138,0.122
250.58,630.642,-798.092,0.324,-0.327,0.103
261.79,612.006,-803.521,0.669,-0.293,0.106
248.429,635.721,-798.281,0.611,-0.467,-0.089
260.052,625.169,-821.642,1.056,-0.417,-0.101
276.475,612.205,-818.243,1.201,-0.533,-0.306
265.243,614.842,-809.47,1.658,-0.556,-0.288
253.114,631.53,-829.932,1.701,-0.551,-0.46
258.511,635.625,-832.468,1.675,-0.526,-0.469
252.04,620.931,-801.812,1.399,-0.575,-0.713
266.943,627.745,-812.766,1.291,-0.738,-0.768
265.49,624.266,-822.695,0.968,-0.68,-0.835
252.305,617.708,-823.879,0.959,-0.536,-0.854
274.05,633.407,-824.405,0.704,-0.37,-1.046
252.371,625.781,-827.045,0.735,-0.328,-1.166
242.888,623.747,-806.159,0.454,-0.392,-1.438
254.921,617.368,-804.731,0.384,-0.379,-1.575
253.089,628.398,-813.678,0.239,-0.395,-1.665
247.043,653.71,-815.178,0.554,-0.271,-1.449
252.698,616.127,-806.4,0.383,-0.208,-1.469
263.832,636.066,-816.086,0.474,-0.145,-1.429
269.005,627.335,-817.935,0.142,0.079,-1.573
260.024,644.121,-834.868,0.201,0.175,-1.548
269.84,661.168,-824.42,-0.1,0.166,-1.666
275.57,646.832,-819.92,-0.155,0.346,-1.738
270.323,641.681,-834.202,-0.395,0.422,-1.72
255.846,646.138,-809.007,-0.399,0.479,-1.64
276.056,651.998,-813.209,-0.734,0.6,-1.614
263.066,643.585,-828.029,-0.621,0.777,-1.538
245.757,633.34,-823.111,-0.834,1.0,-1.464
258.92,643.07,-840.013,-0.857,1.074,-1.49
245.621,625.037,-818.021,-1.151,1.169,-1.692
256.416,634.192,-821.663,-1.126,1.219,-1.561
248.255,630.78,-827.854,-1.334,1.34,-1.539
262.106,621.859,-828.133,-1.3,1.398,-1.39
259.518,649.066,-829.279,-1.676,1.581,-1.443
248.087,642.385,-824.18,-1.741,1.643,-1.348
263.672,638.946,-816.025,-2.047,1.542,-1.341
249.867,635.414,-804.704,-1.899,1.598,-1.014
244.557,633.405,-816.344,-1.841,1.507,-0.901
236.819,621.084,-799.965,-1.526,1.259,-0.631
251.448,619.12,-804.464,-1.568,1.188,-0.653
258.517,615.12,-804.097,-1.319,1.141,-0.594
256.061,631.039,-800.418,-1.407,1.103,-0.554
263.895,632.931,-814.746,-1.142,0.986,-0.312
272.083,621.066,-799.966,-1.13,0.869,-0.098
234.505,639.546,-815.179,-0.915,0.76,0.238
266.09,627.609,-827.894,-1.012,0.793,0.411
253.726,632.007,-812.901,-0.902,0.75,0.5
258.96,622.686,-812.975,-0.963,0.582,0.392
253.607,628.451,-804.277,-0.836,0.552,0.396
260.586,623.224,-812.431,-1.017,0.402,0.285
269.853,641.484,-826.045,-0.759,0.255,0.372
257.69,628.973,-798.824,-0.848,0.193,0.391
250.967,640.974,-815.598,-0.792,0.217,0.534
259.334,632.93,-818.903,-1.046,0.223,0.575
257.876,650.424,-813.267,-1.218,0.199,0.62
257.831,623.713,-820.811,-1.616,0.221,0.485
247.848,621.162,-816.134,-1.562,0.232,0.651
270.408,633.707,-823.19,-1.502,0.27,0.497
248.202,627.704,-803.867,-1.248,0.285,0.519
266.524,600.514,-808.141,-1.337,0.432,0.307
259.883,608.273,-816.327,-0.936,0.483,0.276
264.758,619.343,-828.417,-0.819,0.608,0.209
238.982,622.025,-830.628,-0.545,0.685,0.365
263.571,612.758,-817.746,-0.709,0.675,0.279
243.399,626.281,-801.454,-0.561,0.632,0.271
249.828,634.276,-812.119,-0.858,0.582,0.022
241.327,629.639,-810.476,-0.918,0.547,0.05
269.56,647.834,-821.648,-1.134,0.629,0.208
263.455,629.416,-795.624,-1.125,0.726,0.455
251.25,620.657,-822.745,-1.286,0.716,0.407
269.223,608.612,-803.842,-1.16,0.611,0.272
274.716,589.956,-808.793,-1.336,0.545,-0.034
248.967,615.07,-811.789,-1.02,0.52,-0.206
272.018,618.65,-822.921,-0.82,0.594,-0.38
242.326,618.889,-813.969,-0.408,0.708,-0.228
250.31,638.499,-816.52,-0.376,0.7,-0.388
270.454,635.555,-837.904,-0.108,0.649,-0.438
252.829,618.375,-807.545,-0.186,0.671,-0.593
268.291,612.965,-824.401,0.0,0.725,-0.574
271.835,620.763,-809.307,-0.288,0.774,-0.662
250.298,615.662,-808.387,-0.319,0.753,-0.752
255.418,625.847,-812.313,-0.615,0.732,-0.865
270.043,618.929,-781.726,-0.671,0.758,-0.847
266.437,620.085,-796.341,-0.802,0.656,-1.003
258.985,618.345,-809.277,-0.64,0.672,-0.838
261.001,625.922,-814.325,-0.561,0.579,-0.857
262.894,608.936,-826.597,-0.301,0.537,-0.817
252.952,614.085,-808.747,-0.49,0.502,-0.949
270.844,614.796,-812.948,-0.298,0.567,-0.925
254.18,627.503,-833.854,-0.569,0.568,-0.971
267.276,631.145,-830.521,-0.463,0.679,-0.911
250.414,621.704,-830.109,-0.739,0.615,-1.037
269.149,624.052,-823.41,-0.453,0.695,-0.858
255.515,621.922,-833.01,-0.266,0.668,-0.796
281.088,613.217,-813.767,0.119,0.66,-0.6
258.702,624.034,-795.54,0.163,0.683,-0.727
254.567,631.182,-807.182,0.524,0.666,-0.779
266.871,614.605,-811.441,0.531,0.68,-0.895
249.175,630.414,-831.821,0.703,0.763,-0.679
240.614,644.786,-812.521,0.567,0.733,-0.652
256.665,640.658,-807.448,0.575,0.762,-0.567
264.546,635.764,-804.384,0.145,0.761,-0.66
257.077,623.57,-817.999,0.049,0.843,-0.591
249.263,660.131,-832.836,-0.396,0.838,-0.526
250.164,623.235,-810.922,-0.439,0.765,-0.518
255.168,636.471,-832.157,-0.769,0.656,-0.49
261.388,635.584,-809.86,-0.881,0.751,-0.436
252.97,638.826,-797.556,-1.313,0.802,-0.667
255.649,635.03,-808.788,-1.087,0.961,-0.543
265.436,631.915,-804.679,-1.191,0.938,-0.487
255.933,636.737,-805.791,-0.809,1.074,-0.221
251.689,642.162,-811.283,-0.686,1.053,-0.269
247.483,614.598,-814.917,-0.236,1.14,-0.148
261.299,649.484,-805.995,-0.117,1.253,-0.142
256.941,636.172,-802.227,0.15,1.201,0.136
260.804,628.434,-815.776,0.013,1.151,0.274
261.044,635.52,-807.138,0.075,0.863,0.278
258.157,641.192,-788.037,-0.218,0.721,0.269
265.152,650.435,-805.485,-0.185,0.515,0.321
262.616,622.426,-809.327,-0.395,0.199,0.314
268.227,652.096,-803.071,-0.272,0.042,0.438
253.798,626.692,-803.253,-0.576,-0.099,0.435
248.947,640.433,-809.659,-0.556,-0.334,0.491
263.656,644.019,-800.211,-0.927,-0.574,0.426
258.162,637.548,-799.172,-0.71,-0.678,0.58
264.914,619.897,-795.541,-0.893,-0.782,0.538
247.392,628.54,-786.152,-0.635,-0.819,0.483
247.01,632.728,-792.426,-0.694,-0.903,0.353
249.513,621.586,-819.489,-0.193,-0.995,0.392
278.816,629.324,-813.112,-0.163,-0.849,0.423
257.249,620.82,-814.507,0.642,-0.965,0.517
251.765,634.335,-802.989,1.105,-0.8,0.557
265.17,618.079,-816.412,1.019,-0.765,0.498
263.374,624.21,-812.273,0.804,-0.591,-0.113
255.632,611.909,-817.723,1.061,-0.457,-0.033
254.965,639.942,-797.424,0.966,-0.687,0.032
255.585,639.442,-814.724,0.908,-0.557,0.222
263.521,638.462,-810.696,0.642,-0.441,0.156
239.968,641.938,-824.973,0.304,-0.284,0.301
248.733,645.456,-820.348,-0.405,-0.257,0.068
234.588,645.513,-824.253,-0.52,-0.225,0.326
255.885,655.042,-819.137,-0.767,-0.255,0.363
251.735,631.327,-804.4,-0.544,-0.077,0.435
255.926,634.853,-805.198,-0.715,0.107,0.235
259.047,639.368,-827.894,-0.492,0.118,0.227
268.862,625.2,-824.437,-0.483,0.35,0.033
257.53,621.363,-811.086,-0.308,0.451,0.193
262.783,647.514,-812.719,-0.646,0.491,0.093
259.335,627.108,-819.63,-0.584,0.587,0.129
247.822,630.303,-827.641,-1.166,0.539,-0.05
262.253,620.199,-822.846,-1.449,0.628,0.051
265.361,638.164,-819.834,-1.97,0.496,0.014
261.294,612.231,-814.14,-2.121,0.413,0.119
278.021,628.248,-805.531,-2.467,0.425,0.041
284.416,627.034,-838.71,-2.316,0.436,0.101
259.237,627.975,-825.515,-2.35,0.363,0.085
259.455,625.436,-806.173,-1.964,0.332,0.201
263.896,616.079,-804.856,-1.781,0.335,0.342
249.324,600.563,-805.907,-1.158,0.391,0.474
259.944,609.96,-800.608,-0.779,0.167,0.246
265.968,618.103,-826.632,0.048,0.192,0.236
250.41,598.89,-809.931,0.632,0.041,0.251
254.979,628.5,-810.356,1.439,-0.055,0.459
266.306,634.532,-802.138,1.681,-0.057,0.531
244.48,645.323,-809.864,1.765,-0.25,0.791
261.147,638.507,-785.324,1.566,-0.304,0.797
266.412,642.321,-807.713,1.286,-0.348,0.908
267.766,644.039,-808.516,0.626,-0.355,0.895
256.498,645.334,-799.818,0.102,-0.385,0.912
272.529,624.936,-814.394,-0.58,-0.466,0.699
269.854,637.868,-828.307,-0.764,-0.406,0.816
252.483,631.732,-835.956,-1.041,-0.096,0.723
253.193,634.204,-830.398,-1.125,0.119,0.768
277.036,617.764,-839.512,-1.415,0.244,0.453
264.242,631.454,-821.529,-1.249,0.455,0.274
266.021,616.237,-822.358,-1.15,0.647,0.116
253.789,619.552,-821.34,-0.711,0.689,0.168
270.409,606.475,-814.461,-0.708,0.986,-0.051
245.493,613.79,-796.953,-0.324,1.094,-0.149
279.031,624.288,-809.888,-0.139,1.15,-0.276
255.631,623.454,-815.937,0.214,1.181,-0.19
252.145,624.317,-816.725,0.053,1.25,-0.354
266.23,607.639,-824.328,0.02,1.28,-0.386
269.75,624.666,-813.606,-0.434,1.186,-0.712
266.743,640.379,-792.024,-0.568,1.148,-0.875
258.388,648.379,-805.319,-1.212,1.046,-1.037
272.536,634.184,-793.362,-1.215,0.97,-0.863
257.613,639.082,-789.47,-1.411,1.024,-0.802
256.837,612.76,-799.329,-1.305,0.923,-0.6
265.25,626.868,-794.064,-1.243,0.948,-0.608
265.461,597.829,-798.154,-0.635,0.848,-0.513
269.639,609.632,-800.412,-0.304,0.731,-0.68
262.95,607.311,-793.461,0.308,0.569,-0.759
272.292,604.629,-800.631,0.611,0.533,-1.055
273.772,619.698,-807.522,1.203,0.431,-1.016
281.861,630.502,-811.949,1.348,0.247,-0.926
265.101,642.963,-807.411,1.499,0.353,-0.661
259.849,653.485,-820.342,1.195,0.3,-0.605
260.685,635.688,-824.594,0.849,0.336,-0.537
262.958,627.613,-813.981,0.266,0.265,-0.639
286.93,661.403,-824.125,0.016,0.23,-0.624
242.535,627.659,-819.763,-0.447,0.3,-0.627
258.792,638.548,-811.123,-0.403,0.207,-0.48
257.332,605.215,-811.352,-0.672,0.181,-0.487
261.076,624.211,-805.769,-0.533,0.371,-0.462
261.301,638.495,-822.293,-0.661,0.502,-0.637
245.416,649.615,-812.325,-0.261,0.517,-0.589
267.422,634.966,-806.987,-0.266,0.612,-0.56
256.908,641.084,-808.817,0.074,0.637,-0.351
257.055,615.093,-802.648,-0.175,0.588,-0.241
246.14,642.545,-806.31,-0.101,0.568,-0.104
261.726,643.895,-817.42,-0.384,0.524,-0.248
257.005,635.526,-802.777,-0.256,0.719,-0.058
254.632,635.822,-804.082,-0.469,0.711,0.007
255.461,623.128,-828.66,-0.372,0.723,0.162
258.061,614.822,-801.054,-0.716,0.703,0.134
263.754,622.219,-813.828,-0.849,0.631,-0.016
250.326,621.0,-811.692,-0.919,0.737,-0.233
254.735,624.119,-821.77,-0.777,0.86,-0.027
261.132,641.405,-814.648,-0.843,0.753,0.012
255.136,608.497,-807.604,-0.538,0.749,0.248
263.266,625.345,-816.242,-0.605,0.827,0.185
257.245,632.509,-804.969,-0.288,0.826,0.183
249.876,631.482,-815.575,-0.165,0.955,-0.044
254.575,622.972,-804.629,0.286,0.834,-0.084
252.215,626.302,-807.258,0.424,0.764,-0.192
227.065,617.431,-811.223,0.763,0.777,-0.017
246.914,629.936,-802.864,0.582,0.738,0.06
249.528,640.222,-800.404,0.749,0.653,0.148
256.907,627.341,-793.827,0.215,0.674,0.037
255.053,636.616,-792.044,0.075,0.545,-0.02
251.357,648.444,-784.964,-0.344,0.493,-0.165
241.817,622.941,-807.316,-0.394,0.397,0.047
253.419,612.488,-803.331,-0.671,0.289,0.211
258.242,608.483,-792.733,-0.468,0.135,0.193
254.767,612.815,-801.79,-0.565,-0.078,-0.001
251.577,614.345,-796.357,-0.195,-0.271,-0.1
274.897,620.281,-814.553,-0.021,-0.458,-0.154
268.631,628.153,-821.933,0.495,-0.456,-0.05
255.168,630.267,-818.602,0.581,-0.384,-0.141
256.448,628.62,-825.067,1.061,-0.374,-0.202
275.168,630.476,-817.717,1.224,-0.346,-0.296
256.725,634.367,-821.961,1.38,-0.361,-0.268
276.271,640.335,-816.598,1.122,-0.381,-0.289
256.516,630.542,-808.561,0.93,-0.322,-0.316
261.785,635.252,-807.793,0.638,-0.361,-0.424
264.582,623.943,-812.878,0.564,-0.344,-0.301
269.919,639.464,-804.954,0.373,-0.302,-0.17
261.914,644.268,-814.556,0.644,-0.069,-0.01
263.54,632.046,-824.485,0.408,-0.012,-0.046
261.584,628.624,-827.18,0.426,-0.041,-0.059
261.824,618.047,-800.133,0.071,-0.023,-0.131
266.087,631.052,-806.661,0.116,-0.008,-0.012
246.023,626.857,-802.339,-0.12,0.096,0.011
259.899,647.75,-811.389,-0.015,0.187,0.173
277.367,638.977,-815.234,-0.237,0.31,0.257
257.887,644.864,-796.323,-0.013,0.396,0.54
267.697,630.98,-824.705,-0.195,0.477,0.523
253.719,634.276,-820.726,-0.092,0.573,0.61
275.131,639.922,-815.65,-0.473,0.584,0.577
264.686,650.219,-803.28,-0.653,0.584,0.788
252.251,649.914,-827.719,-1.306,0.555,0.718
270.637,627.083,-830.74,-1.453,0.8,0.924
260.295,627.774,-825.764,-1.909,0.841,0.99
267.115,628.685,-806.046,-1.881,0.897,1.149
260.242,620.171,-819.979,-2.048,0.814,0.997
253.577,624.987,-828.119,-1.389,0.71,1.123
260.93,618.227,-810.457,-1.194,0.647,1.289
278.159,616.249,-794.454,-0.57,0.666,1.48
249.652,619.594,-799.542,-0.449,0.565,1.402
250.124,628.099,-798.433,-0.054,0.41,1.548
251.223,631.648,-795.804,-0.002,0.446,1.599
262.557,638.827,-798.196,0.448,0.376,1.873
253.756,627.414,-803.896,0.35,0.334,1.758
248.343,617.049,-790.799,0.434,0.15,1.679
267.848,638.174,-813.508,0.334,-0.01,1.512
247.983,624.253,-800.402,0.479,-0.234,1.582
244.867,634.714,-794.985,0.394,-0.389,1.516
267.048,633.689,-811.25,0.393,-0.533,1.593
288.174,621.779,-797.351,0.093,-0.453,1.459
265.541,616.709,-820.585,0.377,-0.511,1.498
254.906,614.365,-811.757,0.414,-0.54,1.429
269.443,618.865,-801.833,0.824,-0.603,1.371
256.999,607.58,-810.852,0.739,-0.531,1.338
266.684,612.235,-799.546,1.002,-0.614,1.322
259.645,623.162,-801.553,1.045,-0.642,1.035
252.272,624.874,-822.459,1.362,-0.762,1.013
269.044,622.922,-800.207,1.405,-0.753,0.982
261.317,625.728,-796.155,1.506,-0.706,0.958
253.227,638.045,-819.291,1.308,-0.832,0.721
262.869,623.423,-803.744,1.427,-0.844,0.702
265.503,644.633,-797.748,1.363,-0.97,0.692
270.121,633.444,-789.076,1.579,-1.08,0.769
282.639,642.652,-803.768,1.205,-1.04,0.783
261.694,625.561,-804.134,1.141,-1.087,0.818
262.058,624.149,-807.728,0.821,-1.137,0.772
263.048,631.864,-816.222,0.706,-0.958,0.691
252.502,624.562,-804.938,0.25,-0.996,0.25
245.526,626.341,-819.659,0.324,-0.947,0.272
249.031,628.464,-815.864,0.245,-0.879,0.38
259.43,625.855,-811.517,0.574,-0.821,0.621
267.401,624.48,-814.287,0.374,-0.672,0.579
251.575,633.603,-812.7,0.432,-0.729,0.524
257.721,649.939,-810.829,0.37,-0.69,0.499
262.219,647.793,-816.457,0.564,-0.681,0.434
271.289,635.784,-810.774,0.427,-0.678,0.389
239.075,630.095,-809.241,0.701,-0.604,0.649
258.646,631.03,-813.332,0.703,-0.662,0.681
237.79,607.887,-811.827,0.802,-0.512,0.723
267.03,637.346,-803.902,0.683,-0.485,0.72
268.004,632.159,-811.149,0.854,-0.38,0.866
249.903,633.503,-814.672,0.8,-0.36,0.902
273.309,626.3,-808.285,0.963,-0.44,0.856
274.692,626.688,-815.809,0.9,-0.301,0.806
264.339,621.734,-815.013,1.158,-0.337,0.867
259.814,619.732,-807.693,1.058,-0.319,0.762
263.282,630.897,-798.882,1.175,-0.246,0.876
270.917,643.785,-816.377,0.928,-0.308,0.856
244.837,631.633,-793.531,0.898,-0.339,0.946
265.234,632.621,-802.048,0.412,-0.294,0.937
262.42,636.726,-802.23,0.204,-0.42,1.066
247.951,643.14,-802.442,-0.187,-0.578,1.006
255.635,621.965,-780.752,-0.119,-0.596,1.047
273.264,626.557,-797.774,-0.302,-0.696,0.88
263.097,631.041,-809.605,-0.261,-0.696,0.948
267.342,614.394,-818.82,-0.306,-0.697,0.884
263.747,646.87,-812.941,0.012,-0.549,0.992
264.198,643.439,-804.479,0.077,-0.468,0.99
252.379,629.46,-837.93,0.475,-0.547,1.253
265.628,632.073,-818.37,0.656,-0.363,1.126
261.065,608.294,-812.298,0.904,-0.305,1.241
262.217,629.17,-822.585,0.869,-0.285,1.062
274.854,623.287,-812.762,1.037,-0.234,0.974
247.78,633.639,-823.815,0.932,-0.171,0.904
245.11,631.483,-805.76,0.974,-0.067,1.085
268.839,632.28,-818.316,0.826,0.059,1.091
255.655,624.428,-811.948,0.693,0.058,1.167
269.634,628.816,-807.284,0.271,-0.043,1.198
246.499,629.19,-810.716,0.152,-0.04,1.219
267.669,620.681,-832.294,-0.136,-0.066,1.169
268.103,636.671,-814.941,-0.141,-0.053,1.312
239.932,636.078,-804.901,-0.506,-0.055,1.092
262.416,640.232,-807.634,-0.447,-0.012,0.974
256.218,621.909,-801.721,-0.632,0.07,0.861
265.626,630.575,-802.925,-0.256,0.117,1.063
267.981,624.937,-806.235,-0.281,0.198,1.073
258.326,625.165,-810.809,-0.076,0.244,1.192
261.686,612.518,-801.925,-0.138,0.303,1.117
247.615,611.459,-806.915,0.242,0.432,1.17
271.767,627.567,-802.239,0.26,0.526,1.163
264.038,613.407,-815.776,0.498,0.527,1.219
261.84,624.919,-812.673,0.51,0.487,1.16
254.532,629.63,-820.242,0.669,0.454,1.265
252.448,618.563,-809.404,0.559,0.315,1.328
277.285,615.532,-816.196,0.698,0.108,1.341
271.84,610.281,-836.314,0.576,0.06,1.234
271.659,614.049,-823.646,0.783,-0.014,1.176
259.718,625.151,-821.266,0.731,0.024,0.918
261.575,615.838,-806.845,0.835,0.069,0.928
272.351,640.841,-811.654,0.686,0.145,0.884
265.537,633.494,-812.233,0.703,0.124,1.015
278.085,632.827,-803.994,0.305,0.019,0.844
261.21,638.733,-808.445,0.311,-0.056,0.837
272.645,633.442,-792.133,-0.085,-0.142,0.681
272.013,620.943,-811.535,0.194,-0.142,0.554
253.94,624.816,-793.174,0.038,-0.126,0.385
275.453,632.089,-801.879,0.301,0.018,0.57
251.775,633.134,-828.857,0.165,0.064,0.562
262.902,637.811,-798.021,0.317,0.178,0.665
249.128,642.989,-817.343,0.112,0.279,0.56
266.194,632.712,-807.344,0.348,0.4,0.576
273.483,627.402,-815.86,0.036,0.439,0.39
262.828,631.647,-827.338,0.053,0.461,0.344
279.45,634.816,-832.786,-0.342,0.571,0.245
268.614,641.808,-803.202,-0.186,0.718,0.293
251.264,640.003,-823.202,-0.499,0.862,0.369
263.525,635.507,-819.949,-0.542,0.941,0.507
253.765,651.209,-823.519,-0.81,1.139,0.471
256.206,641.551,-821.848,-0.702,1.2,0.661
259.93,631.657,-811.782,-0.843,1.317,0.693
261.658,610.109,-811.611,-0.66,1.349,0.8
246.01,617.038,-819.042,-0.836,1.342,0.764
247.946,640.84,-814.603,-0.607,1.374,0.975
252.955,644.088,-809.36,-0.806,1.567,0.937
271.92,646.722,-805.519,-0.692,1.523,1.162
257.452,638.086,-813.107,-0.988,1.559,1.203
261.515,617.776,-808.123,-0.32,1.411,1.463
242.48,624.018,-829.358,0.033,1.489,1.683
256.832,614.019,-821.434,-0.082,1.462,1.936
267.325,613.979,-831.848,-0.148,1.44,1.506
244.728,632.024,-834.138,-0.009,1.584,1.438
269.727,641.749,-817.458,-0.251,1.224,1.312
247.337,623.847,-820.98,-0.201,1.193,1.435
258.82,631.924,-808.792,-0.281,1.017,1.552
270.774,628.609,-826.501,-0.325,0.836,1.746
247.735,614.489,-808.585,-0.762,0.688,1.51
253.968,630.959,-807.072,-0.936,0.391,1.582
253.14,616.856,-792.721,-0.992,0.087,1.526
266.712,632.983,-804.794,-0.844,-0.209,1.653
269.131,624.897,-792.887,-1.014,-0.274,1.484
279.294,626.794,-778.468,-0.97,-0.205,1.54
271.372,623.524,-786.061,-0.975,-0.366,1.465
272.84,608.294,-783.418,-0.614,-0.421,1.596
250.191,633.42,-797.125,-0.466,-0.635,1.604
252.301,625.734,-801.778,0.06,-0.785,1.737
263.82,621.445,-801.977,0.277,-0.727,1.891
266.243,619.345,-802.572,0.761,-0.817,1.862
286.517,611.146,-810.349,0.674,-0.992,1.614
274.886,621.917,-822.002,0.848,-1.119,1.554
248.687,631.348,-837.256,0.8,-1.113,1.532
267.4,619.665,-812.192,1.137,-1.094,1.473
273.898,622.419,-812.184,0.901,-1.106,1.267
245.359,612.452,-808.351,0.885,-1.162,1.239
263.295,618.342,-808.249,0.63,-1.248,1.144
265.423,632.055,-804.309,0.728,-1.163,1.43
263.03,629.405,-819.852,0.324,-1.26,1.33
261.885,604.213,-824.434,0.188,-1.125,1.356
263.555,621.145,-819.496,-0.091,-1.079,1.215
252.795,608.888,-822.583,0.133,-0.95,1.104
270.136,615.533,-814.496,0.022,-1.021,0.869
268.854,605.609,-806.916,0.602,-0.972,0.869
264.113,619.465,-822.149,0.527,-0.99,0.859
247.174,641.28,-805.918,0.731,-0.993,0.755
244.169,628.202,-798.376,0.714,-0.862,0.472
259.606,652.253,-794.258,0.738,-0.801,0.806
260.617,617.483,-816.766,0.497,-0.99,0.979
257.875,607.172,-797.882,0.599,-0.893,1.095
267.139,629.152,-814.847,0.474,-0.95,0.946
265.52,645.212,-801.907,0.543,-0.952,1.088
265.273,639.071,-816.634,0.29,-0.843,0.995
265.561,649.309,-812.813,0.177,-0.813,1.031
249.458,631.747,-819.151,-0.24,-0.932,0.93
260.775,619.137,-820.89,-0.378,-1.027,1.083
244.831,621.329,-816.249,-0.667,-0.926,1.168
260.823,636.23,-808.874,-0.613,-0.874,1.478
262.98,628.429,-819.018,-0.937,-0.639,1.459
259.491,631.726,-815.689,-0.668,-0.483,1.515
265.573,632.89,-793.547,-0.634,-0.595,1.339
273.932,627.992,-829.342,-0.179,-0.529,1.335
271.705,624.084,-807.61,-0.024,-0.505,1.154
273.69,619.073,-803.213,0.392,-0.502,1.304
268.944,627.612,-800.341,0.416,-0.522,1.114
264.191,635.105,-803.225,0.502,-0.469,1.146
251.967,635.13,-803.653,0.2,-0.606,1.118
275.705,620.921,-795.693,0.256,-0.574,1.215
279.514,635.113,-802.801,-0.135,-0.487,1.041
267.854,649.935,-819.109,-0.298,-0.493,1.104
267.029,635.65,-793.44,-0.796,-0.519,0.869
277.219,627.919,-794.732,-0.798,-0.523,0.959
257.178,640.104,-792.792,-1.16,-0.631,0.861
265.411,633.8,-790.378,-1.099,-0.607,0.959
260.459,643.714,-800.12,-1.329,-0.526,0.904
272.994,633.061,-809.168,-1.144,-0.593,1.104
287.0,633.662,-809.248,-1.333,-0.516,1.041
272.734,645.718,-792.371,-1.082,-0.475,1.171
279.364,629.393,-816.375,-1.085,-0.497,1.053
263.721,632.842,-799.225,-0.722,-0.359,1.145
284.647,631.41,-811.256,-0.586,-0.403,1.077
275.326,633.798,-810.372,-0.269,-0.491,1.19
281.732,637.501,-828.514,-0.453,-0.388,1.245
275.009,629.579,-815.721,-0.345,-0.346,1.374
275.612,636.924,-814.51,-0.646,-0.416,1.248
275.954,639.151,-810.919,-0.428,-0.248,1.436
272.889,638.351,-806.613,-0.587,-0.239,1.5
268.941,652.376,-805.914,-0.506,0.027,1.716
268.541,624.536,-805.61,-0.777,0.042,1.503
266.117,628.412,-823.078,-0.764,0.25,1.604
266.482,622.171,-821.577,-0.918,0.387,1.505
273.342,621.939,-799.545,-0.688,0.395,1.614
274.656,621.083,-813.464,-0.679,0.238,1.443
254.597,629.219,-804.787,-0.63,0.297,1.366
276.355,637.332,-810.214,-0.875,0.288,1.361
263.004,634.524,-825.311,-0.909,0.096,1.528
283.993,633.884,-836.049,-1.192,0.17,1.566
263.284,638.044,-835.676,-1.231,0.225,1.785
274.407,625.161,-834.268,-1.61,0.237,1.608
284.918,616.626,-831.337,-1.53,0.168,1.416
265.066,625.285,-830.503,-1.63,0.119,1.034
288.593,613.608,-827.332,-1.314,0.038,1.033
286.496,633.593,-826.973,-1.003,-0.035,0.994
259.254,625.704,-832.16,-0.372,0.059,1.313
268.384,619.376,-825.314,-0.174,0.206,1.224
276.247,632.392,-837.899,0.269,0.208,1.24
282.923,627.618,-819.948,0.015,0.242,1.055
264.496,622.37,-826.043,-0.127,0.274,1.164
279.53,630.93,-825.453,-0.431,0.372,1.08
250.513,644.565,-841.837,-0.562,0.454,1.278
258.776,634.991,-816.584,-0.999,0.51,1.095
254.35,629.658,-801.105,-0.976,0.404,0.98
263.331,637.845,-808.981,-1.426,0.547,0.829
254.241,624.668,-808.527,-1.545,0.595,0.831
263.422,623.105,-814.439,-1.567,0.82,0.81
267.119,623.44,-795.712,-1.239,0.914,0.838
265.562,612.397,-805.482,-1.101,1.039,0.796
268.13,632.142,-815.948,-0.848,1.252,0.816
254.426,624.855,-815.337,-0.927,1.44,0.576
257.383,633.441,-825.634,-0.903,1.513,0.493
249.777,638.308,-813.683,-1.286,1.396,0.359
250.277,628.811,-823.261,-1.127,1.428,0.498
249.887,639.421,-817.794,-1.524,1.405,0.347
267.593,637.155,-828.282,-1.595,1.272,0.445
266.45,657.741,-793.522,-1.973,1.278,0.292
263.59,641.42,-810.278,-2.042,1.176,0.276
266.77,632.033,-801.14,-2.344,1.118,0.253
259.819,630.77,-791.835,-2.33,0.967,0.281
242.281,622.322,-804.444,-2.434,0.813,0.132
270.347,614.833,-792.095,-2.107,0.555,0.104
260.801,601.387,-795.564,-1.808,0.569,0.091
256.121,616.179,-789.997,-1.274,0.58,0.137
269.755,623.224,-785.277,-0.916,0.41,-0.059
249.152,616.345,-787.796,-0.412,0.202,0.006
256.217,613.671,-786.158,-0.291,-0.088,-0.175
250.779,626.22,-765.604,-0.047,-0.317,-0.188
279.386,620.727,-795.256,-0.125,-0.488,-0.399
265.73,608.68,-773.896,0.089,-0.717,-0.242
269.439,614.012,-774.995,-0.029,-0.859,-0.348
249.677,640.33,-784.09,0.168,-0.975,-0.243
260.812,633.656,-798.389,0.012,-1.169,-0.229
264.033,633.241,-801.424,0.068,-1.34,-0.08
263.351,633.461,-799.515,-0.232,-1.417,-0.117
279.579,630.726,-806.984,-0.378,-1.443,-0.136
272.047,631.276,-811.878,-0.844,-1.394,-0.377
285.01,640.665,-834.683,-0.857,-1.476,-0.36
281.881,623.055,-812.951,-1.076,-1.501,-0.505
290.155,637.543,-816.744,-1.06,-1.429,-0.405
285.732,637.318,-804.886,-0.995,-1.364,-0.474
300.738,625.76,-824.393,-0.433,-1.179,-0.272
303.129,616.293,-819.357,-0.199,-0.976,-0.304
286.804,629.228,-806.075,0.332,-1.005,-0.111
281.35,624.829,-812.358,0.486,-1.039,-0.182
285.089,635.633,-806.795,0.919,-0.91,-0.135
284.73,626.855,-802.978,0.929,-0.831,-0.387
285.46,628.887,-808.094,0.974,-0.744,-0.277
310.586,632.772,-805.718,0.479,-0.517,-0.166
295.411,647.527,-813.587,0.5,-0.442,0.04
297.896,638.745,-823.778,0.079,-0.168,0.205
301.955,630.146,-807.471,0.041,-0.121,0.428
273.864,625.871,-803.384,-0.195,0.082,0.277
270.396,621.258,-803.685,-0.239,0.365,0.348
282.104,615.365,-793.1,-0.477,0.483,0.342
286.78,642.231,-800.703,-0.098,0.747,0.577
282.098,620.302,-802.175,0.23,0.911,0.45
262.341,621.773,-816.096,0.781,1.139,0.647
281.649,640.801,-805.395,0.872,1.394,0.66
282.66,641.841,-828.821,0.996,1.685,0.78
310.397,646.642,-835.54,0.5,1.866,0.616
284.123,640.479,-840.117,0.35,2.009,0.765
289.829,655.857,-844.502,-0.368,2.096,0.679
286.667,632.87,-835.731,-0.741,2.323,0.737
303.06,656.156,-828.329,-1.397,2.497,0.694
277.163,658.357,-822.655,-1.663,2.57,0.746
283.127,627.711,-826.984,-2.072,2.565,0.632
286.596,627.283,-817.31,-2.308,2.666,0.482
283.994,635.843,-815.71,-2.594,2.894,0.224
297.146,633.17,-818.189,-2.478,3.019,0.3
288.003,635.131,-804.574,-2.543,2.893,0.253
270.405,624.421,-818.888,-2.12,2.919,0.455
275.261,618.643,-819.519,-1.928,2.975,0.284
266.296,606.237,-803.896,-1.388,3.145,0.494
278.496,614.31,-801.178,-1.221,3.19,0.371
274.245,617.778,-806.563,-0.752,3.162,0.467
265.614,610.498,-840.449,-0.698,3.133,0.412
270.969,616.795,-817.978,-0.517,3.204,0.526
273.491,647.591,-821.752,-0.602,3.209,0.485
285.327,626.397,-803.329,-0.138,3.182,0.636
260.395,633.806,-803.592,-0.192,3.084,0.664
261.33,615.524,-814.07,-0.009,3.087,0.656
265.756,626.257,-799.159,-0.154,3.096,0.339
281.056,634.007,-800.645,0.246,2.962,0.412
265.658,629.347,-822.517,0.03,2.837,0.337
280.557,623.493,-806.791,0.069,2.764,0.362
275.267,640.846,-809.348,-0.322,2.599,0.258
270.173,637.623,-792.552,-0.503,2.559,0.337
265.254,626.579,-789.21,-1.144,2.525,0.119
263.628,613.793,-802.243,-1.242,2.473,0.081
264.785,623.441,-796.246,-1.604,2.396,-0.072
260.658,620.309,-796.695,-1.303,2.104,0.026
259.136,618.96,-793.287,-1.275,1.976,-0.164
271.038,626.345,-800.501,-1.08,1.735,-0.17
270.977,600.254,-792.598,-1.208,1.542,-0.544
274.934,633.381,-793.801,-0.939,1.515,-0.609
278.908,610.708,-787.764,-1.024,1.375,-0.767
272.734,615.408,-786.028,-0.698,1.301,-0.629
257.607,624.385,-789.625,-0.785,1.212,-0.739
273.591,642.233,-792.683,-0.739,1.072,-0.771
286.625,630.892,-791.082,-0.822,0.992,-0.894
253.433,620.184,-800.385,-0.372,0.932,-0.716
260.814,623.416,-789.59,-0.224,0.923,-0.64
263.241,617.522,-794.09,0.239,0.829,-0.517
262.094,611.01,-783.738,0.322,0.725,-0.655
281.701,628.671,-796.274,0.745,0.475,-0.524
272.044,627.288,-788.431,0.988,0.303,-0.348
257.699,645.445,-808.04,1.319,0.062,0.036
263.88,632.744,-832.085,0.96,-0.01,0.181
270.971,629.473,-821.219,0.736,-0.135,0.164
286.71,633.327,-832.175,0.043,-0.348,-0.072
272.651,645.345,-816.835,-0.072,-0.522,-0.047
288.233,627.001,-803.135,-0.308,-0.612,-0.04
265.309,626.269,-790.445,-0.243,-0.649,0.129
277.636,633.922,-800.434,-0.293,-0.667,-0.028
271.06,613.553,-792.372,0.311,-0.801,0.031
279.688,616.623,-795.757,0.602,-1.019,-0.006
278.648,626.225,-805.837,1.009,-1.082,-0.066
286.139,615.265,-805.079,1.127,-1.219,-0.197
273.346,622.619,-811.733,1.231,-1.179,-0.16
274.893,623.764,-807.428,0.739,-1.153,-0.339
290.482,646.061,-801.94,0.792,-1.121,-0.211
305.871,633.958,-815.545,0.552,-1.184,-0.277
279.297,623.129,-812.534,0.594,-1.19,-0.385
304.612,627.56,-833.669,0.112,-1.055,-0.552
287.585,603.571,-825.126,0.354,-0.867,-0.522
297.182,619.977,-829.766,0.718,-0.824,-0.61
294.511,613.881,-810.912,1.334,-0.794,-0.624
289.451,624.294,-828.795,1.355,-0.759,-0.883
296.759,649.441,-841.869,1.465,-0.828,-0.951
303.745,648.717,-790.932,1.325,-0.782,-0.965
313.637,632.025,-810.467,1.258,-0.631,-0.758
272.336,647.856,-825.991,0.748,-0.639,-0.943
282.433,637.905,-812.459,0.751,-0.574,-0.978
291.166,636.85,-815.651,0.543,-0.593,-1.271
287.071,624.792,-800.768,0.554,-0.598,-1.401
284.218,631.545,-826.183,0.236,-0.508,-1.684
254.597,621.58,-805.55,0.383,-0.531,-1.664
293.437,642.085,-821.14,0.208,-0.541,-1.838
256.868,626.87,-803.482,0.32,-0.422,-1.879
283.475,645.953,-818.173,0.114,-0.301,-2.082
279.397,633.127,-812.958,0.21,-0.178,-2.032
272.689,622.583,-823.404,-0.051,-0.132,-2.12
284.81,637.383,-796.257,0.029,-0.024,-2.256
276.918,616.924,-798.495,-0.194,-0.012,-2.331
277.336,616.902,-795.388,-0.074,0.239,-2.199
275.448,619.88,-813.587,-0.284,0.105,-2.28
289.969,634.044,-803.925,-0.03,0.218,-2.192
276.838,623.134,-793.295,0.014,0.308,-2.145
254.14,618.846,-820.092,0.294,0.25,-2.122
278.714,607.682,-799.973,0.24,0.409,-2.322
288.895,613.633,-799.11,0.525,0.37,-2.347
273.542,616.736,-813.463,0.329,0.18,-2.416
279.709,621.678,-800.954,0.708,0.28,-2.291
291.013,608.557,-795.164,0.586,0.346,-2.2
281.922,640.559,-809.019,0.874,0.178,-1.86
276.01,617.577,-793.13,0.84,0.006,-1.878
264.495,614.893,-787.404,1.07,-0.157,-1.775
264.281,615.884,-791.456,1.058,-0.322,-1.785
278.201,601.872,-788.116,1.398,-0.447,-1.56
276.978,624.225,-796.311,1.291,-0.651,-1.707
277.692,625.681,-784.158,1.702,-0.806,-1.69
302.412,628.538,-792.284,1.699,-1.017,-1.603
270.134,631.19,-790.165,1.921,-1.151,-1.303
271.789,641.981,-803.756,1.666,-1.303,-1.314
277.663,619.307,-802.62,1.732,-1.413,-1.221
273.174,601.419,-799.484,1.329,-1.508,-1.25
283.114,616.21,-796.662,1.193,-1.547,-1.144
288.921,616.422,-814.623,1.061,-1.537,-1.235
282.021,614.62,-806.673,1.71,-1.543,-1.137
266.638,624.632,-816.843,2.166,-1.529,-1.094
285.294,609.675,-803.434,2.918,-1.365,-0.831
275.718,634.283,-818.989,3.215,-1.304,-0.825
282.208,624.579,-830.238,3.67,-1.274,-0.748
282.039,637.045,-808.228,3.396,-1.329,-0.733
283.187,635.103,-823.124,3.288,-1.217,-0.71
265.326,637.819,-793.055,2.806,-1.069,-0.833
294.639,604.8,-812.84,2.683,-1.041,-0.745
289.777,644.613,-807.661,2.306,-1.016,-0.623
285.519,633.242,-811.015,2.178,-0.93,-0.472
291.935,627.547,-814.457,1.73,-0.847,-0.516
287.045,624.742,-820.392,1.488,-0.78,-0.503
282.428,621.087,-805.66,1.062,-0.822,-0.449
278.071,623.986,-814.613,1.167,-0.843,-0.325
279.388,637.252,-802.138,1.202,-0.752,-0.461
264.578,619.591,-810.138,1.534,-0.571,-0.387
281.228,622.228,-803.427,1.521,-0.6,-0.425
306.346,645.152,-799.465,2.212,-0.653,-0.199
280.425,612.318,-824.123,2.624,-0.586,-0.239
282.734,597.561,-813.542,3.207,-0.456,-0.117
283.94,613.924,-819.784,3.303,-0.296,-0.112
294.15,613.776,-845.599,3.774,-0.28,0.053
277.418,619.699,-815.593,3.469,-0.176,-0.092
290.486,619.522,-826.744,3.384,-0.188,-0.096
284.741,615.184,-819.264,3.003,-0.052,-0.276
284.47,620.984,-811.831,3.011,0.03,-0.32
275.136,628.933,-812.405,2.773,-0.125,-0.494
269.159,590.694,-799.993,2.69,0.032,-0.48
274.343,630.593,-820.441,2.408,0.063,-0.571
275.615,642.868,-809.893,2.705,0.148,-0.365
256.838,627.191,-810.354,2.58,0.113,-0.436
242.436,631.959,-797.494,2.459,0.016,-0.367
284.784,609.915,-819.42,2.026,-0.048,-0.575
272.258,645.809,-797.262,2.048,-0.235,-0.676
255.046,606.495,-795.987,1.72,-0.383,-0.796
290.998,607.815,-820.502,1.952,-0.374,-0.657
270.528,608.678,-798.157,2.098,-0.199,-0.725
252.168,621.796,-782.646,2.518,-0.261,-0.563
267.888,626.929,-790.719,2.428,-0.418,-0.747
272.135,608.275,-822.257,2.773,-0.424,-0.683
259.256,612.475,-815.41,2.961,-0.336,-0.846
257.812,626.593,-822.446,3.538,-0.395,-0.52
265.18,610.511,-822.145,3.647,-0.384,-0.633
242.748,615.9,-801.403,3.767,-0.446,-0.58
260.039,615.862,-852.73,3.42,-0.638,-0.898
264.379,617.143,-831.54,3.662,-0.628,-0.893
265.669,609.268,-815.183,3.417,-0.628,-0.987
266.135,611.856,-806.307,3.469,-0.611,-0.811
239.655,609.518,-819.748,3.306,-0.668,-0.908
271.502,619.605,-823.127,3.316,-0.715,-1.033
282.808,624.14,-828.301,3.307,-0.683,-1.067
294.74,604.603,-817.227,3.747,-0.522,-0.89
268.792,622.638,-798.316,3.853,-0.56,-0.862
264.708,621.975,-807.12,4.187,-0.462,-0.825
265.95,619.971,-810.284,4.059,-0.585,-0.854
254.337,635.228,-795.182,4.09,-0.845,-0.482
260.335,623.369,-808.575,3.682,-1.004,-0.399
253.408,646.61,-801.951,3.542,-1.089,-0.269
251.816,625.854,-818.561,3.038,-1.36,-0.072
253.007,620.157,-826.718,2.819,-1.442,-0.038
261.594,641.22,-815.0,2.388,-1.487,-0.179
275.603,618.756,-814.129,2.539,-1.704,-0.194
273.603,621.196,-832.538,2.52,-1.87,-0.401
255.618,592.951,-824.826,2.98,-1.983,-0.389
265.213,591.925,-830.921,3.134,-2.082,-0.663
275.351,607.054,-828.259,3.714,-2.046,-0.852
281.231,595.492,-828.574,4.119,-2.017,-0.909
283.498,607.945,-822.052,4.955,-1.994,-0.72
287.935,601.547,-842.263,5.089,-1.907,-0.834
282.116,607.164,-820.541,5.597,-1.88,-0.822
255.372,606.518,-819.67,5.293,-1.838,-1.117
264.616,639.572,-829.571,5.186,-2.096,-1.344
267.561,648.603,-822.917,4.731,-2.115,-1.489
268.899,637.093,-801.407,4.653,-2.019,-1.26
267.454,628.006,-829.701,4.057,-2.073,-1.151
267.869,619.727,-809.489,4.755,-2.13,-0.942
266.164,616.211,-824.506,4.792,-1.926,-0.82
264.693,624.678,-829.795,4.366,-2.247,-1.238
273.72,641.847,-825.644,4.198,-1.922,-1.779
284.891,616.889,-850.674,4.144,-1.94,-1.544
276.621,620.987,-846.911,4.046,-1.886,-1.395
257.125,610.422,-814.915,4.183,-1.814,-1.152
278.041,629.285,-817.929,3.619,-1.736,-1.48
273.527,625.696,-829.184,3.578,-1.606,-1.611
273.86,631.995,-823.789,3.455,-1.53,-1.753
277.332,618.148,-814.111,3.794,-1.263,-1.287
258.117,620.561,-828.235,3.256,-1.091,-1.238
273.289,621.46,-841.957,2.809,-1.01,-1.207
264.586,630.977,-837.133,2.371,-0.955,-1.334
265.957,626.542,-817.342,2.148,-0.922,-1.383
278.645,612.086,-825.726,1.677,-0.692,-1.215
260.466,616.636,-814.807,1.733,-0.458,-0.949
263.845,613.418,-838.018,1.6,-0.509,-1.11
260.802,617.672,-831.375,1.878,-0.541,-1.153
275.203,615.444,-829.692,1.814,-0.338,-1.251
271.766,606.751,-802.42,2.178,-0.203,-1.213
249.253,593.259,-818.559,2.251,-0.311,-1.293
266.877,629.214,-821.596,2.618,-0.391,-1.233
274.916,616.357,-792.05,2.674,-0.324,-1.261
266.127,604.955,-808.294,3.186,-0.162,-1.067
268.713,607.645,-806.933,3.3,-0.126,-1.005
271.735,612.078,-810.43,3.731,-0.219,-0.776
262.924,617.016,-813.072,3.57,-0.356,-1.007
258.38,574.131,-801.885,3.938,-0.473,-0.969
271.227,611.956,-809.035,3.742,-0.693,-0.781
258.92,604.071,-807.181,4.096,-0.867,-0.769
275.976,604.974,-822.231,3.998,-0.584,-0.986
263.501,597.558,-823.599,3.988,-0.602,-0.919
272.546,614.114,-833.466,3.48,-0.758,-1.082
271.053,623.493,-819.133,2.968,-0.857,-1.084
265.262,614.548,-829.511,2.282,-0.807,-1.144
272.672,620.882,-831.637,1.832,-0.864,-0.878
271.013,617.921,-816.75,1.24,-0.986,-0.954
263.102,601.391,-810.011,1.306,-1.065,-1.059
266.672,618.706,-835.201,1.174,-1.05,-1.096
266.795,600.536,-824.976,1.369,-1.254,-0.929
262.8,606.445,-826.256,1.405,-1.249,-1.025
275.687,610.915,-816.206,2.066,-1.146,-0.939
278.507,600.728,-823.513,2.665,-1.033,-1.026
288.524,598.904,-810.223,3.092,-1.127,-1.057
285.585,603.253,-815.711,3.14,-1.055,-1.169
253.923,611.998,-826.917,3.717,-1.276,-0.987
252.279,602.726,-819.229,3.83,-1.451,-1.035
280.742,601.88,-836.623,4.272,-1.184,-0.791
267.81,620.88,-832.588,4.438,-1.15,-0.526
262.879,620.026,-816.767,4.8,-1.316,-0.201
263.882,613.719,-820.839,4.733,-1.275,-0.567
272.841,600.414,-819.063,4.866,-1.453,-0.333
273.267,597.101,-837.729,4.884,-1.743,-0.691
253.938,610.296,-821.518,4.878,-1.864,-0.595
266.339,622.06,-820.508,4.55,-2.014,-0.632
281.631,619.682,-846.153,4.614,-1.987,-0.58
255.835,628.451,-829.04,4.063,-1.88,-0.6
252.334,628.465,-827.713,3.586,-2.001,-0.491
261.866,630.386,-843.376,2.369,-1.873,-0.682
275.912,618.537,-833.295,1.707,-1.672,-0.959
276.12,623.974,-828.658,0.938,-1.728,-0.889
272.918,633.717,-856.827,0.397,-1.52,-0.939
277.173,646.241,-853.065,-0.256,-1.227,-0.891
271.787,635.467,-847.291,-0.073,-0.939,-0.368
294.583,610.67,-878.792,-0.054,-0.372,-0.201
284.557,602.647,-853.368,0.169,-0.018,-0.113
267.432,579.333,-838.21,0.006,0.208,-0.307
291.261,595.465,-855.369,0.838,0.377,-0.457
286.59,596.399,-853.12,1.442,0.96,-0.812
290.486,621.763,-883.876,2.041,2.028,-1.114
288.989,633.158,-885.072,2.098,2.916,-1.437
291.57,630.44,-890.491,2.355,3.775,-0.916
290.062,645.122,-880.029,2.188,4.742,-0.453
280.423,628.371,-888.036,1.773,4.976,-0.227
298.784,633.424,-873.733,1.421,5.832,-0.41
291.874,655.685,-895.245,1.33,6.603,-0.588
270.898,659.27,-906.106,0.355,7.052,-0.906
288.609,660.644,-921.6,-0.566,7.305,-0.669
300.041,676.218,-886.894,-2.306,7.673,-0.663
271.647,662.271,-888.789,-4.133,7.903,-0.288
297.761,667.79,-888.168,-6.223,7.879,-0.311
320.433,654.99,-863.04,-8.212,8.321,-0.584
315.33,631.537,-859.418,-10.402,8.412,-0.812
295.044,634.518,-836.06,-11.939,8.801,-0.491
289.125,629.823,-807.983,-13.502,8.567,-0.812
289.761,616.885,-774.663,-14.405,7.751,-1.105
313.108,609.157,-779.243,-14.526,8.109,-1.306
271.313,584.207,-770.408,-13.095,8.116,-1.11
269.065,581.836,-765.02,-11.704,7.761,-0.768
263.91,551.819,-765.731,-9.73,7.406,-0.409
270.003,584.069,-744.869,-7.803,6.383,-0.34
248.118,572.424,-728.287,-5.569,5.566,-0.232
274.697,574.317,-750.618,-3.255,5.144,-0.436
269.641,575.259,-761.368,-1.295,4.858,-0.41
262.721,591.453,-768.66,-0.081,4.778,-0.122
254.268,573.167,-776.079,1.264,4.194,0.415
261.633,586.863,-777.222,1.904,3.394,0.754
253.314,567.849,-818.891,2.961,2.759,0.988
244.617,588.617,-815.241,3.451,2.27,0.714
260.65,590.537,-818.603,2.7,1.716,0.418
245.464,617.412,-814.877,0.613,1.157,-0.354
245.543,637.159,-829.333,-1.168,0.791,-0.594
258.89,646.554,-838.318,-3.196,0.233,-0.399
254.223,635.905,-844.014,-4.703,-0.311,0.557
254.813,615.529,-851.334,-6.922,-0.285,0.639
269.648,600.856,-867.286,-8.702,-0.217,0.169
272.159,612.958,-839.026,-9.885,-0.585,-0.624
240.498,635.661,-825.641,-9.908,-1.523,-0.41
261.732,619.64,-791.701,-10.063,-2.105,0.034
260.628,617.346,-790.143,-9.101,-2.254,0.5
258.314,620.472,-768.779,-7.228,-2.504,0.768
226.679,609.479,-754.718,-4.9,-2.882,1.171
220.483,604.92,-762.694,-3.727,-3.184,1.117
237.281,605.559,-759.017,-2.75,-3.708,0.635
238.986,607.735,-783.947,-2.106,-3.782,0.31
228.264,568.447,-784.197,-1.245,-3.466,0.764
261.856,578.981,-796.04,-0.776,-3.005,0.82
257.384,551.762,-799.224,-0.092,-2.778,0.38
241.461,551.061,-828.422,0.251,-2.609,-0.438
245.959,555.57,-815.621,0.891,-2.475,-0.88
253.948,566.917,-830.278,1.629,-1.906,-1.487
249.848,580.352,-855.358,2.715,-1.27,-1.371
231.596,594.685,-867.094,2.951,-0.783,-1.261
241.257,594.047,-884.832,2.649,-0.603,-1.495
249.018,613.38,-887.864,1.499,-0.405,-1.917
247.464,615.13,-884.054,0.502,-0.216,-2.141
251.291,615.958,-889.692,-1.09,-0.144,-2.339
256.037,611.242,-871.234,-2.379,0.148,-2.394
255.905,599.539,-856.716,-3.243,0.571,-2.485
237.947,595.618,-846.702,-3.132,1.01,-2.174
257.364,610.487,-831.205,-2.853,1.163,-1.699
242.464,630.287,-853.775,-2.487,1.204,-1.152
242.861,627.15,-848.027,-2.734,1.18,-0.937
254.515,662.799,-849.941,-3.308,0.814,-0.583
242.234,662.294,-862.009,-5.147,0.521,-0.287
254.568,671.42,-838.419,-7.437,0.298,0.082
248.392,660.277,-850.092,-10.344,0.589,0.419
247.854,642.885,-837.972,-12.766,0.52,0.631
270.352,628.632,-840.214,-15.029,0.459,0.471
274.596,594.77,-855.135,-15.893,-0.161,0.361
280.067,554.373,-815.558,-15.7,-0.859,0.049
272.916,533.726,-805.056,-14.068,-1.451,-0.19
265.452,522.109,-792.807,-12.544,-2.218,-0.531
248.257,524.933,-784.432,-10.088,-2.827,-0.667
252.957,548.246,-769.911,-6.099,-2.995,-0.496
264.768,577.218,-786.182,-3.618,-3.291,0.349
252.846,563.661,-776.958,-2.593,-3.764,0.481
262.882,559.294,-764.025,-1.231,-4.715,0.651
264.739,588.598,-764.528,0.231,-5.138,0.357
267.342,621.351,-760.594,1.653,-5.559,0.961
261.216,623.782,-746.351,2.45,-5.813,1.501
262.907,643.493,-758.707,2.877,-6.057,2.279
255.158,626.669,-785.071,3.082,-5.909,2.496
251.698,622.978,-801.486,3.527,-5.843,2.779
256.786,636.812,-779.037,3.665,-5.956,2.655
245.196,608.751,-804.738,4.065,-5.992,2.721
237.672,592.415,-822.01,4.232,-6.019,2.524
250.231,608.952,-825.296,4.655,-5.958,2.404
252.871,620.46,-813.518,4.732,-5.884,2.324
242.29,627.562,-830.577,4.982,-6.064,2.444
262.346,628.086,-820.298,4.723,-5.906,2.248
260.447,643.573,-820.212,4.554,-5.861,2.365
272.744,642.118,-824.581,4.083,-5.687,2.501
256.84,637.419,-834.706,3.839,-5.719,2.585
246.56,640.66,-832.78,3.176,-5.885,2.494
262.526,637.374,-832.164,2.873,-5.767,2.635
268.564,624.376,-827.572,2.446,-5.653,3.074
244.039,637.97,-829.31,2.451,-5.545,3.564
246.966,636.41,-837.408,2.025,-5.49,3.488
237.315,630.78,-818.163,2.146,-5.62,3.481
229.135,628.476,-818.533,2.104,-5.781,3.52
233.236,647.013,-823.99,2.555,-5.976,3.772
242.541,635.038,-813.643,2.418,-5.928,3.611
250.099,643.861,-833.923,2.547,-5.883,3.493
244.686,649.106,-808.453,2.322,-5.775,3.206
233.646,648.002,-830.276,2.626,-5.982,3.196
236.632,614.923,-818.994,2.689,-6.137,3.24
238.59,622.433,-805.824,2.919,-6.321,3.369
229.99,624.369,-806.507,2.772,-6.437,3.077
236.289,610.5,-823.277,2.983,-6.436,2.958
214.56,625.805,-821.702,2.878,-6.572,2.596
204.422,633.973,-822.631,2.839,-6.885,2.364
215.002,618.82,-816.938,2.606,-7.147,2.03
228.132,644.071,-823.234,2.429,-7.216,2.017
223.623,634.991,-817.258,1.92,-7.191,1.729
231.476,637.505,-822.986,1.387,-7.214,1.57
216.375,639.305,-805.571,0.416,-7.424,1.331
195.398,648.206,-796.242,-0.209,-7.923,1.114
198.824,644.866,-789.15,-0.871,-8.261,0.725
211.967,626.623,-802.537,-1.095,-8.558,0.638
194.717,635.207,-784.539,-1.975,-8.837,0.431
206.982,636.516,-790.526,-1.883,-9.265,0.328
206.532,627.806,-788.218,-2.139,-9.745,-0.192
184.244,636.812,-783.58,-2.032,-10.004,-0.504
197.678,619.711,-791.111,-2.24,-10.345,-0.818
177.072,608.232,-789.813,-1.813,-10.852,-0.767
191.725,621.315,-788.273,-1.895,-11.385,-1.209
196.85,627.104,-790.651,-2.123,-11.713,-1.589
194.362,645.601,-786.381,-2.728,-12.256,-2.12
206.296,646.119,-807.561,-3.157,-12.723,-2.045
192.033,632.171,-771.198,-3.986,-13.209,-2.272
201.929,623.166,-787.616,-4.379,-13.798,-2.473
183.412,635.2,-775.289,-5.473,-14.393,-2.688
171.232,630.779,-769.393,-6.145,-15.221,-2.722
188.174,627.711,-763.711,-7.252,-15.983,-3.04
180.581,630.649,-750.437,-7.524,-16.656,-3.237
179.529,630.912,-768.505,-7.904,-17.447,-3.498
185.35,636.373,-763.547,-7.714,-18.315,-3.2
188.244,586.483,-771.051,-7.048,-18.718,-3.015
190.224,567.412,-766.719,-5.413,-19.289,-3.148
172.888,578.803,-777.128,-4.316,-19.775,-3.469
160.951,594.27,-765.823,-2.878,-20.615,-3.409
179.929,605.047,-758.763,-2.178,-21.324,-3.345
166.3,607.671,-766.509,-1.557,-22.014,-3.255
164.114,607.692,-780.2,-1.474,-22.594,-3.467
161.035,610.635,-788.39,-0.798,-22.947,-3.325
188.978,600.835,-794.253,-0.194,-23.495,-3.239
158.024,579.003,-783.98,0.961,-24.072,-3.435
154.693,567.344,-796.228,1.42,-24.437,-4.028
157.672,569.122,-793.999,2.0,-24.983,-4.305
151.395,580.51,-786.025,2.715,-25.582,-4.582
162.406,582.768,-767.007,3.464,-26.249,-4.654
150.04,581.227,-785.698,3.763,-26.97,-4.478
136.687,567.393,-800.594,4.352,-27.482,-4.08
149.327,572.576,-787.57,4.794,-28.218,-4.165
177.746,573.098,-804.974,5.216,-28.936,-4.191
155.579,603.172,-779.607,5.098,-29.698,-3.891
156.27,599.438,-796.68,5.33,-30.574,-3.402
155.794,601.527,-793.771,4.984,-31.431,-3.236
172.954,621.798,-818.455,4.89,-32.253,-3.155
180.101,616.837,-819.979,4.268,-32.976,-3.423
179.875,624.816,-827.458,3.678,-33.487,-3.29
176.924,624.068,-820.833,2.743,-33.909,-3.415
172.148,609.484,-800.001,2.285,-34.344,-3.425
139.103,633.141,-787.354,1.197,-34.776,-3.894
138.974,621.16,-765.785,0.432,-35.22,-4.306
123.31,625.839,-773.557,-0.918,-35.988,-4.874
111.035,636.774,-759.269,-1.942,-36.653,-5.301
104.019,654.884,-758.029,-3.2,-37.176,-5.914
85.382,629.937,-755.283,-3.922,-37.696,-6.056
84.563,615.643,-741.836,-4.797,-38.158,-6.485
98.271,609.114,-743.328,-5.331,-38.519,-6.972
69.124,601.331,-740.294,-6.115,-39.035,-8.037
69.601,621.694,-718.19,-6.636,-39.561,-9.07
54.582,608.018,-712.715,-7.455,-40.258,-10.246
39.308,616.97,-680.784,-7.936,-41.042,-11.149
28.396,618.929,-663.078,-9.169,-41.843,-12.123
6.361,611.187,-640.726,-10.412,-43.059,-13.269
-18.538,641.512,-619.388,-12.239,-44.39,-14.707
-46.091,639.553,-634.713,-14.44,-46.306,-16.3
-66.795,656.374,-604.172,-17.613,-48.25,-18.118
-97.874,658.233,-608.7,-20.729,-50.665,-19.874
-111.55,680.979,-600.452,-25.05,-53.067,-21.777
-131.675,689.639,-583.832,-30.152,-56.202,-23.735
-165.26,721.675,-573.468,-36.747,-59.225,-25.961
-181.355,732.759,-546.379,-44.25,-62.278,-28.347
-211.99,753.37,-531.83,-52.781,-65.743,-30.992
-220.537,779.12,-516.958,-61.415,-69.263,-33.412
-266.629,788.71,-500.064,-71.187,-73.136,-36.076
-279.459,790.784,-477.567,-81.442,-77.199,-38.768
-290.822,801.034,-441.218,-92.758,-81.36,-42.135
-346.383,787.019,-426.806,-104.8,-85.371,-45.895
-323.901,792.226,-411.362,-117.829,-89.399,-50.453
-372.239,808.857,-407.642,-131.459,-93.419,-55.226
-400.68,812.231,-377.546,-145.857,-97.191,-60.603
-398.813,829.48,-406.51,-160.876,-100.395,-66.129
-419.179,837.413,-390.601,-177.092,-103.539,-72.406
-449.184,867.698,-421.136,-193.687,-106.516,-78.896
-455.04,861.373,-413.17,-210.839,-109.827,-85.296
-474.397,877.248,-425.308,-227.201,-113.211,-91.735
-502.148,860.375,-464.363,-243.294,-116.105,-98.888
-527.207,834.116,-518.166,-257.946,-119.439,-105.829
-527.667,843.555,-531.75,-270.926,-123.198,-113.07
-525.227,846.424,-541.473,-284.569,-127.435,-120.882
-567.697,844.314,-563.744,-299.886,-130.389,-129.361
-541.096,803.552,-596.702,-314.187,-133.642,-137.499
-571.013,801.844,-613.128,-327.311,-136.197,-144.663
-544.609,788.494,-672.143,-338.771,-137.751,-151.862
-552.482,774.501,-677.463,-349.826,-138.685,-161.355
-542.871,747.458,-696.005,-358.405,-140.06,-170.769
-532.064,742.969,-677.141,-366.437,-139.651,-180.468
-514.302,684.933,-659.043,-372.184,-140.167,-188.67
-508.521,689.354,-672.568,-376.255,-139.918,-197.015
-516.834,658.472,-645.282,-379.95,-138.46,-205.267
-477.188,629.294,-628.432,-382.251,-136.764,-212.816
-441.581,622.068,-622.785,-382.797,-132.621,-221.302
-423.493,634.674,-636.733,-383.841,-126.651,-229.396
-416.73,636.023,-634.213,-384.001,-120.954,-237.027
-418.902,659.266,-647.384,-381.814,-115.812,-244.892
-413.336,657.456,-655.515,-377.41,-111.283,-252.027
-402.735,649.139,-645.983,-374.011,-104.565,-261.587
-406.19,655.104,-689.854,-368.425,-97.357,-271.044
-394.784,647.218,-697.683,-361.187,-90.011,-278.941
-381.836,685.985,-718.749,-352.371,-82.656,-284.118
-382.499,715.809,-725.293,-345.311,-75.052,-288.652
-372.096,728.239,-732.279,-338.9,-65.986,-292.185
-388.69,742.502,-715.528,-330.54,-56.267,-294.442
-410.147,759.993,-700.519,-319.18,-49.407,-294.488
-421.623,790.59,-675.567,-309.073,-40.235,-295.699
-456.462,757.157,-624.401,-299.374,-30.062,-297.731
-444.051,729.844,-594.158,-288.364,-22.155,-298.733
-470.918,710.113,-539.107,-276.169,-13.44,-298.996
-492.455,701.184,-481.566,-265.481,-5.72,-298.946
-502.986,687.903,-443.339,-256.347,2.659,-297.525
-498.709,652.765,-387.333,-246.825,10.936,-295.162
-555.004,620.728,-330.877,-235.033,18.521,-290.178
-548.462,566.146,-270.383,-220.726,25.971,-284.014
-583.264,543.565,-232.079,-204.593,33.155,-277.103
-600.257,503.008,-203.524,-188.389,40.652,-271.688
-663.359,494.008,-177.022,-170.425,47.049,-267.165
-660.486,496.497,-155.271,-152.215,52.166,-262.332
-707.359,549.37,-159.059,-134.682,56.309,-257.223
-744.566,628.766,-173.431,-118.221,60.454,-253.51
-755.718,703.575,-191.041,-102.773,64.388,-249.215
-777.076,803.148,-213.725,-89.427,67.801,-244.262
-813.952,862.62,-217.574,-76.876,70.003,-237.416
-821.92,941.745,-215.801,-66.122,72.352,-228.909
-833.853,1014.585,-217.863,-56.909,74.609,-220.202
-846.195,1073.379,-200.77,-49.513,77.289,-212.806
-875.03,1137.59,-181.468,-42.39,79.922,-206.113
-902.18,1201.893,-136.323,-35.865,80.848,-199.175
-927.046,1233.098,-120.72,-30.258,81.766,-191.57
-954.299,1266.085,-74.954,-26.836,81.979,-184.614
-1005.527,1286.582,-62.995,-23.944,81.329,-177.501
-968.991,1267.353,-27.44,-21.891,80.536,-170.169
-978.625,1249.171,-15.352,-19.613,79.587,-162.2
-941.109,1254.813,10.942,-18.236,79.045,-154.466
-901.07,1238.639,49.068,-16.417,79.135,-146.413
-891.094,1212.432,56.626,-14.67,79.736,-139.286
-891.081,1218.344,73.048,-13.787,78.227,-131.19
-894.99,1217.616,75.471,-13.652,77.074,-122.002
-920.257,1216.546,101.806,-10.547,76.493,-113.11
-928.35,1224.026,118.48,-5.941,75.013,-104.741
-967.848,1181.992,124.482,-1.397,72.467,-96.284
-964.503,1153.543,143.033,1.838,68.074,-86.835
-963.52,1131.721,134.415,6.575,62.797,-75.962
-917.813,1112.341,121.96,13.281,58.392,-65.236
-916.993,1100.831,136.585,21.387,55.891,-54.919
-864.019,1115.753,153.737,28.996,52.752,-45.197
-869.601,1111.495,178.122,36.355,50.418,-34.174
-810.342,1099.148,190.097,43.29,47.884,-23.404
-808.429,1105.581,207.263,50.281,45.402,-14.072
-780.785,1089.367,222.917,56.451,42.495,-5.918
-782.368,1108.179,236.982,62.949,39.399,1.438
-783.209,1104.047,255.989,69.633,36.09,8.138
-788.925,1104.994,263.635,76.76,32.962,14.891
-769.881,1146.1,278.99,81.98,30.094,20.504
-744.664,1194.023,266.672,85.684,27.2,25.531
-727.499,1232.608,286.053,86.819,24.112,30.468
-719.27,1254.373,276.557,86.469,21.522,35.524
-687.935,1244.453,276.186,83.809,19.124,39.761
-681.361,1263.87,270.374,78.797,16.813,43.466
-689.299,1246.553,283.609,71.469,14.177,46.444
-678.709,1192.204,260.305,63.506,11.044,49.848
-674.328,1177.757,269.775,55.148,7.758,52.841
-664.65,1124.748,260.061,47.584,4.683,55.329
-649.549,1089.856,248.512,39.663,1.953,57.409
-635.062,1003.679,229.207,32.556,-0.49,59.765
-608.223,972.528,230.874,26.123,-2.967,61.721
-615.607,921.636,216.325,21.101,-4.826,63.715
-589.632,881.847,232.552,16.385,-6.334,65.169
-614.26,844.932,240.571,12.418,-7.633,66.531
-632.525,797.234,231.593,9.761,-9.276,67.549
-669.379,727.833,230.902,9.198,-11.255,68.281
-735.651,638.317,252.338,10.779,-14.808,68.945
-774.0,502.043,281.773,16.254,-19.625,69.896
-816.305,373.141,327.113,25.197,-26.651,70.374
-813.855,262.547,362.001,37.947,-33.65,70.949
-787.398,198.313,379.545,52.051,-39.852,71.048
-761.553,176.274,379.321,66.318,-44.468,71.576
-714.854,206.375,365.685,78.723,-47.163,72.279
-665.813,279.765,347.471,89.935,-47.181,73.702
-623.403,413.161,315.973,98.894,-45.132,74.747
-594.874,552.383,263.49,104.136,-42.378,75.67
-576.779,704.692,202.986,101.615,-38.002,75.167
-591.985,840.006,132.585,91.584,-33.72,72.733
-595.508,957.624,77.782,76.112,-29.876,68.056
-636.02,994.629,27.473,58.425,-26.947,63.255
-705.695,972.222,-28.032,39.362,-24.771,58.938
-756.552,925.831,-54.037,21.389,-23.796,54.863
-803.151,819.892,-85.542,5.154,-23.318,50.651
-834.741,703.855,-70.692,-8.749,-22.795,46.409
-848.304,579.864,-85.75,-19.795,-22.285,41.903
-872.42,464.0,-83.464,-27.052,-21.727,37.511
-853.579,348.816,-65.714,-32.079,-20.532,32.877
-883.182,267.006,-63.063,-33.714,-19.317,28.886
-911.67,164.736,-25.348,-33.128,-18.358,24.934
-937.863,95.933,-16.252,-30.3,-17.704,21.728
-933.547,47.264,6.576,-25.503,-17.109,18.436
-968.934,15.112,23.149,-18.339,-17.033,15.468
-987.487,4.957,38.159,-10.011,-17.338,12.17
-989.251,-31.508,25.643,-1.141,-17.024,9.071
-967.373,-14.586,26.461,6.786,-16.33,6.112
-960.862,-8.038,-35.597,15.613,-15.755,3.869
-933.894,-7.563,-55.816,24.979,-14.96,2.344
-899.43,8.359,-121.898,35.442,-13.956,2.05
-861.951,37.762,-124.821,46.226,-13.291,2.407
-831.119,49.055,-172.746,58.866,-12.98,2.928
-814.844,89.019,-183.937,72.326,-11.809,2.351
-789.415,94.988,-215.274,86.498,-10.539,0.561
-793.496,131.119,-160.761,101.131,-9.292,-2.127
-818.775,184.856,-156.216,117.842,-7.573,-4.714
-825.683,202.679,-108.668,133.098,-6.556,-7.691
-834.944,204.186,-154.193,148.021,-5.635,-9.545
-860.988,244.621,-172.739,159.223,-4.752,-12.048
-869.952,335.703,-181.317,161.639,-7.04,-13.57
-857.063,375.955,-182.545,167.217,-5.149,-11.846
-912.091,506.456,-167.346,181.275,0.257,-8.371
-960.666,613.391,-124.601,192.666,3.435,-3.192
-1039.301,659.106,-103.098,198.605,3.159,1.588
-1047.724,688.371,-113.242,199.112,1.093,3.176
-1035.865,709.041,-115.737,197.022,-2.337,4.036
-1000.325,746.21,-168.934,196.071,-4.607,5.974
-955.057,777.101,-198.726,198.087,-5.165,9.744
-904.48,797.375,-252.644,200.725,-4.447,13.639
-903.836,799.259,-262.179,202.274,-3.025,16.401
-855.423,788.76,-269.218,201.738,-1.38,17.451
-879.111,771.508,-270.254,201.249,1.071,17.545
-868.325,721.366,-307.814,201.497,4.501,16.83
-923.54,666.865,-260.191,203.856,7.491,15.924
-923.275,589.896,-249.704,207.339,7.423,16.79
-945.862,536.599,-253.633,210.087,7.1,19.121
-967.957,515.297,-263.712,211.801,5.766,21.813
-994.981,515.957,-232.088,214.239,2.59,24.985
-979.568,532.795,-248.105,216.743,0.067,28.159
-991.611,521.984,-233.919,219.59,-2.563,31.189
-988.565,541.338,-256.645,221.218,-5.649,34.659
-982.847,529.161,-281.073,222.072,-8.119,39.541
-940.742,519.856,-323.608,222.096,-10.018,44.529
-921.581,500.346,-327.416,221.955,-11.613,48.469
-905.015,500.088,-371.434,220.062,-12.526,51.468
-893.373,495.918,-381.239,218.465,-13.324,53.512
-878.808,526.621,-408.794,216.713,-13.987,54.76
-911.951,509.359,-400.728,212.517,-14.873,55.839
-896.166,486.478,-404.487,206.041,-17.977,56.752
-852.243,486.302,-418.331,199.837,-20.147,58.372
-828.857,472.952,-430.93,194.515,-21.94,60.359
-803.249,471.78,-446.042,189.903,-21.692,61.59
-794.724,482.075,-481.821,184.693,-20.325,61.427
-817.829,480.996,-427.765,181.322,-19.842,62.269
-790.844,459.0,-453.279,178.003,-18.955,62.519
-797.953,429.72,-468.93,175.239,-16.864,62.314
-815.625,429.316,-463.557,174.398,-15.445,62.442
-850.451,454.744,-478.938,174.534,-15.047,61.127
-875.038,497.74,-475.352,172.086,-16.122,56.812
-916.162,562.862,-457.691,168.466,-20.027,53.611
-944.494,607.061,-440.67,164.392,-24.538,51.309
-942.25,620.468,-423.363,160.285,-27.933,49.283
-945.685,598.794,-408.856,155.722,-31.539,47.823
-950.484,585.165,-382.696,151.652,-35.4,45.461
-909.453,560.103,-376.278,145.407,-37.218,40.279
-857.136,558.539,-368.105,138.138,-37.091,34.576
-805.163,578.05,-361.341,131.681,-35.461,28.856
-743.763,568.819,-367.981,126.572,-33.229,24.584
-689.997,593.81,-400.676,120.063,-29.832,22.545
-687.492,610.594,-424.33,113.046,-26.247,21.977
-645.658,629.491,-461.013,105.445,-22.505,20.06
-665.105,636.015,-480.879,98.693,-19.472,15.974
-666.406,663.794,-472.177,91.502,-16.255,8.568
-668.957,658.185,-503.672,83.867,-14.499,-0.157
-676.882,618.812,-499.008,74.987,-14.418,-10.171
-677.115,568.542,-492.175,65.035,-15.17,-20.951
-680.376,545.896,-462.027,53.833,-17.165,-30.521
-668.554,520.996,-431.749,43.322,-19.369,-37.658
-661.88,500.546,-416.131,33.702,-20.084,-43.264
-683.84,518.208,-411.517,25.444,-19.109,-47.479
-678.871,544.994,-412.165,18.16,-17.197,-49.944
-709.935,612.765,-385.163,13.081,-14.779,-49.372
-729.461,688.399,-408.899,8.896,-12.574,-47.321
-776.428,765.485,-407.831,4.282,-10.965,-45.707
-804.639,810.849,-400.711,-2.976,-10.173,-45.295
-839.656,891.041,-419.276,-11.993,-10.689,-46.065
-818.026,931.174,-406.782,-23.591,-11.494,-48.21
-830.278,982.043,-404.112,-36.245,-12.118,-50.82
-819.987,988.844,-415.053,-49.872,-12.113,-53.456
-798.101,1001.419,-413.447,-63.076,-11.755,-55.888
-770.029,1014.89,-409.925,-76.689,-10.84,-58.596
-780.352,1005.756,-413.969,-90.392,-9.781,-61.861
-750.623,1019.642,-426.378,-104.371,-8.903,-65.771
-739.393,1034.809,-423.302,-117.953,-7.966,-70.049
-749.439,1030.557,-401.7,-132.233,-7.14,-74.514
-762.561,1058.611,-368.193,-146.767,-6.815,-78.442
-780.804,1071.279,-337.445,-161.613,-7.942,-82.255
-812.989,1073.203,-321.211,-176.321,-9.571,-85.889
-811.569,1051.829,-265.149,-192.267,-11.392,-89.315
-826.696,1047.745,-254.12,-208.416,-13.838,-92.667
-834.954,1030.167,-234.398,-225.375,-16.196,-96.872
-856.842,1007.43,-226.616,-241.613,-18.344,-101.608
-838.215,958.126,-224.521,-257.001,-20.384,-106.786
-822.157,920.815,-208.696,-269.954,-21.707,-112.156
-816.005,892.232,-197.181,-281.567,-23.049,-117.04
-797.833,831.806,-228.734,-291.559,-24.096,-119.232
-791.638,776.216,-223.176,-298.334,-24.084,-118.402
-802.078,721.714,-218.301,-301.143,-22.968,-117.396
-787.574,665.143,-211.392,-301.348,-21.304,-115.601
-804.285,578.914,-189.318,-298.253,-19.392,-114.114
-826.873,530.203,-194.081,-293.695,-18.319,-112.71
-833.404,489.302,-190.855,-287.298,-18.393,-109.285
-839.248,432.023,-206.403,-278.776,-19.258,-106.623
-856.734,415.092,-156.975,-266.213,-18.536,-102.282
-871.525,383.934,-179.908,-251.688,-17.354,-97.365
-869.21,381.923,-166.255,-235.686,-17.056,-92.033
-898.532,384.092,-157.243,-220.402,-16.903,-87.476
-902.288,367.578,-137.875,-204.43,-18.018,-82.736
-942.444,366.0,-158.263,-187.861,-19.021,-78.09
-942.146,341.541,-153.822,-170.507,-20.202,-71.224
-932.078,374.496,-150.345,-154.373,-22.263,-64.282
-935.615,348.801,-138.649,-139.825,-23.762,-58.273
-911.82,337.42,-137.494,-127.389,-25.336,-53.588
-909.939,326.539,-136.933,-115.548,-26.373,-48.486
-903.446,324.567,-148.203,-104.613,-27.203,-43.518
-874.565,323.617,-161.793,-94.022,-27.901,-39.242
-859.014,331.778,-159.035,-84.607,-28.363,-34.784
-847.559,344.223,-158.655,-76.311,-28.338,-28.812
-854.951,335.095,-186.169,-69.34,-28.287,-23.103
-832.268,382.247,-178.211,-62.464,-28.852,-17.679
-832.565,384.243,-189.213,-56.253,-29.759,-13.048
-835.945,409.613,-182.155,-50.594,-30.639,-8.988
-812.098,439.303,-206.706,-46.128,-31.393,-5.629
-809.157,471.533,-195.748,-41.828,-31.845,-2.073
-799.147,507.41,-203.35,-38.279,-32.171,1.362
-793.687,510.419,-217.564,-35.338,-32.315,4.943
-772.054,533.894,-210.063,-33.322,-32.123,7.989
-768.318,541.174,-210.899,-31.5,-32.196,10.777
-758.31,567.718,-207.733,-30.51,-32.147,12.915
-769.158,574.103,-196.753,-29.68,-32.323,15.207
-749.993,591.316,-176.196,-29.424,-32.791,17.321
-755.65,615.716,-181.04,-28.828,-33.165,19.457
-733.65,597.987,-184.586,-29.207,-33.558,21.376
-740.481,633.486,-178.139,-29.554,-33.404,23.105
-739.158,616.065,-174.153,-30.623,-33.071,24.369
-723.434,620.326,-169.582,-31.95,-32.884,26.136
-726.428,618.928,-177.964,-33.759,-32.301,27.577
-728.672,609.204,-170.507,-35.063,-31.736,29.104
-697.706,616.835,-185.987,-36.586,-31.449,30.434
-707.151,600.397,-178.969,-37.502,-31.006,31.813
-693.978,620.398,-193.294,-38.42,-30.367,32.862
-711.809,601.587,-196.14,-38.418,-29.828,33.997
-695.178,609.708,-212.936,-38.505,-29.314,35.069
-710.267,613.327,-201.429,-38.019,-29.053,36.327
-692.854,623.19,-198.444,-37.671,-28.529,37.432
-697.926,602.223,-210.462,-37.048,-27.862,38.768
-690.867,614.879,-234.097,-36.927,-27.182,39.602
-686.712,628.266,-233.879,-36.529,-25.946,40.598
-680.072,635.206,-254.078,-36.742,-24.896,41.367
-688.733,649.124,-242.533,-36.721,-23.941,42.412
-671.455,648.72,-262.135,-37.411,-22.789,43.36
-689.367,659.842,-246.782,-37.634,-21.557,44.377
-668.695,657.754,-255.295,-38.024,-20.034,45.131
-678.979,653.354,-253.324,-38.7,-18.365,45.734
-680.813,654.183,-276.5,-39.964,-16.98,45.925
-693.555,676.781,-259.31,-41.394,-15.384,46.486
-708.318,672.551,-258.892,-43.118,-13.925,47.078
-698.589,663.036,-285.204,-44.277,-12.381,48.08
-698.244,655.487,-277.907,-45.64,-10.866,48.762
-708.74,650.228,-267.691,-46.587,-9.259,49.545
-681.799,645.258,-276.814,-47.959,-7.517,49.902
-706.628,634.962,-283.849,-48.957,-5.934,50.685
-687.073,632.282,-276.289,-50.604,-4.721,51.316
-696.667,640.436,-297.929,-51.999,-3.267,51.992
-684.81,633.981,-296.574,-53.643,-1.662,52.19
-676.355,628.795,-290.38,-54.703,-0.022,52.292
-680.092,619.395,-304.629,-56.598,1.859,52.172
-671.746,641.998,-287.331,-58.254,3.347,52.408
-653.153,630.229,-311.666,-60.273,4.806,52.335
-660.718,659.936,-299.38,-62.275,6.492,52.426
-668.5,632.474,-323.502,-64.501,8.306,52.189
-629.79,628.807,-317.876,-65.973,10.275,52.077
-666.645,642.536,-340.995,-67.881,12.053,51.503
-648.789,647.029,-338.438,-69.997,13.613,50.95
-651.59,630.563,-329.174,-72.033,15.669,50.27
-647.656,621.237,-313.76,-73.607,17.447,49.602
-651.882,641.671,-323.96,-75.038,19.615,48.652
-688.87,640.048,-310.268,-76.107,21.958,47.699
-707.735,640.379,-309.647,-77.447,24.193,46.31
-743.511,648.336,-302.279,-78.542,26.276,45.269
-750.166,638.251,-316.819,-79.815,27.958,44.652
-767.219,653.788,-302.268,-80.483,29.187,44.569
-781.779,650.115,-282.52,-81.708,30.584,44.165
-777.73,674.392,-300.703,-82.249,32.125,43.976
-770.173,679.785,-297.408,-83.394,33.612,43.861
-782.909,682.147,-282.519,-84.471,35.263,43.726
-770.047,674.082,-278.523,-85.713,37.141,43.596
-766.171,672.34,-297.86,-86.584,39.111,43.939
-778.835,662.645,-279.678,-87.833,41.279,44.492
-768.37,675.37,-276.789,-88.862,43.308,45.53
-766.731,630.88,-280.305,-90.018,45.058,46.131
-771.804,609.968,-290.43,-90.08,46.519,46.953
-784.175,604.883,-293.391,-89.964,47.8,47.18
-770.183,603.222,-301.086,-89.013,49.106,47.458
-751.899,595.951,-280.141,-88.613,50.709,47.453
-759.549,570.258,-289.178,-87.679,52.498,47.859
-766.412,562.873,-253.604,-87.099,54.207,47.914
-761.484,586.304,-266.804,-86.416,55.915,48.224
-756.935,563.592,-259.036,-86.118,57.572,48.612
-785.595,580.026,-256.203,-85.44,59.037,49.093
-806.166,587.582,-244.915,-85.262,60.17,49.16
-819.226,569.569,-237.641,-84.736,61.088,49.153
-800.637,565.683,-232.355,-84.465,62.482,48.812
-815.64,574.713,-234.057,-83.834,63.853,48.836
-801.641,563.116,-212.8,-83.894,64.559,48.739
-822.512,575.661,-220.213,-83.549,65.366,48.837
-806.662,548.913,-207.949,-83.338,66.228,48.562
-821.428,556.765,-190.007,-82.621,67.044,48.161
-819.346,533.096,-193.296,-81.971,67.761,47.608
-817.703,522.791,-164.375,-80.956,68.242,47.289
-821.612,535.207,-185.094,-80.139,68.591,46.883
-821.023,528.795,-182.043,-78.574,68.971,46.573
-802.929,533.459,-172.814,-77.445,69.217,45.946
-806.827,512.987,-163.526,-76.258,69.735,45.418
-804.197,537.239,-178.312,-75.591,70.232,44.372
-809.845,520.324,-161.317,-74.481,70.749,43.364
-822.671,531.218,-136.421,-73.711,71.049,42.34
-832.887,514.998,-145.069,-72.472,71.471,41.787
-836.899,516.501,-129.003,-71.563,71.576,41.037
-859.202,519.384,-126.094,-70.519,71.445,40.277
-840.054,522.613,-127.168,-69.939,71.765,39.083
-851.89,527.798,-111.767,-68.73,71.694,38.076
-848.274,545.907,-107.399,-67.88,71.516,37.223
-868.875,531.42,-108.124,-66.286,71.141,36.749
-856.442,498.133,-99.928,-64.578,70.823,36.148
-865.584,506.074,-102.454,-62.084,70.396,35.572
-855.507,512.47,-95.995,-59.752,70.115,34.681
-871.988,504.382,-95.917,-56.804,69.694,34.329
-869.988,511.396,-104.002,-54.07,69.246,34.08
-868.417,513.812,-92.613,-50.976,68.628,33.917
-851.62,502.323,-99.116,-48.562,68.243,33.356
-853.387,527.04,-92.698,-45.941,67.789,33.054
-850.769,508.38,-92.859,-43.667,67.427,32.543
-852.605,508.226,-102.181,-40.956,67.126,32.272
-847.344,514.891,-105.031,-38.577,66.796,31.643
-836.864,498.511,-98.479,-35.64,66.278,31.316
-848.739,470.296,-89.6,-32.601,65.957,30.897
-831.692,476.227,-98.635,-29.256,65.713,30.612
-819.142,511.582,-80.036,-26.556,65.504,30.149
-833.514,514.06,-75.763,-23.528,65.017,29.853
-837.92,502.049,-85.865,-20.678,64.533,29.286
-830.463,500.787,-70.548,-17.25,63.967,29.091
-831.608,530.59,-83.28,-14.183,63.314,28.66
-837.095,534.544,-68.877,-11.216,62.665,28.325
-856.0,535.161,-81.386,-9.244,62.231,27.27
-853.852,550.795,-66.223,-7.603,61.26,26.24
-828.529,588.399,-56.791,-6.713,60.621,25.349
-850.466,573.258,-44.474,-5.999,60.167,24.715
-873.964,592.785,-11.769,-6.117,59.566,24.0
-887.445,598.017,-27.123,-6.053,58.861,23.416
-863.32,603.566,-40.674,-6.637,58.186,23.025
-865.26,618.305,-19.195,-6.896,57.36,23.353
-898.755,614.863,-16.503,-7.333,56.609,23.476
-896.359,602.128,-21.583,-7.239,55.631,23.315
-891.323,596.439,-23.311,-7.644,54.363,22.735
-901.349,608.368,-11.487,-8.388,52.837,22.257
-875.772,644.946,-4.271,-10.8,51.506,21.182
-867.693,648.512,-6.301,-13.765,50.967,20.509
-867.88,679.85,-10.322,-17.233,50.596,20.385
-879.919,675.398,6.821,-20.408,49.778,20.532
-864.563,662.947,3.903,-23.606,48.795,19.886
-885.283,638.954,-13.37,-25.927,47.773,19.317
-874.736,605.239,-10.539,-27.627,46.435,18.968
-873.384,578.789,-2.235,-27.896,45.351,19.538
-910.404,561.011,-0.246,-27.401,44.272,19.535
-889.168,555.946,-17.901,-25.899,42.396,19.121
-910.499,568.136,-23.093,-24.298,40.539,18.491
-891.699,547.784,-7.872,-22.108,38.795,18.226
-895.435,547.374,-26.049,-20.873,37.085,18.03
-884.421,538.251,-26.877,-19.465,35.989,18.312
-875.546,537.345,-29.21,-18.173,35.354,18.487
-874.579,538.887,-33.304,-16.208,34.593,18.402
-860.509,512.587,-26.855,-14.323,33.747,17.636
-887.248,515.228,-27.047,-11.956,32.255,16.806
-898.894,513.961,-4.583,-9.857,30.549,16.018
-904.127,516.925,-19.502,-7.053,29.111,15.573
-904.37,547.344,-9.395,-4.622,27.514,14.815
-899.983,536.399,-6.862,-1.989,26.145,14.154
-898.805,548.987,17.877,0.115,24.638,13.195
-890.204,572.024,14.532,2.659,23.419,12.478
-892.396,566.953,1.272,4.286,22.384,11.678
-861.723,583.396,34.071,5.556,21.369,11.39
-864.16,576.353,9.183,6.103,20.331,10.966
-856.14,576.909,24.977,6.888,19.528,10.659
-861.635,577.542,23.177,7.358,18.895,9.843
-847.731,587.683,11.829,8.317,18.442,9.319
-843.521,567.36,22.353,8.844,17.803,8.674
-828.793,567.998,16.267,10.381,17.332,8.64
-833.564,557.562,2.422,12.317,16.762,8.645
-844.419,543.39,20.373,15.171,16.103,8.845
-833.093,542.147,4.33,18.095,14.991,8.66
-822.301,543.274,23.15,21.393,13.94,8.61
-809.898,537.245,21.146,24.348,12.929,7.931
-803.537,555.568,27.217,27.426,12.012,7.599
